"Time (s)","Acceleration x (m/s^2)","Acceleration y (m/s^2)","Acceleration z (m/s^2)"
5.094621000E-2,9.798758507E0,4.162015915E-1,-3.309572935E-1
7.594621000E-2,9.773484230E0,3.862912953E-1,-3.454637825E-1
1.009462100E-1,9.734002113E0,2.905783951E-1,-3.909274042E-1
1.259462100E-1,9.769894600E0,5.035396218E-1,-3.550350666E-1
1.509462100E-1,9.768698692E0,4.377369881E-1,-3.237788081E-1
1.759462100E-1,9.799954414E0,3.743271828E-1,-4.232304990E-1
2.009462100E-1,9.669396400E0,5.262714028E-1,-3.118146956E-1
2.259462100E-1,9.796365738E0,6.652047038E-1,-3.430709541E-1
2.509462100E-1,9.814311981E0,7.082754970E-1,-3.753740489E-1
2.759462100E-1,9.875329018E0,6.376872063E-1,-2.268694937E-1
3.009462100E-1,9.608379364E0,5.682953596E-1,-2.615654171E-1
3.259462100E-1,9.823883057E0,4.592723846E-1,-3.237788081E-1
3.509462100E-1,9.737591743E0,4.843970239E-1,-2.555833757E-1
3.759462100E-1,9.742377281E0,6.759724021E-1,-2.807080150E-1
4.009462100E-1,9.668199539E0,6.747759581E-1,-3.309572935E-1
4.259462100E-1,9.681360245E0,5.419743061E-1,-2.400300205E-1
4.509462100E-1,9.826275826E0,6.257231236E-1,-2.603690028E-1
4.759462100E-1,9.688538551E0,5.850451589E-1,-3.861417472E-1
5.009462100E-1,9.622735977E0,4.748257399E-1,-4.136592150E-1
5.259462100E-1,9.726823807E0,4.808078110E-1,-4.627120793E-1
5.509462100E-1,9.635896683E0,2.690429986E-1,-6.207879186E-1
5.759462100E-1,9.736394882E0,2.833999395E-1,-5.033900738E-1
6.009462100E-1,9.805936813E0,4.353441596E-1,-5.368895531E-1
6.259462100E-1,9.754341125E0,3.180958629E-1,-3.957130313E-1
6.509462100E-1,9.769894600E0,2.270190418E-1,-4.579264224E-1
6.759462100E-1,9.689735413E0,9.541380405E-2,-4.244269133E-1
7.009462100E-1,9.689735413E0,4.006482363E-1,-5.620142221E-1
7.259462100E-1,9.789037704E0,3.432205021E-1,-5.105685592E-1
7.509462100E-1,9.754341125E0,3.695415556E-1,-4.411766827E-1
7.759462100E-1,9.769894600E0,5.706881881E-1,-3.873381615E-1
8.009462100E-1,9.774680138E0,9.189934731E-1,-1.933699846E-1
8.259462100E-1,9.704092026E0,1.273280740E0,-5.081757307E-1
8.509462100E-1,9.669396400E0,1.533051610E0,-1.921735704E-1
8.759462100E-1,9.819097519E0,1.376321673E0,-6.415756047E-2
9.009462100E-1,9.708877563E0,1.388285756E0,-2.065305114E-1
9.259462100E-1,9.677771568E0,1.494766355E0,-2.436192483E-1
9.509462100E-1,9.743574142E0,1.292423368E0,-4.663013220E-1
9.759462100E-1,9.744770050E0,9.931709766E-1,-5.021936297E-1
1.000946210E0,9.487392426E0,8.280661702E-1,-3.526422381E-1
1.025946210E0,9.780662537E0,5.178965330E-1,-4.974080026E-1
1.050946210E0,9.705288887E0,3.503989577E-1,-6.626623273E-1
1.075946210E0,9.789037704E0,6.939185858E-1,-4.962115884E-1
1.100946210E0,9.566504478E0,7.692924738E-1,-5.309075117E-1
1.125946210E0,9.739984512E0,6.675975323E-1,-6.626623273E-1
1.150946210E0,9.768698692E0,6.699903607E-1,-5.309075117E-1
1.175946210E0,9.676574707E0,6.077769399E-1,-4.686941206E-1
1.200946210E0,9.728020668E0,4.556831717E-1,-5.739783049E-1
1.225946210E0,9.762716293E0,7.226324677E-1,-3.849453330E-1
1.250946210E0,9.831061363E0,8.340482712E-1,-5.691927075E-1
1.275946210E0,9.598808289E0,7.597211599E-1,-3.538386524E-1
1.300946210E0,9.710074425E0,8.543872237E-1,-2.675474882E-1
1.325946210E0,9.684949875E0,9.010472894E-1,-4.866403043E-1
1.350946210E0,9.817900658E0,7.381857634E-1,-5.656034350E-1
1.375946210E0,9.726823807E0,6.149554253E-1,-4.686941206E-1
1.400946210E0,9.667003632E0,8.842974901E-1,-5.464608669E-1
1.425946210E0,9.637093544E0,6.879364848E-1,-5.045864582E-1
1.450946210E0,9.711270332E0,6.604190469E-1,-5.261218548E-1
1.475946210E0,9.749555588E0,6.699903607E-1,-4.220340848E-1
1.500946210E0,9.698110580E0,6.927221417E-1,-2.328515500E-1
1.525946210E0,9.761520386E0,6.113662124E-1,-1.419242918E-1
1.550946210E0,9.710074425E0,7.357929349E-1,-2.041376829E-1
1.575946210E0,9.787840843E0,7.776673436E-1,-3.022434115E-1
1.600946210E0,9.804739952E0,5.011467934E-1,-3.646063507E-1
1.625946210E0,9.708877563E0,4.341477454E-1,-4.148556292E-1
1.650946210E0,9.632308006E0,4.305585325E-1,-2.842972279E-1
1.675946210E0,9.833454132E0,6.017948985E-1,-4.292125702E-1
1.700946210E0,9.577272415E0,5.298606753E-1,-3.285644650E-1
1.725946210E0,9.670592308E0,5.491527915E-1,-2.519941330E-1
1.750946210E0,9.849007607E0,7.537391186E-1,-3.154039383E-1
1.775946210E0,9.713663101E0,7.513462901E-1,-3.658027649E-1
1.800946210E0,9.731609344E0,7.621139884E-1,-2.831008434E-1
1.825946210E0,9.893274307E0,5.778666735E-1,-2.627618313E-1
1.850946210E0,9.882507324E0,6.185446382E-1,-2.687439024E-1
1.875946210E0,9.609575272E0,7.214360237E-1,-2.914757133E-1
1.900946210E0,9.543772697E0,6.963114142E-1,-3.729812205E-1
1.925946210E0,9.787840843E0,8.831011057E-1,-2.914757133E-1
1.950946210E0,9.865756989E0,8.555836678E-1,-3.261716366E-1
1.975946210E0,9.653842926E0,8.184949160E-1,-3.370888829E-1
2.000946210E0,9.683753014E0,6.305087805E-1,-3.741776347E-1
2.025946210E0,9.676574707E0,6.532405615E-1,-2.771187723E-1
2.050946210E0,9.744770050E0,7.298108935E-1,-2.998505831E-1
2.075946210E0,9.731609344E0,6.699903607E-1,-2.472084910E-1
2.100946210E0,9.796365738E0,5.647061467E-1,-2.651546597E-1
2.125946210E0,9.859775543E0,8.507980108E-1,-3.442673683E-1
2.150946210E0,9.761520386E0,7.704889178E-1,-2.998505831E-1
2.175946210E0,9.652647018E0,8.567800522E-1,-2.029412687E-1
2.200946210E0,9.893274307E0,7.489534616E-1,-1.491027623E-1
2.225946210E0,9.902846336E0,7.070791125E-1,-3.418745399E-1
2.250946210E0,9.420392990E0,5.802595019E-1,-2.208874375E-1
2.275946210E0,9.805936813E0,4.365405738E-1,-4.375874400E-1
2.300946210E0,9.860971451E0,3.982554078E-1,-4.375874400E-1
2.325946210E0,9.492177963E0,1.971087605E-1,-3.825525343E-1
2.350946210E0,9.790233612E0,1.277169138E-1,-4.040879309E-1
2.375946210E0,9.822686195E0,3.719343841E-1,-3.801597059E-1
2.400946210E0,9.674181938E0,7.369893789E-1,-2.998505831E-1
2.425946210E0,9.662218094E0,7.082754970E-1,-3.717848063E-1
2.450946210E0,9.735198975E0,8.149056435E-1,-4.698905349E-1
2.475946210E0,9.732806206E0,8.352446556E-1,-4.172484577E-1
2.500946210E0,9.856185913E0,7.381857634E-1,-4.902295470E-1
2.525946210E0,9.757930756E0,7.932206988E-1,-3.921238184E-1
2.550946210E0,9.516255379E0,6.233302951E-1,-3.526422381E-1
2.575946210E0,9.692128181E0,5.419743061E-1,-4.220340848E-1
2.600946210E0,9.906435013E0,5.647061467E-1,-4.866403043E-1
2.625946210E0,9.878917694E0,8.172984719E-1,-4.244269133E-1
2.650946210E0,9.705288887E0,9.106185436E-1,-3.502494097E-1
2.675946210E0,9.465856552E0,8.759226203E-1,-2.507977188E-1
2.700946210E0,9.527023315E0,5.455635786E-1,-4.411766827E-1
2.725946210E0,9.945917130E0,7.178468108E-1,-5.249254704E-1
2.750946210E0,9.783055305E0,9.177970290E-1,-5.620142221E-1
2.775946210E0,9.781859398E0,7.202396393E-1,-5.333003402E-1
2.800946210E0,9.699306488E0,4.437190592E-1,-2.998505831E-1
2.825946210E0,9.712467194E0,5.395814776E-1,-1.682453454E-1
2.850946210E0,9.744770050E0,5.790630579E-1,-2.519941330E-1
2.875946210E0,9.711270332E0,6.771687865E-1,-3.285644650E-1
2.900946210E0,9.646664619E0,6.149554253E-1,-5.416752100E-1
2.925946210E0,9.829864502E0,5.934200287E-1,-3.981058598E-1
2.950946210E0,9.720842361E0,7.130611539E-1,-5.261218548E-1
2.975946210E0,9.597611427E0,7.238288522E-1,-6.195915341E-1
3.000946210E0,9.531808853E0,8.220841289E-1,-4.567300081E-1
3.025946210E0,9.853793144E0,8.316554427E-1,-6.459125876E-1
3.050946210E0,9.803544044E0,6.855437160E-1,-3.813561201E-1
3.075946210E0,9.676574707E0,5.455635786E-1,-2.352443784E-1
3.100946210E0,9.578469276E0,6.807580590E-1,-2.615654171E-1
3.125946210E0,9.796365738E0,6.999006271E-1,-3.610171080E-1
3.150946210E0,9.807132721E0,6.472585201E-1,-5.404788256E-1
3.175946210E0,9.547362328E0,4.449154735E-1,-6.050850153E-1
3.200946210E0,9.530612946E0,1.408774406E-1,-4.555336237E-1
3.225946210E0,9.959077835E0,7.507480681E-2,-6.183950901E-1
3.250946210E0,9.790233612E0,5.238786340E-1,-4.483551383E-1
3.275946210E0,9.579665184E0,8.063812256E-1,-4.686941206E-1
3.300946210E0,9.583254814E0,9.046365023E-1,-5.309075117E-1
3.325946210E0,9.846614838E0,5.587241054E-1,-5.644070506E-1
3.350946210E0,9.730413437E0,4.449154735E-1,-5.057829022E-1
3.375946210E0,9.696913719E0,5.838487148E-1,-4.794618487E-1
3.400946210E0,9.851400375E0,6.580262184E-1,-5.739783049E-1
3.425946210E0,9.780662537E0,5.623133183E-1,-3.046362400E-1
3.450946210E0,9.692128181E0,4.999503791E-1,-3.586242795E-1
3.475946210E0,9.671789169E0,6.197410822E-1,-4.124628007E-1
3.500946210E0,9.616754532E0,7.836494446E-1,-5.452644825E-1
3.525946210E0,9.664610863E0,8.795118928E-1,-4.280161560E-1
3.550946210E0,9.646664619E0,7.657032609E-1,-2.316551358E-1
3.575946210E0,9.682557106E0,7.836494446E-1,-3.070290685E-1
3.600946210E0,9.896863937E0,5.238786340E-1,-2.950649559E-1
3.625946210E0,9.941131592E0,5.862415433E-1,-1.215853021E-1
3.650946210E0,9.798758507E0,6.520441771E-1,-3.885345757E-1
3.675946210E0,9.719645500E0,6.005984545E-1,-2.699403167E-1
3.700946210E0,9.668199539E0,5.551348329E-1,-5.703890920E-1
3.725946210E0,9.711270332E0,4.999503791E-1,-6.339484453E-1
3.750946210E0,9.698110580E0,3.539882004E-1,-5.835496187E-1
3.775946210E0,9.762716293E0,5.214858055E-1,-6.086742878E-1
3.800946210E0,9.771091461E0,4.879862666E-1,-6.098706722E-1
3.825946210E0,9.804739952E0,5.599204898E-1,-5.404788256E-1
3.850946210E0,9.728020668E0,7.118647099E-1,-5.560321808E-1
3.875946210E0,9.584450722E0,8.099704385E-1,-7.212864757E-1
3.900946210E0,9.683753014E0,9.022436738E-1,-7.308577895E-1
3.925946210E0,9.661021233E0,6.616154313E-1,-5.201398134E-1
3.950946210E0,9.686145782E0,6.771687865E-1,-6.050850153E-1
3.975946210E0,9.637093544E0,6.999006271E-1,-3.753740489E-1
4.000946210E0,9.744770050E0,8.962616324E-1,-4.495515525E-1
4.025946210E0,9.775876999E0,9.118149877E-1,-4.160520434E-1
4.050946210E0,9.661021233E0,8.603692651E-1,-3.261716366E-1
4.075946210E0,9.736394882E0,1.095015407E0,-3.849453330E-1
4.100946210E0,9.760323524E0,1.191924810E0,-4.064807594E-1
4.125946210E0,9.677771568E0,1.179960608E0,-3.406781256E-1
4.150946210E0,9.678967476E0,1.104586720E0,-4.256233275E-1
4.175946210E0,9.668199539E0,9.548857808E-1,-4.938187599E-1
4.200946210E0,9.665806770E0,8.735297918E-1,-4.674977362E-1
4.225946210E0,9.814311981E0,6.807580590E-1,-5.237290859E-1
4.250946210E0,9.881310463E0,7.501499057E-1,-3.394817114E-1
4.275946210E0,9.706484795E0,6.364908218E-1,-2.280659080E-1
4.300946210E0,9.600004196E0,6.544370055E-1,-4.435695112E-1
4.325946210E0,9.614361763E0,8.280661702E-1,-5.189434290E-1
4.350946210E0,9.801151276E0,6.592226624E-1,-5.596213937E-1
4.375946210E0,9.704092026E0,5.371887088E-1,-3.969094455E-1
4.400946210E0,9.763913155E0,7.034898400E-1,-3.634099364E-1
4.425946210E0,9.718449593E0,1.042223811E0,-4.483551383E-1
4.450946210E0,9.590433121E0,1.026670456E0,-4.220340848E-1
4.475946210E0,9.619147301E0,9.345467687E-1,-3.681955934E-1
4.500946210E0,9.843025208E0,9.824032187E-1,-2.747259438E-1
4.525946210E0,9.967452049E0,1.039831042E0,-3.321537077E-1
4.550946210E0,9.621540070E0,9.668499231E-1,-3.094218671E-1
4.575946210E0,9.625128746E0,7.968099117E-1,-3.813561201E-1
4.600946210E0,9.684949875E0,5.958128572E-1,-5.201398134E-1
4.625946210E0,9.750752449E0,4.891826808E-1,-5.021936297E-1
4.650946210E0,9.813115120E0,5.838487148E-1,-5.775675774E-1
4.675946210E0,9.722038269E0,6.687939167E-1,-4.842474759E-1
4.700946210E0,9.744770050E0,6.317051649E-1,-3.297608793E-1
4.725946210E0,9.753145218E0,8.699405789E-1,-4.160520434E-1
4.750946210E0,9.659825325E0,8.448159695E-1,-4.758726060E-1
4.775946210E0,9.681360245E0,8.663513660E-1,-4.447658956E-1
4.800946210E0,9.645467758E0,9.465109110E-1,-3.562314808E-1
4.825946210E0,9.589237213E0,7.680960894E-1,-4.938187599E-1
4.850946210E0,9.531808853E0,9.824032187E-1,-4.316053987E-1
4.875946210E0,9.914810181E0,1.252941728E0,-5.261218548E-1
4.900946210E0,9.720842361E0,1.430160165E0,-6.530910134E-1
4.925946210E0,9.527023315E0,1.493569970E0,-5.656034350E-1
4.950946210E0,9.550951958E0,1.411017656E0,-6.231807470E-1
4.975946210E0,9.757930756E0,1.470838189E0,-6.435197592E-1
5.000946210E0,9.743574142E0,1.399053454E0,-6.578766704E-1
5.025946210E0,9.649057388E0,1.500748396E0,-6.506981850E-1
5.050946210E0,9.481410027E0,1.729412556E0,-5.883352757E-1
5.075946210E0,9.704092026E0,1.463659644E0,-6.686443686E-1
5.100946210E0,9.769894600E0,1.299601793E0,-5.823532343E-1
5.125946210E0,9.421589851E0,1.543819308E0,-6.399304867E-1
5.150946210E0,9.463463783E0,8.998508453E-1,-8.205885887E-1
5.175946210E0,1.016740227E1,3.815056682E-1,-3.813561201E-1
5.200946210E0,1.001530838E1,3.145066202E-1,-1.383350641E-1
5.225946210E0,9.756733894E0,3.180958629E-1,1.794616925E-3
5.250946210E0,9.714859962E0,3.492025435E-1,-1.060319543E-1
5.275946210E0,9.507731438E0,5.706881881E-1,-2.424228489E-1
5.300946210E0,9.371340752E0,9.249755144E-1,-3.957130313E-1
5.325946210E0,9.622735977E0,1.339083314E0,-4.806582630E-1
5.350946210E0,9.801151276E0,1.839482427E0,-6.447161436E-1
5.375946210E0,9.462267876E0,1.886142492E0,-5.691927075E-1
5.400946210E0,9.486195564E0,1.930409670E0,-4.878367186E-1
5.425946210E0,9.602396965E0,2.002343893E0,-4.806582630E-1
5.450946210E0,9.723235130E0,1.742573142E0,-5.644070506E-1
5.475946210E0,9.762716293E0,1.606032610E0,-4.914259613E-1
5.500946210E0,9.566504478E0,1.466052532E0,-4.507479668E-1
5.525946210E0,9.479017258E0,1.692323804E0,-5.727819204E-1
5.550946210E0,9.502945900E0,1.832303882E0,-6.363412738E-1
5.575946210E0,9.617950439E0,1.800000787E0,-6.985546350E-1
5.600946210E0,9.534201622E0,1.541426420E0,-6.219843626E-1
5.625946210E0,9.634700775E0,1.290030479E0,-4.962115884E-1
5.650946210E0,9.757930756E0,1.095015407E0,-5.584250093E-1
5.675946210E0,9.710074425E0,1.129711390E0,-5.225326419E-1
5.700946210E0,9.632308006E0,1.284048438E0,-5.464608669E-1
5.725946210E0,9.633503914E0,1.311565876E0,-5.416752100E-1
5.750946210E0,9.627521515E0,1.304387450E0,-4.579264224E-1
5.775946210E0,9.615557671E0,1.574925900E0,-3.933202326E-1
5.800946210E0,9.622735977E0,1.938934088E0,-3.382852972E-1
5.825946210E0,9.617950439E0,2.141127586E0,-4.100699723E-1
5.850946210E0,9.597611427E0,1.913659930E0,-4.088735580E-1
5.875946210E0,9.517452240E0,1.693520188E0,-4.040879309E-1
5.900946210E0,9.681360245E0,1.500748396E0,-4.950151742E-1
5.925946210E0,9.682557106E0,1.375125289E0,-5.117649436E-1
5.950946210E0,9.668199539E0,1.191924810E0,-5.285146832E-1
5.975946210E0,9.625128746E0,1.009920716E0,-5.237290859E-1
6.000946210E0,9.668199539E0,1.129711390E0,-4.938187599E-1
6.025946210E0,9.623932838E0,1.284048438E0,-5.464608669E-1
6.050946210E0,9.738788605E0,1.270887971E0,-4.280161560E-1
6.075946210E0,9.711270332E0,1.268495083E0,-4.292125702E-1
6.100946210E0,9.641879082E0,1.158425212E0,-4.160520434E-1
6.125946210E0,9.573683739E0,1.256531000E0,-5.500500798E-1
6.150946210E0,9.603593826E0,1.516301751E0,-5.979065299E-1
6.175946210E0,9.610772133E0,1.543819308E0,-6.447161436E-1
6.200946210E0,9.641879082E0,1.554587007E0,-5.333003402E-1
6.225946210E0,9.604789734E0,1.438535094E0,-4.351946115E-1
6.250946210E0,9.657432556E0,1.446909904E0,-4.962115884E-1
6.275946210E0,9.646664619E0,1.494766355E0,-5.201398134E-1
6.300946210E0,9.616754532E0,1.598854184E0,-5.620142221E-1
6.325946210E0,9.561718941E0,1.536640763E0,-6.050850153E-1
6.350946210E0,9.640682220E0,1.418196082E0,-4.722833633E-1
6.375946210E0,9.693324089E0,1.492373586E0,-3.681955934E-1
6.400946210E0,9.647860527E0,1.399053454E0,-4.028915167E-1
6.425946210E0,9.682557106E0,1.384696603E0,-4.004986882E-1
6.450946210E0,9.622735977E0,1.507926941E0,-4.926223755E-1
6.475946210E0,9.625128746E0,1.424178123E0,-4.423730969E-1
6.500946210E0,9.720842361E0,1.388285756E0,-4.627120793E-1
6.525946210E0,9.589237213E0,1.365404367E0,-4.471587241E-1
6.550946210E0,9.592825890E0,1.402642727E0,-4.100699723E-1
6.575946210E0,9.613164902E0,1.501944900E0,-5.117649436E-1
6.600946210E0,9.626325607E0,1.638335705E0,-5.285146832E-1
6.625946210E0,9.562915802E0,1.639532208E0,-5.153541565E-1
6.650946210E0,9.591629982E0,1.552194118E0,-4.292125702E-1
6.675946210E0,9.732806206E0,1.352243900E0,-4.052843451E-1
6.700946210E0,9.659825325E0,1.291226864E0,-3.789632916E-1
6.725946210E0,9.656235695E0,1.281655669E0,-4.435695112E-1
6.750946210E0,9.651450157E0,1.209870934E0,-4.854438901E-1
6.775946210E0,9.665806770E0,1.220638633E0,-4.112663865E-1
6.800946210E0,9.662218094E0,1.363011599E0,-4.579264224E-1
6.825946210E0,9.615557671E0,1.354636669E0,-4.674977362E-1
6.850946210E0,9.617950439E0,1.251745343E0,-5.321039557E-1
6.875946210E0,9.590433121E0,1.171585798E0,-4.387838542E-1
6.900946210E0,9.579665184E0,1.182353497E0,-5.285146832E-1
6.925946210E0,9.622735977E0,1.202692509E0,-5.979065299E-1
6.950946210E0,9.689735413E0,1.151246786E0,-6.074778438E-1
6.975946210E0,9.656235695E0,1.117747307E0,-5.703890920E-1
7.000946210E0,9.586843491E0,1.206281662E0,-4.076771438E-1
7.025946210E0,9.717252731E0,1.340279818E0,-4.818546474E-1
7.050946210E0,9.675378799E0,1.331904888E0,-5.033900738E-1
7.075946210E0,9.645467758E0,1.418196082E0,-5.727819204E-1
7.100946210E0,9.686145782E0,1.444517136E0,-6.134598851E-1
7.125946210E0,9.614361763E0,1.376321673E0,-5.333003402E-1
7.150946210E0,9.680164337E0,1.285244823E0,-5.297111273E-1
7.175946210E0,9.634700775E0,1.378714442E0,-5.512465239E-1
7.200946210E0,9.628718376E0,1.355833173E0,-6.026921868E-1
7.225946210E0,9.665806770E0,1.288834095E0,-5.297111273E-1
7.250946210E0,9.626325607E0,1.249352574E0,-5.033900738E-1
7.275946210E0,9.641879082E0,1.303191066E0,-5.177469850E-1
7.300946210E0,9.669396400E0,1.194317579E0,-5.488536954E-1
7.325946210E0,9.749555588E0,1.093819022E0,-5.153541565E-1
7.350946210E0,9.590433121E0,1.299601793E0,-5.189434290E-1
7.375946210E0,9.614361763E0,1.460070491E0,-5.297111273E-1
7.400946210E0,9.626325607E0,1.382303715E0,-6.171987057E-1
7.425946210E0,9.662218094E0,1.070937634E0,-5.392823815E-1
7.450946210E0,9.605986595E0,1.190728426E0,-4.950151742E-1
7.475946210E0,9.702896118E0,1.278066397E0,-6.279664040E-1
7.500946210E0,9.678967476E0,1.275673628E0,-5.739783049E-1
7.525946210E0,9.621540070E0,1.258923769E0,-5.213362575E-1
7.550946210E0,9.650253296E0,1.317547917E0,-5.979065299E-1
7.575946210E0,9.668199539E0,1.348654628E0,-5.787639618E-1
7.600946210E0,9.667003632E0,1.285244823E0,-5.835496187E-1
7.625946210E0,9.596415520E0,1.306780219E0,-5.679962635E-1
7.650946210E0,9.657432556E0,1.327119231E0,-4.854438901E-1
7.675946210E0,9.664610863E0,1.264905930E0,-5.895316601E-1
7.700946210E0,9.617950439E0,1.310369492E0,-5.225326419E-1
7.725946210E0,9.644271851E0,1.313958764E0,-6.207879186E-1
7.750946210E0,9.664610863E0,1.258923769E0,-5.703890920E-1
7.775946210E0,9.634700775E0,1.280459166E0,-5.667998791E-1
7.800946210E0,9.614361763E0,1.330708504E0,-5.632106066E-1
7.825946210E0,9.645467758E0,1.406231999E0,-5.536393523E-1
7.850946210E0,9.694520950E0,1.360618830E0,-5.919244885E-1
7.875946210E0,9.668199539E0,1.339083314E0,-5.285146832E-1
7.900946210E0,9.646664619E0,1.345065475E0,-5.309075117E-1
7.925946210E0,9.633503914E0,1.390678644E0,-6.026921868E-1
7.950946210E0,9.647860527E0,1.238584876E0,-6.062814593E-1
7.975946210E0,9.663414001E0,1.223031521E0,-6.146563292E-1
8.000946210E0,9.595218658E0,1.348654628E0,-5.213362575E-1
8.025946210E0,9.681360245E0,1.334297776E0,-5.679962635E-1
8.050946210E0,9.649057388E0,1.309173107E0,-5.261218548E-1
8.075946210E0,9.631111145E0,1.485195160E0,-5.440680385E-1
8.100946210E0,9.656235695E0,1.555783391E0,-6.243771315E-1
8.125946210E0,9.623932838E0,1.437338710E0,-6.566802859E-1
8.150946210E0,9.637093544E0,1.254138112E0,-5.476573110E-1
8.175946210E0,9.694520950E0,1.056580782E0,-4.591228366E-1
8.200946210E0,9.717252731E0,8.111668825E-1,-4.387838542E-1
8.225946210E0,9.723235130E0,7.453642488E-1,-4.112663865E-1
8.250946210E0,9.690931320E0,8.926724195E-1,-5.536393523E-1
8.275946210E0,9.742377281E0,1.092473030E0,-6.471089721E-1
8.300946210E0,9.614361763E0,1.139282703E0,-7.153044343E-1
8.325946210E0,9.598808289E0,1.214656591E0,-6.961618662E-1
8.350946210E0,9.627521515E0,1.325922847E0,-6.447161436E-1
8.375946210E0,9.662218094E0,1.503141284E0,-6.698408127E-1
8.400946210E0,9.585647583E0,1.524676681E0,-6.925725937E-1
8.425946210E0,9.622735977E0,1.425374508E0,-6.901797652E-1
8.450946210E0,9.650253296E0,1.487587929E0,-6.901797652E-1
8.475946210E0,9.609575272E0,1.472034574E0,-7.045367360E-1
8.500946210E0,9.600004196E0,1.331904888E0,-6.830013394E-1
8.525946210E0,9.638289452E0,1.382303715E0,-7.129116058E-1
8.550946210E0,9.597611427E0,1.433749437E0,-7.248756886E-1
8.575946210E0,9.625128746E0,1.434945822E0,-7.045367360E-1
8.600946210E0,9.586843491E0,1.370190024E0,-6.985546350E-1
8.625946210E0,9.702896118E0,1.264905930E0,-6.734300256E-1
8.650946210E0,9.573683739E0,1.234995604E0,-6.830013394E-1
8.675946210E0,9.665806770E0,1.445713520E0,-7.308577895E-1
8.700946210E0,9.621540070E0,1.506730556E0,-7.260721326E-1
8.725946210E0,9.553344727E0,1.499552011E0,-7.117151618E-1
8.750946210E0,9.584450722E0,1.420588851E0,-6.411269307E-1
8.775946210E0,9.651450157E0,1.329512119E0,-6.243771315E-1
8.800946210E0,9.742377281E0,1.327119231E0,-6.062814593E-1
8.825946210E0,9.742377281E0,1.327119231E0,-6.062814593E-1
8.850946210E0,9.572486877E0,1.304387450E0,-6.435197592E-1
8.875946210E0,9.677771568E0,1.051795125E0,-5.991029739E-1
8.900946210E0,9.667003632E0,1.221835017E0,-6.279664040E-1
8.925946210E0,9.616754532E0,1.306780219E0,-6.291627884E-1
8.950946210E0,9.577272415E0,1.236191988E0,-7.188936472E-1
8.975946210E0,9.755537987E0,1.182353497E0,-6.925725937E-1
9.000946210E0,9.528220177E0,1.230209947E0,-6.327520609E-1
9.025946210E0,9.711270332E0,1.373779297E0,-6.686443686E-1
9.050946210E0,9.652647018E0,1.311565876E0,-7.846962810E-1
9.075946210E0,9.696913719E0,1.267298698E0,-7.511967421E-1
9.100946210E0,9.626325607E0,1.251745343E0,-6.937690377E-1
9.125946210E0,9.621540070E0,1.389482141E0,-6.315556169E-1
9.150946210E0,9.570094109E0,1.407428384E0,-5.919244885E-1
9.175946210E0,9.689735413E0,1.170389414E0,-5.572285652E-1
9.200946210E0,9.723235130E0,1.231406331E0,-5.452644825E-1
9.225946210E0,9.735198975E0,1.322333574E0,-5.500500798E-1
9.250946210E0,9.633503914E0,1.353440285E0,-5.440680385E-1
9.275946210E0,9.615557671E0,1.309173107E0,-5.560321808E-1
9.300946210E0,9.695717812E0,1.275673628E0,-5.739783049E-1
9.325946210E0,9.617950439E0,1.291226864E0,-6.375376582E-1
9.350946210E0,9.667003632E0,1.331904888E0,-6.267699599E-1
9.375946210E0,9.647860527E0,1.287637711E0,-6.098706722E-1
9.400946210E0,9.603593826E0,1.240977645E0,-5.763711333E-1
9.425946210E0,9.694520950E0,1.329512119E0,-6.243771315E-1
9.450946210E0,9.713663101E0,1.317547917E0,-6.255735755E-1
9.475946210E0,9.643074989E0,1.167996526E0,-5.919244885E-1
9.500946210E0,9.623932838E0,1.134497046E0,-5.512465239E-1
9.525946210E0,9.651450157E0,1.111765265E0,-5.524429083E-1
9.550946210E0,9.610772133E0,1.203888893E0,-6.327520609E-1
9.575946210E0,9.676574707E0,1.297209024E0,-6.255735755E-1
9.600946210E0,9.680164337E0,1.329512119E0,-5.835496187E-1
9.625946210E0,9.579665184E0,1.358225942E0,-5.153541565E-1
9.650946210E0,9.615557671E0,1.387089372E0,-5.847460628E-1
9.675946210E0,9.672985077E0,1.347458243E0,-6.231807470E-1
9.700946210E0,9.669396400E0,1.353440285E0,-6.399304867E-1
9.725946210E0,9.641879082E0,1.282852054E0,-5.835496187E-1
9.750946210E0,9.566504478E0,1.347458243E0,-5.560321808E-1
9.775946210E0,9.705288887E0,1.301994562E0,-5.596213937E-1
9.800946210E0,9.761520386E0,1.188335538E0,-4.818546474E-1
9.825946210E0,9.625128746E0,1.196710467E0,-5.165506005E-1
9.850946210E0,9.676574707E0,1.319940805E0,-6.518946290E-1
9.875946210E0,9.602396965E0,1.341476202E0,-6.865905523E-1
9.900946210E0,9.700503349E0,1.354636669E0,-6.279664040E-1
9.925946210E0,9.652647018E0,1.390678644E0,-5.847460628E-1
9.950946210E0,9.616754532E0,1.427767396E0,-6.698408127E-1
9.975946210E0,9.566504478E0,1.535444379E0,-6.602694988E-1
1.000094621E1,9.596415520E0,1.479212999E0,-6.698408127E-1
1.002594621E1,9.693324089E0,1.366600871E0,-6.146563292E-1
1.005094621E1,9.632308006E0,1.418196082E0,-5.464608669E-1
1.007594621E1,9.594022751E0,1.506730556E0,-5.955137610E-1
1.010094621E1,9.657432556E0,1.584497213E0,-6.686443686E-1
1.012594621E1,9.734002113E0,1.558176160E0,-5.548357368E-1
1.015094621E1,9.653842926E0,1.313958764E0,-5.249254704E-1
1.017594621E1,9.549755096E0,1.406231999E0,-4.136592150E-1
1.020094621E1,9.531808853E0,1.582104445E0,-6.267699599E-1
1.022594621E1,9.656235695E0,1.814357758E0,-7.440183163E-1
1.025094621E1,9.538987160E0,1.779661894E0,-6.722336411E-1
1.027594621E1,9.433553696E0,1.418196082E0,-6.146563292E-1
1.030094621E1,9.741181374E0,1.188335538E0,-4.974080026E-1
1.032594621E1,9.728020668E0,1.452891946E0,-5.488536954E-1
1.035094621E1,9.585647583E0,1.390678644E0,-6.435197592E-1
1.037594621E1,9.498160362E0,1.418196082E0,-6.590731144E-1
1.040094621E1,9.769894600E0,1.467248917E0,-6.423233151E-1
1.042594621E1,9.701699257E0,1.567747474E0,-4.639084935E-1
1.045094621E1,9.506534576E0,1.631157279E0,-5.715855360E-1
1.047594621E1,9.464660645E0,1.877767563E0,-7.464110851E-1
1.050094621E1,9.705288887E0,2.077717781E0,-8.588737845E-1
1.052594621E1,9.519845009E0,2.034646988E0,-8.026424646E-1
1.055094621E1,9.435946465E0,1.766501307E0,-6.291627884E-1
1.057594621E1,9.544969559E0,1.585693598E0,-5.536393523E-1
1.060094621E1,9.598808289E0,1.718644857E0,-7.069295645E-1
1.062594621E1,9.591629982E0,1.743769526E0,-7.715357542E-1
1.065094621E1,9.578469276E0,1.868196249E0,-7.571788430E-1
1.067594621E1,9.622735977E0,1.924427629E0,-5.703890920E-1
1.070094621E1,9.505338669E0,1.734198213E0,-4.447658956E-1
1.072594621E1,9.578469276E0,1.542622805E0,-4.818546474E-1
1.075094621E1,9.700503349E0,1.764108539E0,-5.775675774E-1
1.077594621E1,9.728020668E0,1.717448473E0,-7.559823990E-1
1.080094621E1,9.546165466E0,1.718644857E0,-7.452147007E-1
1.082594621E1,9.401250839E0,1.735394597E0,-7.763214111E-1
1.085094621E1,9.438339233E0,1.835893154E0,-8.935697079E-1
1.087594621E1,9.810722351E0,1.545015693E0,-8.947660923E-1
1.090094621E1,9.610772133E0,1.370190024E0,-7.464110851E-1
1.092594621E1,9.508927345E0,1.166800141E0,-8.899804950E-1
1.095094621E1,9.712467194E0,1.328315616E0,-7.858926654E-1
1.097594621E1,9.570094109E0,1.427767396E0,-7.105187774E-1
1.100094621E1,9.814311981E0,1.583300829E0,-4.806582630E-1
1.102594621E1,9.367751122E0,1.438535094E0,-6.901797652E-1
1.105094621E1,9.305538177E0,2.342274189E0,-7.655537128E-1
1.107594621E1,9.650253296E0,2.784049034E0,-1.131805062E0
1.110094621E1,9.475428581E0,2.337488651E0,-9.355936646E-1
1.112594621E1,9.431160927E0,1.736590981E0,-3.921238184E-1
1.115094621E1,9.549755096E0,1.234995604E0,-6.698408127E-1
1.117594621E1,9.455089569E0,1.273280740E0,-1.136590719E0
1.120094621E1,9.728020668E0,1.413410425E0,-1.088734269E0
1.122594621E1,9.601201057E0,1.944916129E0,-1.004985452E0
1.125094621E1,9.105587006E0,1.955683827E0,-7.476075292E-1
1.127594621E1,9.496963501E0,1.905285001E0,-7.129116058E-1
1.130094621E1,9.722038269E0,1.811964989E0,-8.636594415E-1
1.132594621E1,9.377322197E0,1.348654628E0,-9.499505758E-1
1.135094621E1,9.374929428E0,1.434945822E0,-9.738788009E-1
1.137594621E1,9.415607452E0,2.031057835E0,-1.089930773E0
1.140094621E1,9.490981102E0,2.323131800E0,-1.039681435E0
1.142594621E1,9.720842361E0,2.851048231E0,-1.068395257E0
1.145094621E1,9.659825325E0,2.216650963E0,-1.158126116E0
1.147594621E1,9.224032402E0,1.735394597E0,-1.178614736E0
1.150094621E1,9.493373871E0,1.381107330E0,-1.573580027E0
1.152594621E1,9.881310463E0,1.607229114E0,-1.628614902E0
1.155094621E1,9.511320114E0,2.286042929E0,-1.592722535E0
1.157594621E1,9.459875107E0,2.569741964E0,-1.775923014E0
1.160094621E1,9.274431229E0,2.222633123E0,-1.538884044E0
1.162594621E1,8.972785950E0,2.007129431E0,-1.907528281E0
1.165094621E1,9.240931511E0,1.743769526E0,-2.509622335E0
1.167594621E1,9.092427254E0,1.864607096E0,-2.606681108E0
1.170094621E1,8.946314812E0,2.370988131E0,-2.745464802E0
1.172594621E1,9.043374062E0,2.402094841E0,-2.404338121E0
1.175094621E1,9.025427818E0,2.153091669E0,-1.933849335E0
1.177594621E1,8.785996437E0,2.725275517E0,-1.780708671E0
1.180094621E1,8.976374626E0,3.273530960E0,-2.216351986E0
1.182594621E1,9.072088242E0,3.947559118E0,-2.962164879E0
1.185094621E1,1.020449162E1,1.223031521E0,-1.532902002E0
1.187594621E1,9.718449593E0,9.094221592E-1,-1.686042666E0
1.190094621E1,9.030213356E0,2.251347065E0,-2.379213572E0
1.192594621E1,9.062516212E0,1.943719745E0,-2.270190477E0
1.195094621E1,9.637093544E0,2.212912321E0,-2.581556559E0
1.197594621E1,9.902846336E0,1.802393675E0,-2.056032896E0
1.200094621E1,9.349804878E0,1.995165467E0,-2.543121815E0
1.202594621E1,9.649057388E0,2.521885633E0,-2.945415020E0
1.205094621E1,9.310323715E0,1.902892232E0,-2.721536636E0
1.207594621E1,9.348608971E0,1.601246953E0,-2.454587460E0
1.210094621E1,8.915208817E0,2.029861450E0,-2.428266287E0
1.212594621E1,8.557332039E0,2.087289095E0,-2.577817678E0
1.215094621E1,9.268448830E0,2.473879576E0,-2.460569382E0
1.217594621E1,9.983005524E0,2.578116894E0,-2.231905222E0
1.220094621E1,8.876923561E0,2.123181343E0,-2.063211441E0
1.222594621E1,8.972785950E0,1.901695848E0,-2.072782516E0
1.225094621E1,9.312716484E0,2.675026178E0,-2.222334146E0
1.227594621E1,9.380911827E0,3.028116941E0,-2.222334146E0
1.230094621E1,8.648259163E0,3.237638474E0,-2.427069902E0
1.232594621E1,9.257680893E0,1.819143414E0,-2.302643061E0
1.235094621E1,9.809526443E0,1.200299621E0,-2.175673962E0
1.237594621E1,9.343822479E0,4.341477454E-1,-2.158924341E0
1.240094621E1,9.449107170E0,2.630609274E-1,-1.897956967E0
1.242594621E1,9.266056061E0,8.424231410E-1,-2.017598152E0
1.245094621E1,8.496315002E0,1.087687492E0,-1.192971587E0
1.247594621E1,7.939684868E0,3.259174109E0,-4.007977992E-2
1.250094621E1,8.617152214E0,6.596563339E0,-8.928219229E-2
1.252594621E1,9.463463783E0,7.045516491E0,-7.799106240E-1
1.255094621E1,9.050552368E0,3.512962818E0,-9.559326172E-1
1.257594621E1,9.418000221E0,-7.808079123E-1,-2.268694937E-1
1.260094621E1,9.511320114E0,-9.532406926E-1,-3.189931810E-1
1.262594621E1,9.224032402E0,1.704287887E0,-2.454587460E0
1.265094621E1,9.641879082E0,3.139532804E0,-2.516800880E0
1.267594621E1,1.021047306E1,5.755037785E0,-2.282154560E0
1.270094621E1,9.771091461E0,1.617996812E0,-5.500500798E-1
1.272594621E1,1.090469074E1,-2.449502707E0,3.409772366E-2
1.275094621E1,1.146251774E1,-1.109970570E0,1.034895778E-1
1.277594621E1,1.074796104E1,5.623133183E-1,3.596711457E-1
1.280094621E1,1.058151054E1,1.444517136E0,4.757230580E-1
1.282594621E1,1.047144032E1,2.742025137E0,-1.670489311E-1
1.285094621E1,9.877721786E0,2.806781054E0,-1.095912814E0
1.287594621E1,9.743574142E0,1.363011599E0,-1.152144074E0
1.290094621E1,1.043315506E1,6.197410822E-1,-3.142075241E-1
1.292594621E1,9.498160362E0,2.596062899E0,-7.081259489E-1
1.295094621E1,9.242128372E0,1.306780219E0,-1.635793328E0
1.297594621E1,1.047263718E1,1.156032443E0,-8.528917432E-1
1.300094621E1,8.919994354E0,5.346911907E0,-4.998008311E-1
1.302594621E1,8.198259354E0,4.210919380E0,-2.126621008E0
1.305094621E1,9.598808289E0,3.019742250E0,-1.410718441E0
1.307594621E1,8.127670288E0,6.789335251E0,-1.038485050E0
1.310094621E1,8.114510536E0,7.567451000E0,-2.006830454E0
1.312594621E1,9.121140480E0,2.670240402E0,-3.153740168E0
1.315094621E1,1.409013653E1,-5.430212021E0,1.525424421E-1
1.317594621E1,1.253270817E1,-7.322635651E0,1.864308000E0
1.320094621E1,7.854739666E0,1.195513964E0,-2.237887383E0
1.322594621E1,7.585397243E0,2.378166676E0,-3.554687500E0
1.325094621E1,9.529416084E0,1.003938675E0,-3.049502850E0
1.327594621E1,9.783055305E0,6.071787328E-2,-1.913510323E0
1.330094621E1,9.085248947E0,8.328518271E-1,-1.306630731E0
1.332594621E1,9.431160927E0,-4.755735099E-1,-2.044068813E0
1.335094621E1,9.705288887E0,-9.041878581E-1,-2.471337080E0
1.337594621E1,9.492177963E0,7.968099117E-1,-2.638984203E0
1.340094621E1,9.471838951E0,1.348654628E0,-3.146561861E0
1.342594621E1,9.425178528E0,1.150050402E0,-3.345165968E0
1.345094621E1,9.814311981E0,6.987041831E-1,-3.142972469E0
1.347594621E1,9.584450722E0,1.139282703E0,-2.623430967E0
1.350094621E1,9.043374062E0,1.996361852E0,-2.702394009E0
1.352594621E1,9.546165466E0,1.422981739E0,-2.333749771E0
1.355094621E1,9.321090698E0,1.737787485E0,-2.468944311E0
1.357594621E1,8.933155060E0,2.229811668E0,-2.757428885E0
1.360094621E1,8.880512238E0,2.411666155E0,-2.983700275E0
1.362594621E1,9.278019905E0,1.998754621E0,-2.012812614E0
1.365094621E1,9.898060799E0,1.955683827E0,-2.330160618E0
1.367594621E1,9.300751686E0,2.302792788E0,-1.885992885E0
1.370094621E1,8.609973907E0,2.755185604E0,-2.504836559E0
1.372594621E1,9.427571297E0,2.639133930E0,-2.311017990E0
1.375094621E1,9.243324280E0,2.074128628E0,-2.252244234E0
1.377594621E1,8.760871887E0,1.467248917E0,-2.225923300E0
1.380094621E1,9.172586441E0,1.270887971E0,-2.433052063E0
1.382594621E1,9.474231720E0,1.397857070E0,-2.140978098E0
1.385094621E1,8.730960846E0,1.919641972E0,-2.239083767E0
1.387594621E1,9.070891380E0,2.451147795E0,-2.627020121E0
1.390094621E1,9.876524925E0,1.229013562E0,-2.376820564E0
1.392594621E1,9.887292862E0,6.065805554E-1,-1.856082559E0
1.395094621E1,9.744770050E0,1.478016615E0,-2.248655081E0
1.397594621E1,9.716055870E0,1.632353663E0,-2.144567251E0
1.400094621E1,9.736394882E0,1.424178123E0,-1.811815381E0
1.402594621E1,9.534201622E0,1.173978567E0,-1.550848126E0
1.405094621E1,9.790233612E0,3.288635612E-1,-1.382004619E0
1.407594621E1,9.745966911E0,6.532405615E-1,-1.138983607E0
1.410094621E1,9.692128181E0,1.574925900E0,-2.723331153E-1
1.412594621E1,9.234949112E0,8.591728806E-1,5.563312769E-2
1.415094621E1,9.137890816E0,-4.372883439E-1,-3.106182814E-1
1.417594621E1,9.267252922E0,7.268198580E-2,-8.158029914E-1
1.420094621E1,1.019970608E1,4.299453735E0,-1.200150132E0
1.422594621E1,9.841829300E0,7.226174831E0,-1.592722535E0
1.425094621E1,1.004282665E1,8.866155624E0,-2.266601324E0
1.427594621E1,8.142027855E0,6.274579048E0,-2.931058168E0
1.430094621E1,8.243722916E0,1.772483349E0,-2.333749771E0
1.432594621E1,9.097212791E0,-2.083251238E0,-7.559823990E-1
1.435094621E1,1.112617683E1,-6.671488762E0,-4.486542568E-2
1.437594621E1,1.251595783E1,-3.019293547E0,-1.323530078E-1
1.440094621E1,9.533005714E0,3.748805285E0,-1.185793161E0
1.442594621E1,8.080861092E0,2.071735859E0,-1.218096256E0
1.445094621E1,1.019133091E1,2.929712236E-1,-1.280309677E0
1.447594621E1,1.031097221E1,1.193420291E-1,-1.453789353E0
1.450094621E1,1.035165024E1,-2.422732860E-2,-1.232453227E0
1.452594621E1,1.001650524E1,4.277170449E-2,-1.640578985E0
1.455094621E1,9.941131592E0,8.555836678E-1,-8.911768794E-1
1.457594621E1,9.525827408E0,7.501499057E-1,-1.636989832E0
1.460094621E1,9.843025208E0,2.341975123E-1,-1.757976890E0
1.462594621E1,9.549755096E0,1.868196249E0,-1.789083600E0
1.465094621E1,9.135498047E0,1.128515005E0,-9.499505758E-1
1.467594621E1,9.323483467E0,-4.950151965E-2,-1.104287624E0
1.470094621E1,9.164211273E0,1.254138112E0,-3.681955934E-1
1.472594621E1,8.899655342E0,1.464856148E0,-6.176473573E-2
1.475094621E1,8.562117577E0,3.827768564E0,-1.524527073E0
1.477594621E1,8.983553886E0,5.454588890E0,-1.399950743E0
1.480094621E1,1.100055313E1,-2.183749676E0,1.357926875E-1
1.482594621E1,1.130818081E1,-5.570191860E0,-1.268345594E0
1.485094621E1,1.047981548E1,-4.265206456E-1,-3.021985531E0
1.487594621E1,8.580063820E0,1.553390503E0,-2.922683239E0
1.490094621E1,8.861370087E0,1.363011599E0,-1.417896986E0
1.492594621E1,9.429964066E0,6.029912829E-1,-2.196012974E0
1.495094621E1,1.024158001E1,2.702394128E-1,-3.135644436E0
1.497594621E1,9.544969559E0,5.155037045E-1,-1.820190310E0
1.500094621E1,9.546165466E0,3.157030344E-1,-2.051247120E0
1.502594621E1,9.601201057E0,9.285647273E-1,-2.807678223E0
1.505094621E1,9.312716484E0,1.460070491E0,-2.178066730E0
1.507594621E1,9.152247429E0,1.223031521E0,-2.363660097E0
1.510094621E1,9.243324280E0,1.284048438E0,-2.606681108E0
1.512594621E1,9.983005524E0,1.262513041E0,-2.783750057E0
1.515094621E1,9.747162819E0,1.662413478E0,-2.591127872E0
1.517594621E1,9.274431229E0,1.752144337E0,-2.559871674E0
1.520094621E1,9.003892899E0,1.455284834E0,-2.682054996E0
1.522594621E1,9.285199165E0,1.843071699E0,-2.832803011E0
1.525094621E1,9.390482903E0,2.337488651E0,-2.974128962E0
1.527594621E1,8.847013474E0,2.369791746E0,-2.727518797E0
1.530094621E1,8.739336014E0,2.298007011E0,-2.622234583E0
1.532594621E1,9.088837624E0,1.480409503E0,-2.627020121E0
1.535094621E1,9.076873779E0,1.333101273E0,-2.314607143E0
1.537594621E1,9.019445419E0,1.390678644E0,-2.410320044E0
1.540094621E1,9.617950439E0,1.802393675E0,-2.673680305E0
1.542594621E1,1.061859894E1,1.839482427E0,-2.305036068E0
1.545094621E1,9.772287369E0,1.391875029E0,-1.931456566E0
1.547594621E1,9.345019341E0,2.345863581E0,-2.198405743E0
1.550094621E1,9.690931320E0,2.738435984E0,-2.066800594E0
1.552594621E1,8.444869041E0,2.440380096E0,-2.790928602E0
1.555094621E1,1.056715298E1,1.562961817E0,-2.233101845E0
1.557594621E1,9.938738823E0,2.451147795E0,-1.891974926E0
1.560094621E1,8.744121552E0,3.740430355E0,-1.316202044E0
1.562594621E1,9.037391663E0,4.340131760E0,-7.727321386E-1
1.565094621E1,8.588438988E0,4.410719872E0,-7.691429257E-1
1.567594621E1,8.035397530E0,3.108426094E0,-4.280161560E-1
1.570094621E1,8.469993591E0,1.510319710E0,1.657029688E-1
1.572594621E1,9.090034485E0,2.100449562E0,9.152546525E-2
1.575094621E1,9.379714966E0,2.050200462E0,-1.297059417E0
1.577594621E1,9.017052650E0,7.908278704E-1,-1.000199914E0
1.580094621E1,9.160622597E0,7.776673436E-1,-4.938187599E-1
1.582594621E1,9.414411545E0,2.149502516E0,-5.380859971E-1
1.585094621E1,9.781859398E0,3.820590019E0,-7.212864757E-1
1.587594621E1,9.558130264E0,3.791876078E0,-1.000199914E0
1.590094621E1,9.232556343E0,2.536242485E0,-1.203739285E0
1.592594621E1,9.376126289E0,2.095664024E0,-9.858429432E-1
1.595094621E1,9.670592308E0,2.166252136E0,-1.263559937E0
1.597594621E1,9.768698692E0,1.123729348E0,-3.345465064E-1
1.600094621E1,1.014227772E1,2.246262282E-1,-6.894320250E-2
1.602594621E1,1.100414276E1,-2.648555636E-1,-6.554838419E-1
1.605094621E1,1.062936687E1,1.062562823E0,8.554340899E-2
1.607594621E1,9.683753014E0,2.524278402E0,5.165506005E-1
1.610094621E1,9.237341881E0,2.962314367E0,-3.142075241E-1
1.612594621E1,9.918399811E0,1.910070658E0,-7.440183163E-1
1.615094621E1,1.017338467E1,4.652544558E-1,-6.195915341E-1
1.617594621E1,9.857382774E0,3.097209930E-1,-8.564809561E-1
1.620094621E1,1.007408237E1,9.780662507E-2,-9.439685345E-1
1.622594621E1,1.030379295E1,6.909275055E-2,-5.859424472E-1
1.625094621E1,1.004880810E1,4.114159346E-1,-6.973582506E-1
1.627594621E1,1.005359364E1,-5.784648657E-1,-5.787639618E-1
1.630094621E1,1.024516964E1,-1.120738268E0,-5.548357368E-1
1.632594621E1,1.006914711E1,-3.753740340E-2,-7.404290438E-1
1.635094621E1,9.245717049E0,1.518694639E0,-3.490529954E-1
1.637594621E1,8.548956871E0,1.145264745E0,-1.423879027E0
1.640094621E1,9.325876236E0,3.216851056E-1,-8.469096422E-1
1.642594621E1,8.837441444E0,-5.667998642E-2,-2.591725886E-1
1.645094621E1,8.718997002E0,9.421738982E-2,-7.212864757E-1
1.647594621E1,8.247311592E0,1.817947030E0,-7.320541739E-1
1.650094621E1,7.979166031E0,6.056682587E0,-3.272184849E0
1.652594621E1,1.123041439E1,-9.855438471E-1,-2.185245275E0
1.655094621E1,1.388420391E1,-5.923432350E0,-1.678864241E0
1.657594621E1,1.068215847E1,-3.498157263E0,4.793123007E-1
1.660094621E1,8.393424034E0,2.579313278E0,-1.590329766E0
1.662594621E1,8.858977318E0,2.584098816E0,-2.378016949E0
1.665094621E1,1.016979504E1,8.075776510E-3,-2.040479422E0
1.667594621E1,9.860971451E0,-4.648058116E-1,-2.190030813E0
1.670094621E1,9.665806770E0,-4.351946339E-2,-2.286940336E0
1.672594621E1,9.336644173E0,-5.989534259E-1,-1.749601960E0
1.675094621E1,9.536594391E0,-7.269694209E-1,-1.528116345E0
1.677594621E1,9.525827408E0,-5.413761139E-1,-1.888385773E0
1.680094621E1,9.408429146E0,7.986045629E-2,-2.551496744E0
1.682594621E1,9.688538551E0,5.479564071E-1,-2.752643347E0
1.685094621E1,9.506534576E0,1.307976723E0,-2.992075205E0
1.687594621E1,9.596415520E0,1.454088449E0,-2.889183760E0
1.690094621E1,9.757930756E0,1.098604679E0,-2.197209358E0
1.692594621E1,9.470642090E0,1.513908982E0,-2.199602127E0
1.695094621E1,9.198907852E0,1.424178123E0,-2.641377211E0
1.697594621E1,9.218050003E0,3.348456323E-1,-2.317000151E0
1.700094621E1,8.909226418E0,9.692427516E-1,-2.733500719E0
1.702594621E1,9.090034485E0,1.092473030E0,-2.877219677E0
1.705094621E1,9.210871696E0,9.034401178E-1,-2.595913410E0
1.707594621E1,9.365358353E0,1.383500099E0,-2.534746885E0
1.710094621E1,9.301948547E0,1.582104445E0,-2.547907352E0
1.712594621E1,9.255288124E0,1.292423368E0,-2.529961348E0
1.715094621E1,9.221639633E0,1.509123325E0,-2.716751099E0
1.717594621E1,9.418000221E0,1.224227905E0,-2.580360174E0
1.720094621E1,9.019445419E0,2.129163504E0,-2.203191519E0
1.722594621E1,9.236145973E0,2.203341007E0,-2.552693129E0
1.725094621E1,9.462267876E0,1.843071699E0,-2.280958176E0
1.727594621E1,9.246913910E0,1.497159243E0,-2.081157446E0
1.730094621E1,9.522237778E0,1.448106408E0,-2.308625221E0
1.732594621E1,9.263663292E0,2.627169609E0,-2.502443790E0
1.735094621E1,9.006285667E0,2.750400066E0,-2.461765766E0
1.737594621E1,9.438339233E0,2.206930161E0,-2.213959217E0
1.740094621E1,9.264860153E0,1.524676681E0,-2.325374842E0
1.742594621E1,9.058927536E0,1.234995604E0,-2.512015104E0
1.745094621E1,9.301948547E0,1.492373586E0,-3.004039288E0
1.747594621E1,1.017099190E1,2.325524569E0,-2.673680305E0
1.750094621E1,9.756733894E0,2.704936504E0,-2.187638044E0
1.752594621E1,9.473034859E0,2.460718870E0,-1.526919961E0
1.755094621E1,9.174979210E0,3.314208984E0,-1.447807193E0
1.757594621E1,9.932756424E0,3.791876078E0,-1.197757244E0
1.760094621E1,1.013150978E1,3.535694599E0,-1.220489144E0
1.762594621E1,9.204889297E0,2.570938349E0,-1.030110121E0
1.765094621E1,9.013463974E0,1.796411633E0,-6.327520609E-1
1.767594621E1,9.104391098E0,2.151895285E0,-3.345465064E-1
1.770094621E1,8.538188934E0,1.206281662E0,-6.074778438E-1
1.772594621E1,8.186294556E0,5.202893615E-1,1.202393398E-1
1.775094621E1,8.430512428E0,1.043420196E0,6.759724021E-2
1.777594621E1,8.942726135E0,1.698305845E0,-6.889833808E-1
1.780094621E1,9.439536095E0,1.754537225E0,-1.073180914E0
1.782594621E1,1.019491959E1,2.002343893E0,-7.595716119E-1
1.785094621E1,9.918399811E0,3.729662657E0,-9.870393276E-1
1.787594621E1,9.495766640E0,3.621985674E0,-1.414307714E0
1.790094621E1,9.808329582E0,2.029861450E0,-9.595218897E-1
1.792594621E1,9.825078964E0,1.622782350E0,-6.375376582E-1
1.795094621E1,8.887691498E0,1.549801350E0,-1.020538807E0
1.797594621E1,9.795168877E0,7.046862841E-1,-1.518545032E0
1.800094621E1,9.941131592E0,2.198405862E-1,-7.775177956E-1
1.802594621E1,1.034925747E1,2.294118702E-1,-6.578766704E-1
1.805094621E1,9.993773460E0,3.559323773E-2,-1.165304661E0
1.807594621E1,1.057433224E1,-9.388837814E-1,7.357929647E-2
1.810094621E1,1.096346474E1,-6.001498103E-1,5.802594870E-2
1.812594621E1,1.083051395E1,1.241276711E-1,1.453639716E-1
1.815094621E1,1.004282665E1,1.116550922E0,-5.392823815E-1
1.817594621E1,9.455089569E0,2.032254219E0,-1.814208269E0
1.820094621E1,9.594022751E0,1.366600871E0,-1.985295057E0
1.822594621E1,9.598808289E0,7.106683254E-1,-1.510170221E0
1.825094621E1,9.852597237E0,3.551846147E-1,-1.046859860E0
1.827594621E1,9.783055305E0,8.344969153E-2,-9.595218897E-1
1.830094621E1,9.434750557E0,3.623630702E-1,-6.698408127E-1
1.832594621E1,9.590433121E0,-3.224328458E-1,-9.978070259E-1
1.835094621E1,9.724431038E0,4.652544558E-1,-1.034895778E0
1.837594621E1,9.260073662E0,8.735297918E-1,-1.155733347E0
1.840094621E1,9.213264465E0,4.281657040E-1,-1.127019525E0
1.842594621E1,9.272038460E0,-1.595713645E-1,-7.117151618E-1
1.845094621E1,8.872138023E0,5.670989752E-1,-7.500003576E-1
1.847594621E1,8.710621834E0,2.246262282E-1,-7.739285827E-1
1.850094621E1,8.797960281E0,4.245764613E-1,-1.244417310E0
1.852594621E1,9.700503349E0,7.082754970E-1,-1.439432383E0
1.855094621E1,1.062458134E1,-3.001347303E0,-1.590329766E0
1.857594621E1,1.135005474E1,-4.314558506E0,-1.347308755E0
1.860094621E1,1.000573730E1,-8.922237158E-1,-5.309075117E-1
1.862594621E1,9.037391663E0,2.721686125E0,-1.269541979E0
1.865094621E1,9.226425171E0,2.063360929E0,-2.334946156E0
1.867594621E1,1.004521942E1,-2.636591494E-1,-2.376820564E0
1.870094621E1,1.007767200E1,-1.145862937E0,-2.094317913E0
1.872594621E1,9.681360245E0,-5.222335458E-1,-1.915903211E0
1.875094621E1,9.796365738E0,9.847960472E-1,-1.973330975E0
1.877594621E1,9.850203514E0,1.440927863E0,-1.877618074E0
1.880094621E1,9.865756989E0,6.460621357E-1,-1.929063678E0
1.882594621E1,9.333055496E0,4.891826808E-1,-2.477319241E0
1.885094621E1,9.341429710E0,6.005984545E-1,-3.230310678E0
1.887594621E1,9.161818504E0,9.608678222E-1,-3.251846075E0
1.890094621E1,9.479017258E0,1.017099142E0,-2.688037157E0
1.892594621E1,9.408429146E0,1.606032610E0,-2.276172638E0
1.895094621E1,9.634700775E0,1.244566917E0,-2.631805897E0
1.897594621E1,9.390482903E0,2.186441720E-1,-2.825624466E0
1.900094621E1,9.008678436E0,2.485544533E-1,-2.879612446E0
1.902594621E1,8.971589088E0,5.802595019E-1,-2.939433098E0
1.905094621E1,9.148657799E0,2.630609274E-1,-2.634198666E0
1.907594621E1,9.502945900E0,4.664508700E-1,-2.604288340E0
1.910094621E1,9.234949112E0,3.827020824E-1,-2.372035027E0
1.912594621E1,8.882905006E0,6.951149702E-1,-2.633002281E0
1.915094621E1,9.146265030E0,1.114158034E0,-2.727518797E0
1.917594621E1,9.799954414E0,1.524676681E0,-2.326571465E0
1.920094621E1,9.655039787E0,1.647907019E0,-1.901546240E0
1.922594621E1,9.238538742E0,1.846660852E0,-2.194816589E0
1.925094621E1,9.145069122E0,1.733001828E0,-2.506033182E0
1.927594621E1,9.232556343E0,2.110020876E0,-2.576621294E0
1.930094621E1,9.498160362E0,2.177019835E0,-2.440230370E0
1.932594621E1,9.394072533E0,1.697109461E0,-2.355285168E0
1.935094621E1,9.368947983E0,1.355833173E0,-2.224726915E0
1.937594621E1,9.261270523E0,1.800000787E0,-2.540729046E0
1.940094621E1,9.145069122E0,1.820339799E0,-2.509622335E0
1.942594621E1,9.154640198E0,1.462463260E0,-2.455783844E0
1.945094621E1,9.262466431E0,1.184746265E0,-2.592324257E0
1.947594621E1,9.257680893E0,1.134497046E0,-2.478515625E0
1.950094621E1,9.115159035E0,1.987986922E0,-2.562264442E0
1.952594621E1,9.808329582E0,2.776870728E0,-2.569442749E0
1.955094621E1,9.665806770E0,2.490629196E0,-2.078764677E0
1.957594621E1,9.486195564E0,2.736043215E0,-1.382004619E0
1.960094621E1,9.825078964E0,3.279512882E0,-1.451396465E0
1.962594621E1,9.401250839E0,2.859423161E0,-1.291077375E0
1.965094621E1,9.116354942E0,1.946112514E0,-1.215703487E0
1.967594621E1,8.908030510E0,1.142871857E0,-1.226471186E0
1.970094621E1,9.044570923E0,1.376321673E0,-8.038388491E-1
1.972594621E1,9.134301186E0,2.581706047E0,-1.097109199E0
1.975094621E1,9.055337906E0,2.761167765E0,-9.798609018E-1
1.977594621E1,9.329465866E0,1.877767563E0,-4.782654345E-1
1.980094621E1,8.962018013E0,1.901695848E0,-6.056832150E-2
1.982594621E1,9.032606125E0,2.105235338E0,-5.727819204E-1
1.985094621E1,9.354590416E0,1.809572101E0,-9.714859724E-1
1.987594621E1,9.919595718E0,1.438535094E0,-7.918747663E-1
1.990094621E1,1.006316471E1,1.773679733E0,-1.074377418E0
1.992594621E1,9.905239105E0,3.298655510E0,-1.462313771E0
1.995094621E1,9.902846336E0,2.185394764E0,-1.042074203E0
1.997594621E1,9.834650993E0,1.190728426E0,-8.110173345E-1
2.000094621E1,9.410821915E0,4.485046864E-1,-6.219843626E-1
2.002594621E1,1.003205872E1,2.330010980E-1,-5.775675774E-1
2.005094621E1,1.063415241E1,1.084098220E0,-1.165304661E0
2.007594621E1,1.028824043E1,-1.571785361E-1,-9.236295223E-1
2.010094621E1,1.015065289E1,1.245763302E0,-3.649054468E-2
2.012594621E1,9.604789734E0,7.908278704E-1,-3.753740489E-1
2.015094621E1,1.024875832E1,1.005135059E0,-3.933202326E-1
2.017594621E1,9.921988487E0,2.114657015E-1,-3.574278951E-1
2.020094621E1,9.973434448E0,6.592226624E-1,-3.526422381E-1
2.022594621E1,9.656235695E0,1.469641805E0,-3.430709541E-1
2.025094621E1,9.307930946E0,1.572533131E0,-9.128618240E-1
2.027594621E1,9.955488205E0,3.216851056E-1,-8.337491155E-1
2.030094621E1,9.726823807E0,3.874877095E-1,-9.343972206E-1
2.032594621E1,9.656235695E0,3.934697807E-1,-6.267699599E-1
2.035094621E1,9.623932838E0,5.131108761E-1,-6.949654222E-1
2.037594621E1,9.692128181E0,2.114657015E-1,-9.427721500E-1
2.040094621E1,9.883703232E0,1.576271951E-1,-6.554838419E-1
2.042594621E1,9.468249321E0,4.162015915E-1,-6.566802859E-1
2.045094621E1,9.266056061E0,-4.169493318E-1,-8.887840509E-1
2.047594621E1,9.400053978E0,-3.954139352E-1,-3.933202326E-1
2.050094621E1,9.128319740E0,3.862912953E-1,-4.854438901E-1
2.052594621E1,8.959625244E0,8.823533356E-2,-1.670489311E-1
2.055094621E1,8.680711746E0,7.106683254E-1,-1.569990754E0
2.057594621E1,9.784252167E0,3.109173775E-1,-1.641775489E0
2.060094621E1,1.082094193E1,-1.513460279E0,-1.654935956E0
2.062594621E1,1.101012516E1,-2.384896517E0,-1.620239973E0
2.065094621E1,9.718449593E0,-2.781656384E-2,-1.504188180E0
2.067594621E1,9.112766266E0,1.303191066E0,-1.891974926E0
2.070094621E1,9.483802795E0,1.162014484E0,-1.818993807E0
2.072594621E1,9.829864502E0,7.645068169E-1,-2.089532375E0
2.075094621E1,9.941131592E0,3.080759197E-2,-1.467099428E0
2.077594621E1,9.425178528E0,1.815554202E-1,-1.731506228E0
2.080094621E1,9.433553696E0,2.702394128E-1,-1.991277099E0
2.082594621E1,9.640682220E0,4.157529399E-2,-1.838136435E0
2.085094621E1,9.684949875E0,3.551846147E-1,-1.625025630E0
2.087594621E1,9.433553696E0,1.366600871E0,-2.015205383E0
2.090094621E1,9.656235695E0,8.364410400E-1,-2.553889513E0
2.092594621E1,9.851400375E0,1.121635586E-1,-2.540729046E0
2.095094621E1,9.444321632E0,3.946661949E-1,-2.312214375E0
2.097594621E1,9.096015930E0,3.827020824E-1,-2.119442701E0
2.100094621E1,9.147461891E0,3.779164255E-1,-2.209173441E0
2.102594621E1,9.294770241E0,9.752247930E-1,-2.625823736E0
2.105094621E1,9.109176636E0,8.039883971E-1,-2.603091955E0
2.107594621E1,9.321090698E0,5.310570598E-1,-2.322982073E0
2.110094621E1,8.933155060E0,1.833500385E0,-2.847159863E0
2.112594621E1,9.688538551E0,1.280459166E0,-2.927469015E0
2.115094621E1,9.486195564E0,1.290030479E0,-2.761018276E0
2.117594621E1,9.560523033E0,1.564158201E0,-2.398355961E0
2.120094621E1,9.074481010E0,9.572786093E-1,-2.497658253E0
2.122594621E1,8.819495201E0,9.859924912E-1,-2.720340252E0
2.125094621E1,9.232556343E0,2.090878248E0,-3.103341341E0
2.127594621E1,9.535398483E0,1.970040798E0,-2.571835756E0
2.130094621E1,9.385697365E0,2.106431723E0,-2.199602127E0
2.132594621E1,9.289984703E0,2.487040043E0,-2.374427795E0
2.135094621E1,9.299555779E0,2.576920509E0,-2.446212530E0
2.137594621E1,9.242128372E0,2.519492626E0,-2.419891357E0
2.140094621E1,8.784799576E0,2.252543449E0,-2.540729046E0
2.142594621E1,9.139086723E0,2.562563419E0,-2.778964281E0
2.145094621E1,9.452695847E0,1.872981906E0,-2.456980228E0
2.147594621E1,8.971589088E0,2.034646988E0,-2.313410759E0
2.150094621E1,9.266056061E0,1.866999865E0,-2.690429926E0
2.152594621E1,9.450303078E0,1.850250125E0,-2.336142540E0
2.155094621E1,9.239734650E0,2.292025089E0,-2.330160618E0
2.157594621E1,9.252895355E0,2.153091669E0,-2.094317913E0
2.160094621E1,9.048159599E0,2.311167479E0,-2.263011932E0
2.162594621E1,9.319894791E0,2.359024048E0,-2.114656925E0
2.165094621E1,9.125926018E0,2.570938349E0,-2.173281193E0
2.167594621E1,9.021839142E0,2.661865711E0,-2.634198666E0
2.170094621E1,8.838638306E0,1.744965911E0,-2.579014063E0
2.172594621E1,9.837043762E0,1.313958764E0,-2.303839445E0
2.175094621E1,1.007034397E1,2.774178684E-1,-2.038086653E0
2.177594621E1,1.001530838E1,-1.167547941E0,-1.425075412E0
2.180094621E1,1.055758190E1,-2.508126736E0,-1.451396465E0
2.182594621E1,1.080897808E1,-3.463461161E0,-1.174875975E0
2.185094621E1,1.132612705E1,-4.421039104E0,-1.993520409E-1
2.187594621E1,1.099217892E1,-3.646512270E0,1.089930773E0
2.190094621E1,1.091186905E1,-1.427169204E0,9.139087200E-1
2.192594621E1,9.960273743E0,1.340279818E0,-3.309572935E-1
2.195094621E1,1.099098206E1,4.218097687E0,-1.724327803E0
2.197594621E1,1.283913898E1,5.254638672E0,-2.284547329E0
2.200094621E1,1.254467201E1,4.714757919E0,-2.421087980E0
2.202594621E1,1.069651508E1,3.439981699E0,-2.057229280E0
2.205094621E1,9.502945900E0,2.143520355E0,-1.629811287E0
2.207594621E1,9.048159599E0,1.391875029E0,-1.426271796E0
2.210094621E1,9.574879646E0,1.750947952E0,-1.913510323E0
2.212594621E1,9.045766830E0,1.834696770E0,-2.334946156E0
2.215094621E1,8.603992462E0,1.489980698E0,-2.191227436E0
2.217594621E1,7.989933968E0,8.819047213E-1,-1.807029724E0
2.220094621E1,7.728966713E0,-6.146563217E-2,-1.516152263E0
2.222594621E1,7.999505043E0,-8.742775917E-1,-1.352094293E0
2.225094621E1,8.205437660E0,-1.433300734E0,-1.128215909E0
2.227594621E1,7.714609623E0,-2.781058073E0,-1.449003696E0
2.230094621E1,8.066504478E0,-3.842873096E0,-1.647757530E0
2.232594621E1,9.158229828E0,-3.562763453E0,-1.481456280E0
2.235094621E1,8.893672943E0,-3.870390654E0,-1.750798464E0
2.237594621E1,9.540184021E0,-4.033252239E0,-1.653739572E0
2.240094621E1,9.348608971E0,-4.260719776E0,-1.562812328E0
2.242594621E1,8.443673134E0,-3.353241920E0,-1.931456566E0
2.245094621E1,7.858328819E0,-2.138286114E0,-2.615056038E0
2.247594621E1,7.484749317E0,-7.808079123E-1,-2.680858612E0
2.250094621E1,7.433303356E0,1.815554202E-1,-2.800499916E0
2.252594621E1,7.592576027E0,1.505534053E0,-4.282554150E0
2.255094621E1,1.432717514E1,-4.337290287E0,2.604138851E0
2.257594621E1,2.190688896E1,-1.617847252E1,-1.368844151E0
2.260094621E1,1.076949692E1,-2.268694878E0,-2.567049980E0
2.262594621E1,2.260918379E0,1.176191998E1,-1.417896986E0
2.265094621E1,5.847161293E0,8.358577728E0,-7.926374435E0
2.267594621E1,1.348325634E1,1.899302959E0,-3.885046721E0
2.270094621E1,1.162178993E1,-3.774677753E0,1.296909928E0
2.272594621E1,8.464012146E0,-6.348457336E-1,-1.641775489E0
2.275094621E1,9.080462456E0,2.102842331E0,-3.011217833E0
2.277594621E1,9.480214119E0,1.917249203E0,-3.751048565E0
2.280094621E1,8.861370087E0,1.622782350E0,-3.790530205E0
2.282594621E1,9.615557671E0,-5.222335458E-1,-2.521586418E0
2.285094621E1,9.413214684E0,-1.093220830E0,-1.918295979E0
2.287594621E1,9.062516212E0,-9.675976634E-1,-2.842374086E0
2.290094621E1,8.839834213E0,-2.542374097E-2,-3.290131092E0
2.292594621E1,9.318697929E0,7.274180651E-1,-2.798106909E0
2.295094621E1,9.568898201E0,5.443671346E-1,-2.453391075E0
2.297594621E1,9.195318222E0,1.322333574E0,-2.276172638E0
2.300094621E1,9.310323715E0,8.292626143E-1,-1.945813417E0
2.302594621E1,8.943922043E0,1.257727385E0,-2.400748968E0
2.305094621E1,8.620741844E0,1.486391544E0,-2.813660383E0
2.307594621E1,9.243324280E0,1.505534053E0,-2.707179785E0
2.310094621E1,9.085248947E0,1.504337668E0,-2.398355961E0
2.312594621E1,8.953642845E0,1.018295646E0,-2.417498589E0
2.315094621E1,8.981161118E0,1.552343667E-1,-2.921486855E0
2.317594621E1,9.070891380E0,-9.870393202E-3,-3.140579700E0
2.320094621E1,9.224032402E0,1.391875029E0,-3.194418192E0
2.322594621E1,1.035897827E1,3.187389374E0,-2.695215702E0
2.325094621E1,1.024516964E1,3.284298658E0,-2.585145712E0
2.327594621E1,9.745966911E0,2.369791746E0,-2.284547329E0
2.330094621E1,1.032173920E1,5.491527915E-1,-2.482104778E0
2.332594621E1,1.040683460E1,-1.700100541E0,-3.045913696E0
2.335094621E1,1.090469074E1,-3.281457186E0,-3.372683525E0
2.337594621E1,1.284751320E1,-4.496412754E0,-2.495265245E0
2.340094621E1,1.336226940E1,-4.919044971E0,7.954639792E-1
2.342594621E1,1.077308559E1,-1.610369682E0,2.237887383E0
2.345094621E1,8.378916740E0,1.267298698E0,1.348355532E0
2.347594621E1,1.198086262E1,1.126122117E0,1.354487181E0
2.350094621E1,1.323425293E1,2.697757959E0,9.569795132E-1
2.352594621E1,1.188993549E1,3.815804243E0,-6.219843626E-1
2.355094621E1,1.269317627E1,2.136342049E0,-2.813660383E0
2.357594621E1,1.166246796E1,3.960719585E0,-2.908326387E0
2.360094621E1,1.035538864E1,5.206781864E0,-4.494318962E0
2.362594621E1,8.826674461E0,5.750251770E0,-3.413361549E0
2.365094621E1,7.645217896E0,4.443023205E0,-2.970539808E0
2.367594621E1,7.976773262E0,3.304637671E0,-3.115305424E0
2.370094621E1,8.146813393E0,3.524926901E0,-2.498854637E0
2.372594621E1,7.617700577E0,4.766353130E0,-2.845963478E0
2.375094621E1,6.541528225E0,5.456981659E0,-2.034497499E0
2.377594621E1,6.528367996E0,4.887190819E0,-1.320987701E0
2.380094621E1,6.850352287E0,2.495414972E0,-6.925725937E-1
2.382594621E1,7.274180889E0,-2.768196762E-1,2.472084910E-1
2.385094621E1,8.120491982E0,-2.570489645E0,1.872383654E-1
2.387594621E1,8.510671616E0,-4.899902344E0,-2.447408915E0
2.390094621E1,1.132134151E1,-5.808427334E0,-2.477319241E0
2.392594621E1,1.113933754E1,-7.261618614E0,-3.526422381E-1
2.395094621E1,1.053365421E1,-7.454390526E0,-1.461117268E0
2.397594621E1,9.462267876E0,-5.339135170E0,-2.947808027E0
2.400094621E1,8.745318413E0,-3.701696634E0,-2.674876690E0
2.402594621E1,8.835048676E0,-4.731806815E-1,-2.500051022E0
2.405094621E1,1.040803051E1,1.938934088E0,-7.882854939E-1
2.407594621E1,1.133091259E1,-3.356831074E0,-1.049252748E0
2.410094621E1,1.519502163E1,-5.461318493E0,-1.209721446E0
2.412594621E1,1.061261749E1,1.519891024E0,1.734796353E-2
2.415094621E1,7.184300423E0,6.581009865E0,-4.248905182E0
2.417594621E1,7.915756226E0,4.926672459E0,-4.968397141E0
2.420094621E1,9.798758507E0,9.919745326E-1,-3.395415306E0
2.422594621E1,1.081854916E1,-1.155583739E0,4.007977992E-2
2.425094621E1,8.952446938E0,4.018446505E-1,-1.164108157E0
2.427594621E1,9.716055870E0,1.876571178E0,-2.710768938E0
2.430094621E1,9.490981102E0,1.570140362E0,-3.226721287E0
2.432594621E1,9.182157516E0,1.711466432E0,-2.841177702E0
2.435094621E1,9.541379929E0,1.431356549E0,-2.473729849E0
2.437594621E1,9.554540634E0,1.743769497E-1,-1.371236920E0
2.440094621E1,9.136693954E0,-1.942672879E-1,-1.652543187E0
2.442594621E1,9.106783867E0,9.357432127E-1,-2.671287298E0
2.445094621E1,9.232556343E0,9.118149877E-1,-2.249851465E0
2.447594621E1,9.214461327E0,5.262714028E-1,-1.605883121E0
2.450094621E1,9.374929428E0,7.585247755E-1,-1.657328725E0
2.452594621E1,9.184550285E0,1.049402237E0,-1.869243145E0
2.455094621E1,9.080462456E0,1.573729515E0,-2.455783844E0
2.457594621E1,8.993124962E0,1.052991509E0,-2.793321371E0
2.460094621E1,8.917601585E0,2.246262282E-1,-2.428266287E0
2.462594621E1,9.231210709E0,2.941676378E-1,-2.767000198E0
2.465094621E1,9.310323715E0,7.980063558E-1,-3.066252708E0
2.467594621E1,9.255288124E0,1.361815214E0,-2.653341293E0
2.470094621E1,1.011236763E1,2.356631279E0,-2.703590393E0
2.472594621E1,1.079821014E1,1.952094674E0,-3.035145998E0
2.475094621E1,1.103285694E1,-1.284646690E-1,-2.321785688E0
2.477594621E1,1.082812023E1,-1.280010581E0,-1.165304661E0
2.480094621E1,1.188993549E1,-2.783450842E0,-6.243771315E-1
2.482594621E1,1.194975662E1,-3.945764542E0,1.956132501E-1
2.485094621E1,1.040444183E1,-2.461466789E0,5.560321808E-1
2.487594621E1,9.213264465E0,1.230209947E0,-6.662515402E-1
2.490094621E1,1.277213955E1,2.951546669E0,-1.737637877E0
2.492594621E1,1.194855976E1,4.409523487E0,-1.204935789E0
2.495094621E1,1.149377441E1,3.498605728E0,-1.101894855E0
2.497594621E1,1.042478085E1,3.764358759E0,-8.828020096E-1
2.500094621E1,1.008485031E1,2.853441000E0,-1.729113460E0
2.502594621E1,9.833454132E0,4.203740597E0,-2.643769979E0
2.505094621E1,8.447261810E0,4.422684193E0,-2.805285454E0
2.507594621E1,8.393424034E0,3.502195120E0,-2.017598152E0
2.510094621E1,8.637491226E0,3.572783232E0,-2.533550501E0
2.512594621E1,8.714211464E0,4.465904236E0,-2.662912607E0
2.515094621E1,8.174330711E0,4.426273346E0,-2.349303246E0
2.517594621E1,8.325078964E0,3.642324686E0,-7.416254878E-1
2.520094621E1,8.830263138E0,2.282453775E0,3.620639741E-1
2.522594621E1,8.187491417E0,1.054187894E0,-4.088735580E-1
2.525094621E1,7.171139717E0,-6.324529648E-1,-8.744271398E-1
2.527594621E1,7.559076309E0,-2.334647179E0,-1.128215909E0
2.530094621E1,8.639883995E0,-4.525276184E0,-2.972932577E0
2.532594621E1,1.034925747E1,-4.676023960E0,-1.329362512E0
2.535094621E1,1.007767200E1,-5.861069679E0,-1.267149091E0
2.537594621E1,9.111569405E0,-5.816802502E0,-2.284547329E0
2.540094621E1,9.091230392E0,-4.592275143E0,-1.678864241E0
2.542594621E1,8.364560127E0,-2.056930065E0,-1.678864241E0
2.545094621E1,7.149604321E0,1.068544865E0,-4.169941902E0
2.547594621E1,9.535398483E0,3.908077478E0,-2.726322412E0
2.550094621E1,1.264771271E1,-5.797659874E0,2.684298277E0
2.552594621E1,1.807388687E1,-1.094731331E1,7.701897621E-1
2.555094621E1,1.261301708E1,-2.262712955E0,-1.427468300E0
2.557594621E1,5.108676434E0,8.362167358E0,-3.735495329E0
2.560094621E1,5.854339600E0,1.037213802E1,-5.495117188E0
2.562594621E1,1.084965611E1,2.500349998E0,-4.854738235E0
2.565094621E1,1.150454140E1,-3.151048422E0,5.859424472E-1
2.567594621E1,8.863762856E0,-1.673779488E0,-1.407278776E-1
2.570094621E1,9.151051521E0,1.333101273E0,-3.431457281E0
2.572594621E1,9.117551804E0,2.044218302E0,-3.840779543E0
2.575094621E1,9.287591934E0,1.647907019E0,-3.385843992E0
2.577594621E1,9.603593826E0,9.979565740E-1,-2.796910524E0
2.580094621E1,9.492177963E0,-4.528416991E-1,-1.793869257E0
2.582594621E1,9.392875671E0,-4.528416991E-1,-1.905135512E0
2.585094621E1,9.465856552E0,1.387089372E0,-2.972932577E0
2.587594621E1,9.112766266E0,1.393071413E0,-2.896362305E0
2.590094621E1,9.464660645E0,1.707877219E-1,-2.331357002E0
2.592594621E1,9.889685631E0,-9.137591720E-2,-1.966152430E0
2.595094621E1,8.990732193E0,6.077769399E-1,-2.162513494E0
2.597594621E1,9.024231911E0,2.570788860E-1,-2.534746885E0
2.600094621E1,9.011071205E0,7.322037220E-1,-2.617448807E0
2.602594621E1,9.216854095E0,9.249755144E-1,-2.878416061E0
2.605094621E1,9.124730110E0,1.017099142E0,-2.904737234E0
2.607594621E1,9.195318222E0,3.360420167E-1,-2.520390034E0
2.610094621E1,9.449107170E0,7.764709592E-1,-2.617448807E0
2.612594621E1,9.956684113E0,1.831107497E0,-2.497658253E0
2.615094621E1,9.745966911E0,2.160270214E0,-2.580360174E0
2.617594621E1,9.959077835E0,2.463111877E0,-2.830410004E0
2.620094621E1,9.828668594E0,1.694716692E0,-2.167299032E0
2.622594621E1,1.082692432E1,6.616154313E-1,-2.609073877E0
2.625094621E1,1.164452171E1,-2.158625126E0,-2.247458696E0
2.627594621E1,1.103764248E1,-4.563561440E0,-2.169692039E0
2.630094621E1,1.210304642E1,-6.580561161E0,-2.591725886E-1
2.632594621E1,1.126152039E1,-5.662465096E0,1.964956045E0
2.635094621E1,9.657432556E0,8.075776510E-3,1.058674455E0
2.637594621E1,1.185643578E1,9.931709766E-1,-1.945663840E-1
2.640094621E1,1.356461239E1,3.123979568E0,-1.103091240E0
2.642594621E1,1.092996502E1,4.025325775E0,-1.579562068E0
2.645094621E1,1.068335533E1,2.205733776E0,-3.056681395E0
2.647594621E1,1.161341476E1,3.001796007E0,-3.403790236E0
2.650094621E1,1.053245735E1,5.168497086E0,-5.399404526E0
2.652594621E1,8.273633003E0,6.348756790E0,-5.856583118E0
2.655094621E1,7.909774303E0,5.539534092E0,-5.626722336E0
2.657594621E1,7.830811024E0,3.080908775E0,-4.193870544E0
2.660094621E1,8.615956306E0,3.295066357E0,-3.596561909E0
2.662594621E1,8.687890053E0,4.405934334E0,-2.592324257E0
2.665094621E1,6.935297489E0,4.336542606E0,-1.791476369E0
2.667594621E1,7.891828060E0,4.407130718E0,-1.162911773E0
2.670094621E1,7.470392227E0,3.187389374E0,1.854437590E-2
2.672594621E1,7.575826168E0,1.697109461E0,-6.327520609E-1
2.675094621E1,7.854739666E0,6.173482537E-1,-1.945663840E-1
2.677594621E1,7.851150036E0,-1.937139511E0,-1.192971587E0
2.680094621E1,9.523433685E0,-3.091078281E0,-1.124626637E0
2.682594621E1,1.036615658E1,-5.510371208E0,-5.608177781E-1
2.685094621E1,1.084965611E1,-7.313064098E0,-1.360469222E0
2.687594621E1,9.807132721E0,-5.943771362E0,-3.079413176E0
2.690094621E1,8.784799576E0,-4.082304955E0,-3.874279022E0
2.692594621E1,7.696663380E0,-1.337438345E0,-3.365504980E0
2.695094621E1,1.021765137E1,5.793322563E0,-4.112663865E-1
2.697594621E1,1.017458057E1,-8.298608065E-1,6.511319160E0
2.700094621E1,1.545359612E1,-9.848409653E0,-4.884648323E0
2.702594621E1,1.617413521E1,-1.640279889E0,-4.028765678E0
2.705094621E1,8.349006653E0,5.952594757E0,-1.491027594E0
2.707594621E1,6.051897049E0,1.006675434E1,-4.493122578E0
2.710094621E1,8.575278282E0,4.701597214E0,-4.310071945E0
2.712594621E1,1.090828037E1,1.407428384E0,-1.562812328E-1
2.715094621E1,1.037094212E1,-5.856433511E-1,-1.790130436E-1
2.717594621E1,9.372536659E0,1.306780219E0,-3.911367655E0
2.720094621E1,8.808728218E0,3.043670416E0,-3.662364721E0
2.722594621E1,9.238538742E0,3.168994486E-1,-2.246262312E0
2.725094621E1,9.063713074E0,9.788140059E-1,-3.139233828E0
2.727594621E1,8.695068359E0,1.150050402E0,-2.871237516E0
2.730094621E1,9.116354942E0,7.393822074E-1,-2.715554714E0
2.732594621E1,9.664610863E0,1.297209024E0,-2.547907352E0
2.735094621E1,9.358180046E0,1.412214041E0,-2.412713051E0
2.737594621E1,9.149854660E0,6.556333899E-1,-1.958974004E0
2.740094621E1,8.991928101E0,1.470838189E0,-2.090728760E0
2.742594621E1,9.742377281E0,1.108175993E0,-2.004437685E0
2.745094621E1,9.068498611E0,1.245763302E0,-2.263011932E0
2.747594621E1,8.892477036E0,1.388285756E0,-3.025574684E0
2.750094621E1,9.203693390E0,9.477072954E-1,-2.430659056E0
2.752594621E1,9.182157516E0,1.207478166E0,-2.392374039E0
2.755094621E1,9.201300621E0,1.266102314E0,-2.856731176E0
2.757594621E1,9.163015366E0,1.325922847E0,-2.780160904E0
2.760094621E1,9.319894791E0,1.510319710E0,-2.971736193E0
2.762594621E1,9.851400375E0,1.634746552E0,-2.215155602E0
2.765094621E1,9.663414001E0,1.497159243E0,-2.113460541E0
2.767594621E1,9.643074989E0,4.975575507E-1,-1.872832417E0
2.770094621E1,1.083888817E1,-1.120738268E0,-1.564008713E0
2.772594621E1,1.123519993E1,-3.283849955E0,-1.316202044E0
2.775094621E1,1.156555843E1,-4.841278553E0,-1.850100517E0
2.777594621E1,1.362802219E1,-6.590132713E0,2.171486616E-1
2.780094621E1,1.265608788E1,-3.872783422E0,2.641227484E0
2.782594621E1,1.055877876E1,2.751596451E0,-8.210372925E-2
2.785094621E1,1.216645622E1,3.612264872E0,-2.067996979E0
2.787594621E1,1.381481171E1,4.095914364E0,-1.865653872E0
2.790094621E1,1.123280716E1,3.633949757E0,-2.267797709E0
2.792594621E1,9.985398293E0,2.426023006E0,-3.528366566E0
2.795094621E1,9.702896118E0,2.542224407E0,-3.336791277E0
2.797594621E1,9.112766266E0,5.140979290E0,-5.542973518E0
2.800094621E1,7.472784996E0,5.732305527E0,-5.441278458E0
2.802594621E1,6.925725937E0,5.311019421E0,-4.661966324E0
2.805094621E1,6.882655144E0,3.637539148E0,-4.523033142E0
2.807594621E1,8.334650040E0,3.672235012E0,-4.478765965E0
2.810094621E1,8.022236824E0,4.006183147E0,-2.903540611E0
2.812594621E1,8.170742035E0,4.019343853E0,-2.257030010E0
2.815094621E1,7.776823044E0,3.376571894E0,-1.330558896E0
2.817594621E1,8.536993027E0,2.239382982E0,7.956135273E-2
2.820094621E1,9.361768723E0,-2.457129806E-1,8.289635181E-1
2.822594621E1,8.935547829E0,-2.527269363E0,1.070788145E0
2.825094621E1,8.569295883E0,-2.937937498E0,-1.117448211E0
2.827594621E1,8.742925644E0,-2.503341198E0,-3.460170984E0
2.830094621E1,9.872936249E0,-4.172035694E0,-2.114656925E0
2.832594621E1,9.605986595E0,-4.959722996E0,3.788137436E-1
2.835094621E1,9.661021233E0,-4.690381050E0,-1.207328558E0
2.837594621E1,9.452695847E0,-3.201297522E0,-3.056681395E0
2.840094621E1,8.428119659E0,-2.242373943E0,-2.625823736E0
2.842594621E1,8.097610474E0,-4.241278172E-1,-3.117698431E0
2.845094621E1,1.026072216E1,3.223281622E0,-9.774680734E-1
2.847594621E1,1.340773296E1,-3.393919706E0,4.059722900E0
2.850094621E1,1.995210266E1,-7.948807240E0,-8.457132578E-1
2.852594621E1,8.296364784E0,2.094467640E0,-5.388636589E0
2.855094621E1,6.194419384E0,1.241187000E1,-3.790530205E0
2.857594621E1,7.089784145E0,1.077547836E1,-3.676721573E0
2.860094621E1,1.248365498E1,2.913261652E0,-4.661966324E0
2.862594621E1,1.056834984E1,-3.906283081E-1,1.228714466E0
2.865094621E1,9.857382774E0,-1.329063416E0,5.204389244E-2
2.867594621E1,9.125926018E0,-6.946663260E-1,-3.238685369E0
2.870094621E1,8.771638870E0,1.221835017E0,-3.094966650E0
2.872594621E1,9.493373871E0,2.294118702E-1,-1.210917830E0
2.875094621E1,9.656235695E0,7.561319470E-1,-1.753191233E0
2.877594621E1,9.325876236E0,1.722234130E0,-2.817249537E0
2.880094621E1,9.345019341E0,9.847960472E-1,-2.547907352E0
2.882594621E1,9.190532684E0,6.903293133E-1,-2.418694973E0
2.885094621E1,9.547362328E0,3.635594845E-1,-2.168495417E0
2.887594621E1,8.959625244E0,3.320041299E-2,-1.279113293E0
2.890094621E1,8.466404915E0,7.920243144E-1,-1.933849335E0
2.892594621E1,8.983553886E0,2.241775751E0,-2.079961061E0
2.895094621E1,9.111569405E0,2.873780012E0,-2.196012974E0
2.897594621E1,9.564111710E0,2.445165634E0,-2.268994093E0
2.900094621E1,9.892078400E0,2.441576481E0,-1.899153471E0
2.902594621E1,9.521040916E0,1.439731479E0,-1.878814459E0
2.905094621E1,9.732806206E0,3.408276737E-1,-1.748405576E0
2.907594621E1,9.547362328E0,-1.823031753E-1,-1.654935956E0
2.910094621E1,9.536594391E0,2.546860576E-1,-1.920688868E0
2.912594621E1,9.055337906E0,1.037886813E-1,-2.125424623E0
2.915094621E1,9.003892899E0,-1.766052604E0,-1.748405576E0
2.917594621E1,9.664610863E0,-2.909223795E0,-7.260721326E-1
2.920094621E1,1.179302597E1,-3.350848913E0,-9.786644578E-1
2.922594621E1,1.303310680E1,-5.157280445E0,-5.213362575E-1
2.925094621E1,1.237717438E1,-3.957878113E0,-5.859424472E-1
2.927594621E1,1.169477081E1,-7.628617883E-1,-2.480908394E0
2.930094621E1,1.464796257E1,1.658824325E0,-5.589633465E0
2.932594621E1,1.262617779E1,5.338536739E0,-5.128865719E0
2.935094621E1,1.073599720E1,3.077319384E0,-5.776423454E0
2.937594621E1,9.665806770E0,4.958975315E0,-3.869493246E0
2.940094621E1,7.865507126E0,5.160121918E0,-5.136044025E0
2.942594621E1,8.206633568E0,5.236692429E0,-4.865505695E0
2.945094621E1,7.336394310E0,4.535296440E0,-5.468796253E0
2.947594621E1,7.937291622E0,4.741228580E0,-5.684299946E0
2.950094621E1,8.541778564E0,5.040481091E0,-4.553092957E0
2.952594621E1,7.300501823E0,4.786692142E0,-4.913362026E0
2.955094621E1,7.982755661E0,4.086342812E0,-2.333749771E0
2.957594621E1,8.764460564E0,3.285495043E0,-1.885843277E-1
2.960094621E1,8.514261246E0,2.982653379E0,3.955634832E-1
2.962594621E1,8.249704361E0,1.577318788E0,-2.747259438E-1
2.965094621E1,8.879316330E0,9.895817041E-1,-1.009771109E0
2.967594621E1,8.444869041E0,1.056580782E0,-2.412713051E0
2.970094621E1,8.065307617E0,-4.169493318E-1,-3.047110081E0
2.972594621E1,9.109176636E0,-3.004936695E0,-2.210369825E0
2.975094621E1,1.053245735E1,-4.892724037E0,-3.598206937E-1
2.977594621E1,1.106276703E1,-7.085746288E0,-1.079162955E0
2.980094621E1,1.080897808E1,-6.117250919E0,-2.123031855E0
2.982594621E1,9.451499939E0,-4.009324074E0,-2.461765766E0
2.985094621E1,8.673533440E0,-1.680957913E0,-2.589931488E0
2.987594621E1,8.262865067E0,2.228615284E0,-3.006432056E0
2.990094621E1,1.084128094E1,4.030111313E0,2.101346970E0
2.992594621E1,1.355982685E1,-5.087888718E0,4.792375088E0
2.995094621E1,1.950793457E1,-3.458675623E0,-4.836791992E0
2.997594621E1,7.123283386E0,6.412166595E0,-4.636841774E0
3.000094621E1,4.584349155E0,1.033848953E1,-5.073681355E0
3.002594621E1,9.908827782E0,6.387042046E0,-4.714608192E0
3.005094621E1,1.225379467E1,3.671038628E0,-2.292922258E0
3.007594621E1,9.828668594E0,6.939185858E-1,6.984050870E-1
3.010094621E1,9.414411545E0,-8.310571909E-1,-1.122233868E0
3.012594621E1,9.274431229E0,1.944916129E0,-3.068645477E0
3.015094621E1,8.577671051E0,3.284298658E0,-3.540330648E0
3.017594621E1,9.499356270E0,4.042374790E-1,-2.096710920E0
3.020094621E1,9.301948547E0,-6.744768471E-2,-1.577169180E0
3.022594621E1,9.013463974E0,1.393071413E0,-3.054288626E0
3.025094621E1,9.315109253E0,9.381360412E-1,-2.485694170E0
3.027594621E1,9.218050003E0,5.611169338E-1,-1.900349855E0
3.030094621E1,9.141479492E0,3.085245788E-1,-2.124228239E0
3.032594621E1,9.201300621E0,6.687939167E-1,-1.907528281E0
3.035094621E1,9.321090698E0,1.918445587E0,-2.339731932E0
3.037594621E1,9.188139915E0,1.765304923E0,-2.412713051E0
3.040094621E1,9.093623161E0,1.276870012E0,-2.144567251E0
3.042594621E1,9.109176636E0,5.095216632E-1,-2.343321085E0
3.045094621E1,8.987142563E0,-4.432703853E-1,-2.452194452E0
3.047594621E1,8.718997002E0,7.028916478E-2,-2.556282282E0
3.050094621E1,8.829067230E0,7.752745152E-1,-3.534348488E0
3.052594621E1,9.609575272E0,6.364908218E-1,-2.775375128E0
3.055094621E1,1.083051395E1,-1.787139475E-1,-2.989682436E0
3.057594621E1,1.192223835E1,-2.638685226E0,-1.929063678E0
3.060094621E1,1.174023438E1,-4.895116806E0,-1.084247753E-1
3.062594621E1,1.129741287E1,-4.014109612E0,2.027169466E0
3.065094621E1,1.047861862E1,1.268495083E0,1.385593891E0
3.067594621E1,1.163495064E1,5.084748268E0,-1.147358418E0
3.070094621E1,1.275778294E1,5.294120312E0,-8.997012973E-1
3.072594621E1,1.210304642E1,5.440231800E0,-1.073180914E0
3.075094621E1,1.145653534E1,3.801447392E0,-2.543869615E-1
3.077594621E1,1.015783119E1,3.691377640E0,-4.076771438E-1
3.080094621E1,9.318697929E0,3.627967834E0,-2.603690028E-1
3.082594621E1,7.955237865E0,3.629164219E0,-1.337737441E0
3.085094621E1,8.969196320E0,3.274727345E0,-2.398355961E0
3.087594621E1,8.874530792E0,4.383202553E0,-2.393570423E0
3.090094621E1,7.694270611E0,4.343720913E0,-2.227119684E0
3.092594621E1,8.115706444E0,5.014010429E0,-3.193221807E0
3.095094621E1,7.906185150E0,2.629562616E0,-2.320589304E0
3.097594621E1,8.127670288E0,2.151895285E0,-1.192971587E0
3.100094621E1,8.458029747E0,9.225826859E-1,-8.612666130E-1
3.102594621E1,7.709824085E0,7.268198580E-2,-1.785494328E0
3.105094621E1,7.260870934E0,-3.571287692E-1,-1.468295813E0
3.107594621E1,8.180313110E0,-1.640279889E0,-1.838136435E0
3.110094621E1,8.768050194E0,-2.784647465E0,-1.732702732E0
3.112594621E1,9.339036942E0,-3.994966984E0,-7.452147007E-1
3.115094621E1,1.007767200E1,-6.472734928E0,-7.428218722E-1
3.117594621E1,1.074915791E1,-6.429664135E0,-1.573580027E0
3.120094621E1,9.914810181E0,-4.297808647E0,-1.555633783E0
3.122594621E1,9.012267113E0,-2.693720102E0,-2.118246317E0
3.125094621E1,8.292775154E0,-5.234299302E-1,-2.688037157E0
3.127594621E1,1.105439186E1,4.872833729E0,-5.548357368E-1
3.130094621E1,1.177029419E1,-1.804337859E0,2.685494661E0
3.132594621E1,1.608201218E1,-7.260422230E0,-4.027569294E0
3.135094621E1,1.282478142E1,-5.892325640E-1,-2.105085611E0
3.137594621E1,7.014410019E0,5.784947872E0,-2.048854351E0
3.140094621E1,6.036343575E0,6.043522358E0,-4.887041092E0
3.142594621E1,1.310848045E1,3.965505362E0,-2.231905222E0
3.145094621E1,1.031456089E1,3.418446302E0,-6.291627884E-1
3.147594621E1,8.785996437E0,4.508975148E-1,-3.561866045E0
3.150094621E1,9.832258224E0,1.037886813E-1,-4.948058128E0
3.152594621E1,9.825078964E0,1.857428551E0,-2.903540611E0
3.155094621E1,8.384899139E0,1.639532208E0,-2.348106861E0
3.157594621E1,8.904440880E0,2.138585299E-1,-2.977718115E0
3.160094621E1,9.109176636E0,-1.478764415E0,-2.136192322E0
3.162594621E1,9.024231911E0,2.234298140E-1,-3.055485010E0
3.165094621E1,8.720193863E0,1.096211910E0,-3.117698431E0
3.167594621E1,8.746514320E0,3.480061293E-1,-2.299053907E0
3.170094621E1,9.316305161E0,1.044616580E0,-2.465355158E0
3.172594621E1,9.293573380E0,1.156032443E0,-1.791476369E0
3.175094621E1,8.978767395E0,2.738286555E-1,-2.501247406E0
3.177594621E1,9.045766830E0,1.075723290E0,-2.476122856E0
3.180094621E1,9.849007607E0,1.509123325E0,-2.311017990E0
3.182594621E1,9.588040352E0,1.613211155E0,-2.770589590E0
3.185094621E1,8.687890053E0,1.428963780E0,-2.708376169E0
3.187594621E1,8.681908607E0,7.788637877E-1,-2.631805897E0
3.190094621E1,8.404191017E0,-4.839483798E-1,-2.582752943E0
3.192594621E1,9.973434448E0,-1.511067510E0,-2.437837601E0
3.195094621E1,1.341251850E1,-2.233999014E0,-1.159322619E0
3.197594621E1,1.031216812E1,-1.100399256E0,-6.794120669E-1
3.200094621E1,1.034327507E1,-3.343969584E-1,-1.022931695E0
3.202594621E1,1.126391315E1,3.085245788E-1,2.991028363E-3
3.205094621E1,9.226425171E0,2.045414686E0,-4.363910258E-1
3.207594621E1,9.772287369E0,5.419892788E0,-1.598704606E-1
3.210094621E1,9.015856743E0,7.851150036E0,-1.623829246E0
3.212594621E1,9.635896683E0,8.038987160E0,-1.778315902E0
3.215094621E1,9.407232285E0,4.656133652E0,-6.830013394E-1
3.217594621E1,9.019445419E0,2.531456709E0,-9.954141974E-1
3.220094621E1,8.278418541E0,1.454088449E0,-1.589133382E0
3.222594621E1,8.956035614E0,4.891826808E-1,-5.428716540E-1
3.225094621E1,9.835846901E0,-1.284646690E-1,-1.077966571E0
3.227594621E1,8.758478165E0,1.026670456E0,-9.885348380E-2
3.230094621E1,8.334650040E0,1.717448473E0,-4.423730969E-1
3.232594621E1,8.490332603E0,2.075325012E0,-1.708774447E0
3.235094621E1,8.138438225E0,1.973630071E0,-1.087537885E0
3.237594621E1,8.815906525E0,2.268096685E0,-1.537687659E0
3.240094621E1,9.418000221E0,1.574925900E0,-5.249254704E-1
3.242594621E1,1.045469093E1,-5.581258535E-1,-7.906783223E-1
3.245094621E1,1.141346455E1,1.688734531E0,-6.865905523E-1
3.247594621E1,1.050135040E1,3.449553013E0,7.534400225E-1
3.250094621E1,1.033729267E1,4.305585325E-1,-8.732306957E-1
3.252594621E1,1.040324497E1,2.788834810E0,-1.620239973E0
3.255094621E1,8.791977882E0,2.793620348E0,-2.422284365E0
3.257594621E1,9.086444855E0,1.662413478E0,-2.235494614E0
3.260094621E1,9.554540634E0,6.927221417E-1,-1.197757244E0
3.262594621E1,9.959077835E0,-1.224826127E-1,-8.146065474E-1
3.265094621E1,9.676574707E0,3.695415556E-1,-1.091127157E0
3.267594621E1,9.536594391E0,9.345467687E-1,-1.724327803E0
3.270094621E1,9.534201622E0,1.476820230E0,-2.091925144E0
3.272594621E1,9.394072533E0,2.153091669E0,-1.918295979E0
3.275094621E1,9.560523033E0,1.725823283E0,-1.757976890E0
3.277594621E1,9.580862045E0,1.182353497E0,-1.158126116E0
3.280094621E1,9.419197083E0,1.536640763E0,-1.365254879E0
3.282594621E1,9.549755096E0,1.664806366E0,-1.605883121E0
3.285094621E1,9.457482338E0,1.645514250E0,-1.676471353E0
3.287594621E1,9.342626572E0,1.207478166E0,-1.766351819E0
3.290094621E1,9.458678246E0,1.498355627E0,-1.591526151E0
3.292594621E1,9.407232285E0,1.719841242E0,-1.674078584E0
3.295094621E1,9.579665184E0,1.521087408E0,-1.622632861E0
3.297594621E1,9.391679764E0,1.753340840E0,-1.402343631E0
3.300094621E1,9.412018776E0,1.902892232E0,-1.536491275E0
3.302594621E1,9.508927345E0,1.935344815E0,-1.702792406E0
3.305094621E1,9.428768158E0,1.768894196E0,-1.632204175E0
3.307594621E1,9.450303078E0,1.835893154E0,-1.559223056E0
3.310094621E1,9.395268440E0,1.686341763E0,-1.449003696E0
3.312594621E1,9.626325607E0,1.497159243E0,-1.602293849E0
3.315094621E1,9.484999657E0,1.549801350E0,-1.574776411E0
3.317594621E1,9.510124207E0,1.645514250E0,-1.587936878E0
3.320094621E1,9.549755096E0,1.631157279E0,-1.534098387E0
3.322594621E1,9.366554260E0,1.634746552E0,-1.384397507E0
3.325094621E1,9.490981102E0,1.609621882E0,-1.550848126E0
3.327594621E1,9.558130264E0,1.662413478E0,-1.619043589E0
3.330094621E1,9.479017258E0,1.657627940E0,-1.528116345E0
3.332594621E1,9.590433121E0,1.833500385E0,-1.665703654E0
3.335094621E1,9.487392426E0,1.821536183E0,-1.575972795E0
3.337594621E1,9.404839516E0,1.595264912E0,-1.451396465E0
3.340094621E1,9.626325607E0,1.747358680E0,-1.553241014E0
3.342594621E1,9.429964066E0,1.850250125E0,-1.555633783E0
3.345094621E1,9.480214119E0,1.680359721E0,-1.628614902E0
3.347594621E1,9.407232285E0,1.522283912E0,-1.540080428E0
3.350094621E1,9.457482338E0,1.588086486E0,-1.520937920E0
3.352594621E1,9.490981102E0,1.851446509E0,-1.583151340E0
3.355094621E1,9.477821350E0,1.749751568E0,-1.605883121E0
3.357594621E1,9.367751122E0,1.584497213E0,-1.486241937E0
3.360094621E1,9.468249321E0,1.556979775E0,-1.595115423E0
3.362594621E1,9.266056061E0,1.433749437E0,-1.592722535E0
3.365094621E1,9.550951958E0,1.675574064E0,-1.566401482E0
3.367594621E1,9.432356834E0,1.918445587E0,-1.507777333E0
3.370094621E1,9.426375389E0,1.990379810E0,-1.536491275E0
3.372594621E1,9.433553696E0,2.003540277E0,-1.523330688E0
3.375094621E1,9.474231720E0,2.020290136E0,-1.499402523E0
3.377594621E1,9.488588333E0,1.948505402E0,-1.656132340E0
3.380094621E1,9.355787277E0,1.798804402E0,-1.486241937E0
3.382594621E1,9.433553696E0,1.919641972E0,-1.469492197E0
3.385094621E1,9.534201622E0,1.722234130E0,-1.469492197E0
3.387594621E1,9.307930946E0,1.910070658E0,-1.310220003E0
3.390094621E1,9.408429146E0,1.849053741E0,-1.568794370E0
3.392594621E1,9.589237213E0,1.978415728E0,-1.540080428E0
3.395094621E1,9.336644173E0,1.828714728E0,-1.382004619E0
3.397594621E1,9.501749039E0,1.925624013E0,-1.501795292E0
3.400094621E1,9.530612946E0,1.866999865E0,-1.476670623E0
3.402594621E1,9.510124207E0,1.660020709E0,-1.479063511E0
3.405094621E1,9.353394508E0,1.701895118E0,-1.396361589E0
3.407594621E1,9.492177963E0,1.717448473E0,-1.456182122E0
3.410094621E1,9.423982620E0,1.616800308E0,-1.401147246E0
3.412594621E1,9.451499939E0,1.560569048E0,-1.530509233E0
3.415094621E1,9.614361763E0,1.874178290E0,-1.548455358E0
3.417594621E1,9.495766640E0,2.066950083E0,-1.504188180E0
3.420094621E1,9.500553131E0,1.704287887E0,-1.522134304E0
3.422594621E1,9.348608971E0,1.454088449E0,-1.379611850E0
3.425094621E1,9.469446182E0,1.710269928E0,-1.410718441E0
3.427594621E1,9.585647583E0,1.405035496E0,-1.532902002E0
3.430094621E1,9.510124207E0,1.480409503E0,-1.385593891E0
3.432594621E1,9.304341316E0,1.517498255E0,-1.347308755E0
3.435094621E1,9.477821350E0,1.585693598E0,-1.474277854E0
3.437594621E1,9.749555588E0,1.853839397E0,-1.467099428E0
3.440094621E1,9.327073097E0,1.764108539E0,-1.349701524E0
3.442594621E1,9.435946465E0,1.849053741E0,-1.444218040E0
3.445094621E1,9.518648148E0,1.634746552E0,-1.458724499E0
3.447594621E1,9.507731438E0,1.585693598E0,-1.444218040E0
3.450094621E1,9.507731438E0,1.445713520E0,-1.467099428E0
3.452594621E1,9.471838951E0,1.480409503E0,-1.520937920E0
3.455094621E1,9.494570732E0,1.619193196E0,-1.415504098E0
3.457594621E1,9.533005714E0,1.722234130E0,-1.413111329E0
3.460094621E1,9.443124771E0,1.920838356E0,-1.407129288E0
3.462594621E1,9.463463783E0,1.859821439E0,-1.402343631E0
3.465094621E1,9.627521515E0,1.919641972E0,-1.488634825E0
3.467594621E1,9.572486877E0,2.015504360E0,-1.467099428E0
3.470094621E1,9.477821350E0,1.790429592E0,-1.491027594E0
3.472594621E1,9.608379364E0,1.895713687E0,-1.377218962E0
3.475094621E1,9.496963501E0,1.834696770E0,-1.310220003E0
3.477594621E1,9.474231720E0,1.760519266E0,-1.404736400E0
3.480094621E1,9.577272415E0,1.780858278E0,-1.346112251E0
3.482594621E1,9.531808853E0,1.991576195E0,-1.514955878E0
3.485094621E1,9.377322197E0,2.017897129E0,-1.374826193E0
3.487594621E1,9.384500504E0,2.034646988E0,-1.325773239E0
3.490094621E1,9.564111710E0,2.167448759E0,-1.348505139E0
3.492594621E1,9.438339233E0,2.157877445E0,-1.300648689E0
3.495094621E1,9.413214684E0,2.034646988E0,-1.323380470E0
3.497594621E1,9.390482903E0,2.040629148E0,-1.295863032E0
3.500094621E1,9.452695847E0,2.160270214E0,-1.289880991E0
3.502594621E1,9.439536095E0,2.043021917E0,-1.297059417E0
3.505094621E1,9.203693390E0,1.984397769E0,-1.344915867E0
3.507594621E1,9.312716484E0,2.173430681E0,-1.297059417E0
3.510094621E1,9.440732002E0,2.231008053E0,-1.352094293E0
3.512594621E1,9.429964066E0,2.247757673E0,-1.310220003E0
3.515094621E1,9.366554260E0,2.376970291E0,-1.251595736E0
3.517594621E1,9.418000221E0,2.320738792E0,-1.352094293E0
3.520094621E1,9.361768723E0,2.163859367E0,-1.301845074E0
3.522594621E1,9.388090134E0,2.066950083E0,-1.286291718E0
3.525094621E1,9.354590416E0,1.916052699E0,-1.318594813E0
3.527594621E1,9.412018776E0,2.086092710E0,-1.365254879E0
3.530094621E1,9.461071014E0,2.063360929E0,-1.382004619E0
3.532594621E1,9.398858070E0,1.985594153E0,-1.376022577E0
3.535094621E1,9.467053413E0,2.010718822E0,-1.410718441E0
3.537594621E1,9.425178528E0,1.977219224E0,-1.389183044E0
3.540094621E1,9.373733521E0,2.052593231E0,-1.402343631E0
3.542594621E1,9.504141808E0,2.083699942E0,-1.433450341E0
3.545094621E1,9.441928864E0,2.196162462E0,-1.404736400E0
3.547594621E1,9.461071014E0,2.274078846E0,-1.526919961E0
3.550094621E1,9.507731438E0,2.069342852E0,-1.391575933E0
3.552594621E1,9.345019341E0,1.952094674E0,-1.410718441E0
3.555094621E1,9.392875671E0,1.944916129E0,-1.486241937E0
3.557594621E1,9.508927345E0,2.038236141E0,-1.534098387E0
3.560094621E1,9.385697365E0,1.962862372E0,-1.465902925E0
3.562594621E1,9.415607452E0,1.896910191E0,-1.476670623E0
3.565094621E1,9.409625053E0,1.932802439E0,-1.416700602E0
3.567594621E1,9.457482338E0,1.992772579E0,-1.502991676E0
3.570094621E1,9.438339233E0,1.797608018E0,-1.482652783E0
3.572594621E1,9.353394508E0,1.882553220E0,-1.446610808E0
3.575094621E1,9.473034859E0,1.990379810E0,-1.540080428E0
3.577594621E1,9.426375389E0,2.078914165E0,-1.470688581E0
3.580094621E1,9.444321632E0,2.045414686E0,-1.415504098E0
3.582594621E1,9.388090134E0,1.961665869E0,-1.422682643E0
3.585094621E1,9.403643608E0,1.959273100E0,-1.516152263E0
3.587594621E1,9.465856552E0,1.980808496E0,-1.518545032E0
3.590094621E1,9.440732002E0,1.871785522E0,-1.456182122E0
3.592594621E1,9.400053978E0,1.959273100E0,-1.487438321E0
3.595094621E1,9.486195564E0,1.916052699E0,-1.498206019E0
3.597594621E1,9.540184021E0,1.847857237E0,-1.514955878E0
3.600094621E1,9.483802795E0,2.051396847E0,-1.385593891E0
3.602594621E1,9.415607452E0,1.928016901E0,-1.546062589E0
3.605094621E1,9.425178528E0,1.942523360E0,-1.528116345E0
3.607594621E1,9.410821915E0,1.877767563E0,-1.457528114E0
3.610094621E1,9.415607452E0,1.841875196E0,-1.379611850E0
3.612594621E1,9.487392426E0,1.828714728E0,-1.494616866E0
3.615094621E1,9.473034859E0,1.868196249E0,-1.479063511E0
3.617594621E1,9.440732002E0,2.021486521E0,-1.501795292E0
3.620094621E1,9.434750557E0,2.032254219E0,-1.464706540E0
3.622594621E1,9.316305161E0,2.131556273E0,-1.397557974E0
3.625094621E1,9.441928864E0,1.995165467E0,-1.506580949E0
3.627594621E1,9.484999657E0,1.895713687E0,-1.465902925E0
3.630094621E1,9.476624489E0,1.862214208E0,-1.479063511E0
3.632594621E1,9.451499939E0,1.838286042E0,-1.578365684E0
3.635094621E1,9.449107170E0,1.887338877E0,-1.499402523E0
3.637594621E1,9.457482338E0,1.874178290E0,-1.446610808E0
3.640094621E1,9.455089569E0,2.026272058E0,-1.456182122E0
3.642594621E1,9.492177963E0,2.060968161E0,-1.474277854E0
3.645094621E1,9.474231720E0,2.010718822E0,-1.470688581E0
3.647594621E1,9.426375389E0,1.902892232E0,-1.426271796E0
3.650094621E1,9.494570732E0,1.821536183E0,-1.480259895E0
3.652594621E1,9.486195564E0,1.821536183E0,-1.393968701E0
3.655094621E1,9.483802795E0,1.868196249E0,-1.423879027E0
3.657594621E1,9.408429146E0,1.955683827E0,-1.367647648E0
3.660094621E1,9.441928864E0,1.964058757E0,-1.435843110E0
3.662594621E1,9.502945900E0,2.051396847E0,-1.385593891E0
3.665094621E1,9.379714966E0,1.993968964E0,-1.453789353E0
3.667594621E1,9.413214684E0,2.029861450E0,-1.454985738E0
3.670094621E1,9.421589851E0,1.948505402E0,-1.328166127E0
3.672594621E1,9.419197083E0,1.876571178E0,-1.359272838E0
3.675094621E1,9.439536095E0,1.900499344E0,-1.385593891E0
3.677594621E1,9.445517540E0,2.050200462E0,-1.434646726E0
3.680094621E1,9.402446747E0,2.019093752E0,-1.464706540E0
3.682594621E1,9.389286041E0,1.974826455E0,-1.497009635E0
3.685094621E1,9.480214119E0,1.973630071E0,-1.475474238E0
3.687594621E1,9.441928864E0,1.911267042E0,-1.423879027E0
3.690094621E1,9.469446182E0,1.841875196E0,-1.453789353E0
3.692594621E1,9.476624489E0,1.954487443E0,-1.464706540E0
3.695094621E1,9.439536095E0,1.877767563E0,-1.449003696E0
3.697594621E1,9.446714401E0,1.878963947E0,-1.449003696E0
3.700094621E1,9.423982620E0,1.965255141E0,-1.396361589E0
3.702594621E1,9.459875107E0,2.028665066E0,-1.440628767E0
3.705094621E1,9.452695847E0,2.119592190E0,-1.437039495E0
3.707594621E1,9.459875107E0,2.092074633E0,-1.437039495E0
3.710094621E1,9.402446747E0,2.040629148E0,-1.421486259E0
3.712594621E1,9.392875671E0,2.019093752E0,-1.440628767E0
3.715094621E1,9.455089569E0,2.080110550E0,-1.419093370E0
3.717594621E1,9.434750557E0,1.999951124E0,-1.417896986E0
3.720094621E1,9.392875671E0,2.035843372E0,-1.404736400E0
3.722594621E1,9.428768158E0,2.090878248E0,-1.475474238E0
3.725094621E1,9.410821915E0,2.064557314E0,-1.449003696E0
3.727594621E1,9.409625053E0,2.231008053E0,-1.401147246E0
3.730094621E1,9.376126289E0,2.177019835E0,-1.446610808E0
3.732594621E1,9.348608971E0,2.188984156E0,-1.440628767E0
3.735094621E1,9.406036377E0,2.105235338E0,-1.413111329E0
3.737594621E1,9.468249321E0,2.093271255E0,-1.385593891E0
3.740094621E1,9.358180046E0,2.138734818E0,-1.452592850E0
3.742594621E1,9.394072533E0,2.078914165E0,-1.482652783E0
3.745094621E1,9.386893272E0,2.119592190E0,-1.432253957E0
3.747594621E1,9.413214684E0,2.094467640E0,-1.407129288E0
3.750094621E1,9.409625053E0,2.062164545E0,-1.458724499E0
3.752594621E1,9.394072533E0,2.135145664E0,-1.450200081E0
3.755094621E1,9.521040916E0,2.100449562E0,-1.504188180E0
3.757594621E1,9.421589851E0,2.066950083E0,-1.428664684E0
3.760094621E1,9.346215248E0,2.037039757E0,-1.447807193E0
3.762594621E1,9.385697365E0,2.033450603E0,-1.495813251E0
3.765094621E1,9.471838951E0,2.081306934E0,-1.428664684E0
3.767594621E1,9.471838951E0,2.099253178E0,-1.501795292E0
3.770094621E1,9.389286041E0,1.980808496E0,-1.443021655E0
3.772594621E1,9.438339233E0,1.978415728E0,-1.501795292E0
3.775094621E1,9.414411545E0,1.922034740E0,-1.477867126E0
3.777594621E1,9.437143326E0,1.870589137E0,-1.499402523E0
3.780094621E1,9.423982620E0,1.972433567E0,-1.471885085E0
3.782594621E1,9.493373871E0,1.987986922E0,-1.437039495E0
3.785094621E1,9.439536095E0,1.979612112E0,-1.444218040E0
3.787594621E1,9.439536095E0,1.989183426E0,-1.492223978E0
3.790094621E1,9.445517540E0,2.008326054E0,-1.538884044E0
3.792594621E1,9.409625053E0,2.032254219E0,-1.434646726E0
3.795094621E1,9.438339233E0,1.979612112E0,-1.470688581E0
3.797594621E1,9.360572815E0,2.011915207E0,-1.473081470E0
3.800094621E1,9.480214119E0,1.901695848E0,-1.475474238E0
3.802594621E1,9.490981102E0,1.828714728E0,-1.507777333E0
3.805094621E1,9.459875107E0,1.782054663E0,-1.439432383E0
3.807594621E1,9.488588333E0,1.795215130E0,-1.536491275E0
3.810094621E1,9.431160927E0,2.017897129E0,-1.462313771E0
3.812594621E1,9.474231720E0,2.092074633E0,-1.568794370E0
3.815094621E1,9.362965584E0,2.047807455E0,-1.530509233E0
3.817594621E1,9.457482338E0,2.068146467E0,-1.461117268E0
3.820094621E1,9.443124771E0,1.993968964E0,-1.414307714E0
3.822594621E1,9.480214119E0,1.999951124E0,-1.401147246E0
3.825094621E1,9.435946465E0,1.916052699E0,-1.492223978E0
3.827594621E1,9.398858070E0,1.970040798E0,-1.524527073E0
3.830094621E1,9.463463783E0,1.947309017E0,-1.483849168E0
3.832594621E1,9.396465302E0,1.913659930E0,-1.483849168E0
3.835094621E1,9.541379929E0,1.980808496E0,-1.536491275E0
3.837594621E1,9.409625053E0,1.846660852E0,-1.514955878E0
3.840094621E1,9.429964066E0,1.983201265E0,-1.479063511E0
3.842594621E1,9.398858070E0,1.888535261E0,-1.552044630E0
3.845094621E1,9.389286041E0,1.967648029E0,-1.561615825E0
3.847594621E1,9.431160927E0,1.925624013E0,-1.480259895E0
3.850094621E1,9.489785194E0,1.890928149E0,-1.480259895E0
3.852594621E1,9.479017258E0,1.926820397E0,-1.457528114E0
3.855094621E1,9.474231720E0,1.978415728E0,-1.536491275E0
3.857594621E1,9.365358353E0,1.810768485E0,-1.542473316E0
3.860094621E1,9.421589851E0,1.802393675E0,-1.526919961E0
3.862594621E1,9.469446182E0,1.717448473E0,-1.525723577E0
3.865094621E1,9.471838951E0,1.817947030E0,-1.519741535E0
3.867594621E1,9.416804314E0,1.941326976E0,-1.495813251E0
3.870094621E1,9.434750557E0,2.089681864E0,-1.519741535E0
3.872594621E1,9.433553696E0,1.999951124E0,-1.578365684E0
3.875094621E1,9.443124771E0,2.003540277E0,-1.495813251E0
3.877594621E1,9.459875107E0,2.039432764E0,-1.471885085E0
3.880094621E1,9.368947983E0,1.940130472E0,-1.546062589E0
3.882594621E1,9.432356834E0,1.977219224E0,-1.519741535E0
3.885094621E1,9.475428581E0,1.887338877E0,-1.526919961E0
3.887594621E1,9.468249321E0,1.914856315E0,-1.505384564E0
3.890094621E1,9.404839516E0,1.906481385E0,-1.544866085E0
3.892594621E1,9.458678246E0,2.043021917E0,-1.525723577E0
3.895094621E1,9.427571297E0,1.942523360E0,-1.513759375E0
3.897594621E1,9.480214119E0,1.998754621E0,-1.556830287E0
3.900094621E1,9.409625053E0,2.033450603E0,-1.534098387E0
3.902594621E1,9.426375389E0,1.964058757E0,-1.513759375E0
3.905094621E1,9.378519058E0,1.861017823E0,-1.526919961E0
3.907594621E1,9.435946465E0,1.919641972E0,-1.473081470E0
3.910094621E1,9.461071014E0,1.986790538E0,-1.603490233E0
3.912594621E1,9.443124771E0,2.093271255E0,-1.531705618E0
3.915094621E1,9.425178528E0,1.978415728E0,-1.547258973E0
3.917594621E1,9.359375954E0,2.020290136E0,-1.457528114E0
3.920094621E1,9.404839516E0,1.944916129E0,-1.592722535E0
3.922594621E1,9.517452240E0,1.901695848E0,-1.567597985E0
3.925094621E1,9.414411545E0,1.798804402E0,-1.520937920E0
3.927594621E1,9.464660645E0,1.768894196E0,-1.493420482E0
3.930094621E1,9.451499939E0,1.880160451E0,-1.508973837E0
3.932594621E1,9.431160927E0,1.930409670E0,-1.592722535E0
3.935094621E1,9.440732002E0,1.855035782E0,-1.620239973E0
3.937594621E1,9.432356834E0,1.926820397E0,-1.561615825E0
3.940094621E1,9.463463783E0,2.002343893E0,-1.518545032E0
3.942594621E1,9.412018776E0,1.931606054E0,-1.516152263E0
3.945094621E1,9.420392990E0,1.911267042E0,-1.611865163E0
3.947594621E1,9.444321632E0,1.856232166E0,-1.510170221E0
3.950094621E1,9.446714401E0,1.905285001E0,-1.572383523E0
3.952594621E1,9.438339233E0,1.912463546E0,-1.556830287E0
3.955094621E1,9.433553696E0,1.931606054E0,-1.476670623E0
3.957594621E1,9.445517540E0,1.998754621E0,-1.502991676E0
3.960094621E1,9.398858070E0,1.978415728E0,-1.514955878E0
3.962594621E1,9.484999657E0,2.023879290E0,-1.629811287E0
3.965094621E1,9.422785759E0,2.001147509E0,-1.607079506E0
3.967594621E1,9.431160927E0,1.974826455E0,-1.566401482E0
3.970094621E1,9.483802795E0,1.902892232E0,-1.492223978E0
3.972594621E1,9.429964066E0,1.893320918E0,-1.508973837E0
3.975094621E1,9.355787277E0,1.983201265E0,-1.575972795E0
3.977594621E1,9.470642090E0,2.029861450E0,-1.598704576E0
3.980094621E1,9.484999657E0,1.993968964E0,-1.518545032E0
3.982594621E1,9.379714966E0,1.970040798E0,-1.433450341E0
3.985094621E1,9.429964066E0,1.907677889E0,-1.441825151E0
3.987594621E1,9.494570732E0,2.080110550E0,-1.580758452E0
3.990094621E1,9.440732002E0,2.077717781E0,-1.504188180E0
3.992594621E1,9.282805443E0,2.009522438E0,-1.505384564E0
3.995094621E1,9.254092216E0,2.092074633E0,-1.370040536E0
3.997594621E1,9.368947983E0,2.197358847E0,-1.572383523E0
4.000094621E1,9.444321632E0,2.264507532E0,-1.616650820E0
4.002594621E1,9.343822479E0,2.236989975E0,-1.500598907E0
4.005094621E1,9.364161491E0,2.080110550E0,-1.544866085E0
4.007594621E1,9.486195564E0,2.111217260E0,-1.456182122E0
4.010094621E1,9.474231720E0,2.096860409E0,-1.416700602E0
4.012594621E1,9.337841034E0,2.089681864E0,-1.464706540E0
4.015094621E1,9.488588333E0,2.138734818E0,-1.514955878E0
4.017594621E1,9.359375954E0,1.978415728E0,-1.467099428E0
4.020094621E1,9.358180046E0,1.822732687E0,-1.350897908E0
4.022594621E1,9.347412109E0,2.028665066E0,-1.462313771E0
4.025094621E1,9.377322197E0,2.241775751E0,-1.485045552E0
4.027594621E1,9.462267876E0,2.228615284E0,-1.475474238E0
4.030094621E1,9.378519058E0,2.263311148E0,-1.492223978E0
4.032594621E1,9.337841034E0,2.214108706E0,-1.416700602E0
4.035094621E1,9.400053978E0,2.231008053E0,-1.529312730E0
4.037594621E1,9.438339233E0,2.106431723E0,-1.403540015E0
4.040094621E1,9.432356834E0,2.008326054E0,-1.417896986E0
4.042594621E1,9.428768158E0,2.064557314E0,-1.499402523E0
4.045094621E1,9.453892708E0,2.089681864E0,-1.423879027E0
4.047594621E1,9.391679764E0,2.096860409E0,-1.482652783E0
4.050094621E1,9.395268440E0,2.058575153E0,-1.463510156E0
4.052594621E1,9.416804314E0,2.076521397E0,-1.414307714E0
4.055094621E1,9.496963501E0,2.200948238E0,-1.370040536E0
4.057594621E1,9.319894791E0,2.171037912E0,-1.417896986E0
4.060094621E1,9.347412109E0,2.313560486E0,-1.461117268E0
4.062594621E1,9.440732002E0,2.351845503E0,-1.469492197E0
4.065094621E1,9.541379929E0,2.280060768E0,-1.435843110E0
4.067594621E1,9.479017258E0,1.974826455E0,-1.319791198E0
4.070094621E1,9.380911827E0,1.931606054E0,-1.419093370E0
4.072594621E1,9.346215248E0,2.159073830E0,-1.459920883E0
4.075094621E1,9.418000221E0,2.229811668E0,-1.449003696E0
4.077594621E1,9.356983185E0,2.434397936E0,-1.420289755E0
4.080094621E1,9.245717049E0,2.479861498E0,-1.386790276E0
4.082594621E1,9.222835541E0,2.439183474E0,-1.398754358E0
4.085094621E1,9.372536659E0,2.467897415E0,-1.386790276E0
4.087594621E1,9.433553696E0,2.493022203E0,-1.318594813E0
4.090094621E1,9.243324280E0,2.439183474E0,-1.423879027E0
4.092594621E1,9.267252922E0,2.453540564E0,-1.396361589E0
4.095094621E1,9.370143890E0,2.323131800E0,-1.451396465E0
4.097594621E1,9.333055496E0,2.374577284E0,-1.453789353E0
4.100094621E1,9.310323715E0,2.309971094E0,-1.422682643E0
4.102594621E1,9.406036377E0,2.221436739E0,-1.451396465E0
4.105094621E1,9.330662727E0,2.156681061E0,-1.338933825E0
4.107594621E1,9.423982620E0,2.166252136E0,-1.408325672E0
4.110094621E1,9.432356834E0,2.329113722E0,-1.468295813E0
4.112594621E1,9.319894791E0,2.272882462E0,-1.443021655E0
4.115094621E1,9.471838951E0,2.155484438E0,-1.452592850E0
4.117594621E1,9.403643608E0,2.100449562E0,-1.473081470E0
4.120094621E1,9.260073662E0,2.209323168E0,-1.422682643E0
4.122594621E1,9.346215248E0,2.403291225E0,-1.559223056E0
4.125094621E1,9.190532684E0,2.259721994E0,-1.464706540E0
4.127594621E1,9.133105278E0,1.900499344E0,-1.468295813E0
4.130094621E1,9.145069122E0,1.006331444E0,-1.559223056E0
4.132594621E1,9.437143326E0,1.875374764E-1,-1.508973837E0
4.135094621E1,9.644271851E0,-2.241775692E-1,-1.651346684E0
4.137594621E1,9.661021233E0,-6.755237579E-1,-1.536491275E0
4.140094621E1,9.681360245E0,-9.915258884E-1,-1.267149091E0
4.142594621E1,1.004521942E1,-1.064507008E0,-1.210917830E0
4.145094621E1,9.962666512E0,-1.489532113E0,-1.408325672E0
4.147594621E1,9.841829300E0,-1.485942841E0,-1.225274801E0
4.150094621E1,1.039367390E1,-3.535395563E-1,-1.125823021E0
4.152594621E1,1.090349483E1,8.123632669E-1,-1.106680512E0
4.155094621E1,1.062936687E1,2.608027220E0,-6.387341022E-1
4.157594621E1,9.851400375E0,4.703989983E0,-1.449003696E0
4.160094621E1,8.885297775E0,4.354488373E0,-2.561068058E0
4.162594621E1,9.140283585E0,1.847857237E0,-2.051247120E0
4.165094621E1,9.845417976E0,1.121635586E-1,-1.346112251E0
4.167594621E1,1.025234795E1,-1.763659835E0,-8.985049129E-1
4.170094621E1,9.751948357E0,-6.671488881E-1,-8.337491155E-1
4.172594621E1,1.020329475E1,-1.412812233E0,-3.177967668E-1
4.175094621E1,1.049776173E1,-1.045364380E0,1.956132501E-1
4.177594621E1,8.487939835E0,4.651348114E0,-4.483551383E-1
4.180094621E1,8.728568077E0,3.627967834E0,-1.335344553E0
4.182594621E1,9.105587006E0,4.473082721E-1,-2.280958176E0
4.185094621E1,1.002846909E1,2.174477577E-1,-7.834998369E-1
4.187594621E1,8.501100540E0,4.270739555E0,-1.061216831E0
4.190094621E1,7.998308659E0,9.588040352E0,-3.424278736E0
4.192594621E1,1.082333469E1,3.487838030E0,-2.477319241E0
4.195094621E1,1.372149181E1,-5.405087471E0,-1.215853021E-1
4.197594621E1,9.488588333E0,-3.840480328E0,-3.705884218E-1
4.200094621E1,8.467600822E0,1.737787485E0,-3.375076294E0
4.202594621E1,9.051749229E0,2.148306131E0,-3.656382561E0
4.205094621E1,9.090034485E0,1.099801064E0,-2.734697104E0
4.207594621E1,9.232556343E0,5.114658549E-2,-1.883600116E0
4.210094621E1,9.270841599E0,-2.923730314E-1,-2.161317110E0
4.212594621E1,9.797561646E0,-4.061816335E-1,-2.486890554E0
4.215094621E1,9.994969368E0,9.381360412E-1,-2.892772913E0
4.217594621E1,9.224032402E0,2.105235338E0,-2.959772110E0
4.220094621E1,9.347412109E0,2.295614243E0,-2.413909435E0
4.222594621E1,9.786644936E0,2.232204437E0,-2.161317110E0
4.225094621E1,9.346215248E0,2.309971094E0,-2.601895571E0
4.227594621E1,9.392875671E0,2.259721994E0,-2.510818720E0
4.230094621E1,8.989535332E0,1.948505402E0,-2.144567251E0
4.232594621E1,9.435946465E0,1.954487443E0,-2.036890268E0
4.235094621E1,9.149854660E0,2.647508621E0,-2.038086653E0
4.237594621E1,9.470642090E0,2.187787771E0,-2.488086939E0
4.240094621E1,9.809526443E0,1.800000787E0,-2.327767849E0
4.242594621E1,9.202496529E0,1.317547917E0,-2.480908394E0
4.245094621E1,8.922387123E0,9.967601895E-1,-2.535943270E0
4.247594621E1,9.306734085E0,1.194317579E0,-2.166102648E0
4.250094621E1,9.465856552E0,1.145264745E0,-1.952991962E0
4.252594621E1,9.021839142E0,1.675574064E0,-1.838136435E0
4.255094621E1,8.675926208E0,3.690181255E0,-2.206780672E0
4.257594621E1,9.498160362E0,3.674627781E0,-2.613859653E0
4.260094621E1,9.801151276E0,2.519492626E0,-2.274976015E0
4.262594621E1,1.034925747E1,1.590479255E0,-1.659721613E0
4.265094621E1,9.158229828E0,1.027866840E0,-1.249202967E0
4.267594621E1,8.478368759E0,7.106683254E-1,-8.660522699E-1
4.270094621E1,8.540582657E0,4.365405738E-1,-8.564809561E-1
4.272594621E1,8.723782539E0,2.330010980E-1,-3.825525343E-1
4.275094621E1,9.463463783E0,1.048205853E0,4.039383829E-1
4.277594621E1,9.735198975E0,1.944916129E0,-2.424228489E-1
4.280094621E1,9.627521515E0,1.535444379E0,-8.816055655E-1
4.282594621E1,9.793972969E0,1.462463260E0,-5.033900738E-1
4.285094621E1,9.700503349E0,3.144318581E0,-1.098305583E0
4.287594621E1,1.002129078E1,4.713561535E0,-2.771785975E0
4.290094621E1,1.074078274E1,3.606282711E0,-1.970938087E0
4.292594621E1,9.398858070E0,1.033848882E0,-1.055234790E0
4.295094621E1,9.768698692E0,1.400249958E0,-8.493024707E-1
4.297594621E1,1.000813007E1,4.999503791E-1,-1.501795292E0
4.300094621E1,1.027866840E1,1.935195327E-1,-1.232453227E0
4.302594621E1,9.888488770E0,3.539882004E-1,-3.681955934E-1
4.305094621E1,9.233753204E0,-1.119541883E0,-2.388336062E-1
4.307594621E1,1.131535912E1,-1.825873256E0,7.163512707E-1
4.310094621E1,1.091919708E1,-3.810569942E-1,7.378866673E-1
4.312594621E1,9.513862610E0,4.253990173E0,-1.897807419E-1
4.315094621E1,7.921738625E0,4.267150402E0,-1.620239973E0
4.317594621E1,9.151051521E0,1.888535261E0,-1.304237843E0
4.320094621E1,9.779465675E0,-1.667498350E-1,-5.249254704E-1
4.322594621E1,9.971041679E0,3.320041299E-2,-6.146563292E-1
4.325094621E1,9.589237213E0,2.734846830E0,-7.667500973E-1
4.327594621E1,8.763264656E0,1.735394597E0,-9.343972206E-1
4.330094621E1,9.529416084E0,2.654687166E0,-1.342523098E0
4.332594621E1,8.473583221E0,7.196264744E0,-2.573032141E0
4.335094621E1,8.812316895E0,4.457379818E0,-1.897956967E0
4.337594621E1,1.382438374E1,-4.423431873E0,7.809575200E-1
4.340094621E1,1.241306686E1,-6.086144447E0,2.008026838E0
4.342594621E1,8.272436142E0,2.467897415E0,-3.442224979E0
4.345094621E1,8.422137260E0,4.603491783E0,-4.232155323E0
4.347594621E1,9.368947983E0,1.694716692E0,-2.890380144E0
4.350094621E1,9.974630356E0,-2.744268477E-1,-2.765803814E0
4.352594621E1,9.315109253E0,-4.121637046E-1,-1.813011765E0
4.355094621E1,9.007481575E0,-6.743273139E-1,-2.233101845E0
4.357594621E1,9.858578682E0,-1.452144235E-1,-2.696412086E0
4.360094621E1,9.865756989E0,9.010472894E-1,-2.970539808E0
4.362594621E1,9.401250839E0,1.085294604E0,-2.654537678E0
4.365094621E1,9.032606125E0,1.619193196E0,-2.400748968E0
4.367594621E1,8.953642845E0,2.228615284E0,-2.650948286E0
4.370094621E1,9.121140480E0,2.366202593E0,-2.776571512E0
4.372594621E1,9.232556343E0,1.068544865E0,-2.217548370E0
4.375094621E1,9.171390533E0,7.202396393E-1,-1.703988791E0
4.377594621E1,9.546165466E0,2.102842331E0,-1.996062756E0
4.380094621E1,9.616754532E0,2.487040043E0,-1.858475447E0
4.382594621E1,8.891280174E0,2.568545580E0,-2.151745796E0
4.385094621E1,9.176176071E0,2.027468443E0,-2.957379341E0
4.387594621E1,9.037391663E0,1.689931035E0,-2.757428885E0
4.390094621E1,8.721389771E0,2.192573309E0,-2.467747927E0
4.392594621E1,9.163015366E0,2.762364149E0,-2.848356247E0
4.395094621E1,1.019133091E1,1.207478166E0,-2.816053152E0
4.397594621E1,1.026072216E1,3.420240879E-1,-2.090728760E0
4.400094621E1,9.704092026E0,2.798106968E-1,-1.777119517E0
4.402594621E1,9.359375954E0,-3.643072546E-1,-1.189382434E0
4.405094621E1,8.715407372E0,4.277170449E-2,-6.686443686E-1
4.407594621E1,9.268448830E0,6.041877270E-1,-1.227667570E0
4.410094621E1,1.049536896E1,-6.864409894E-2,-8.241778612E-1
4.412594621E1,1.025474072E1,-1.305135250E0,-1.191924810E-1
4.415094621E1,9.723235130E0,-1.004686356E0,9.055337906E-1
4.417594621E1,9.564111710E0,1.214656591E0,5.871388316E-1
4.420094621E1,9.647860527E0,3.376571894E0,-7.045367360E-1
4.422594621E1,1.039486980E1,3.324976683E0,-1.404736400E0
4.425094621E1,1.115130138E1,3.151496887E0,-1.936242223E0
4.427594621E1,1.076231766E1,4.742424965E0,-1.775923014E0
4.430094621E1,1.015424156E1,3.253191948E0,-2.290529490E0
4.432594621E1,9.695717812E0,2.072932243E0,-1.645364642E0
4.435094621E1,9.615557671E0,2.126770735E0,-1.252792239E0
4.437594621E1,9.191729546E0,2.569741964E0,-1.347308755E0
4.440094621E1,8.927172661E0,2.461915493E0,-1.181007504E0
4.442594621E1,9.024231911E0,2.342274189E0,-7.583752275E-1
4.445094621E1,8.960822105E0,2.563759804E0,2.854936421E-1
4.447594621E1,8.169545174E0,-5.047060966E0,-1.250399351E0
4.450094621E1,1.253151131E1,1.688734531E0,-1.055234790E0
4.452594621E1,7.883453369E0,8.066504478E0,-7.703393102E-1
4.455094621E1,7.301698208E0,1.278530025E1,-1.386790276E0
4.457594621E1,8.589634895E0,5.125426292E0,4.565804601E-1
4.460094621E1,1.329168129E1,-3.449104309E0,4.015455544E-1
4.462594621E1,1.304028511E1,-4.061965942E0,-1.779512286E0
4.465094621E1,1.064387321E1,1.027866840E0,-2.878416061E0
4.467594621E1,8.584849358E0,2.615205526E0,-1.713560104E0
4.470094621E1,7.928916931E0,3.641128302E0,-1.954188347E0
4.472594621E1,9.496963501E0,2.604437828E0,-2.519193649E0
4.475094621E1,1.040324497E1,-1.990529299E-1,-1.705185294E0
4.477594621E1,9.597611427E0,-1.880908132E0,-1.265952706E0
4.480094621E1,9.032606125E0,6.664010882E-1,-2.619841576E0
4.482594621E1,9.361768723E0,1.592872143E0,-2.696412086E0
4.485094621E1,9.088837624E0,1.483998656E0,-2.819642305E0
4.487594621E1,9.518648148E0,1.371386528E0,-2.738286495E0
4.490094621E1,9.455089569E0,8.699405789E-1,-2.495265245E0
4.492594621E1,8.892477036E0,7.010970116E-1,-2.771785975E0
4.495094621E1,9.001500130E0,1.106979609E0,-2.842374086E0
4.497594621E1,9.090034485E0,2.517099857E0,-2.506033182E0
4.500094621E1,9.176176071E0,2.617598534E0,-2.472533464E0
4.502594621E1,9.439536095E0,2.052593231E0,-1.870439529E0
4.505094621E1,9.397661209E0,3.179014444E0,-1.617847204E0
4.507594621E1,8.866155624E0,3.976273060E0,-2.017598152E0
4.510094621E1,1.041520882E1,2.821137905E0,-2.089532375E0
4.512594621E1,9.153444290E0,2.666651249E0,-2.366052866E0
4.515094621E1,8.554939270E0,1.782054663E0,-2.805285454E0
4.517594621E1,1.023081207E1,1.368993640E0,-2.808874607E0
4.520094621E1,9.284002304E0,2.833999395E-1,-2.810070992E0
4.522594621E1,9.327073097E0,-1.114756227E0,-2.140978098E0
4.525094621E1,9.272038460E0,-9.496514499E-2,-2.152942181E0
4.527594621E1,9.147461891E0,-1.979013920E0,-2.529961348E0
4.530094621E1,1.082692432E1,-3.913461447E0,-8.313563466E-1
4.532594621E1,1.185045433E1,-3.281457186E0,2.388336062E-1
4.535094621E1,1.160862923E1,6.041877270E-1,1.751845241E0
4.537594621E1,1.016022396E1,4.584349155E0,-5.871388316E-1
4.540094621E1,8.799156189E0,4.125824451E0,-1.182203889E0
4.542594621E1,8.750103951E0,4.301846504E0,-1.268345594E0
4.545094621E1,9.756733894E0,5.143372059E0,-1.198953748E0
4.547594621E1,9.446714401E0,4.765156746E0,-1.853689790E0
4.550094621E1,8.112117767E0,5.853143215E0,-2.295315027E0
4.552594621E1,7.764859200E0,3.497409344E0,-2.255833626E0
4.555094621E1,8.788389206E0,2.166252136E0,-6.734300256E-1
4.557594621E1,9.207282066E0,1.550997734E0,-5.608177781E-1
4.560094621E1,9.619147301E0,1.633550167E0,-1.772333860E0
4.562594621E1,1.004521942E1,3.503989577E-1,-1.654935956E0
4.565094621E1,1.078265667E1,-3.455086231E0,2.231307179E-1
4.567594621E1,1.148061371E1,-1.234546900E0,1.681257010E0
4.570094621E1,9.920792580E0,2.168645144E0,-9.646066278E-2
4.572594621E1,9.908827782E0,3.423231840E0,-1.528116345E0
4.575094621E1,8.947511673E0,3.929612875E0,-1.206132174E0
4.577594621E1,8.623134613E0,1.078116179E0,-1.968545318E0
4.580094621E1,1.057552814E1,-1.655833244E0,-6.530910134E-1
4.582594621E1,9.163015366E0,1.415803194E0,5.201398134E-1
4.585094621E1,7.751698494E0,-2.110170424E-1,-3.622135222E-1
4.587594621E1,1.114771175E1,-4.619792938E0,-2.962613404E-1
4.590094621E1,9.972237587E0,5.500052452E0,-2.164906263E0
4.592594621E1,7.499105930E0,1.762612915E1,-1.938634992E0
4.595094621E1,9.339036942E0,5.090730190E0,-2.562264442E0
4.597594621E1,1.333355522E1,-4.205535412E0,-2.667698145E0
4.600094621E1,1.294935799E1,-6.869046211E0,1.459771395E0
4.602594621E1,7.730163097E0,-1.403240919E0,-1.397557974E0
4.605094621E1,7.476374149E0,3.535694599E0,-3.591776371E0
4.607594621E1,8.937940598E0,1.037886813E-1,-3.534348488E0
4.610094621E1,9.429964066E0,-1.993520379E0,-1.967348814E0
4.612594621E1,9.510124207E0,7.268198580E-2,-2.609073877E0
4.615094621E1,9.644271851E0,1.191924810E0,-2.415105820E0
4.617594621E1,9.617950439E0,2.467897415E0,-2.385195494E0
4.620094621E1,9.127122879E0,2.704936504E0,-2.787339211E0
4.622594621E1,9.182157516E0,2.596062899E0,-2.882005215E0
4.625094621E1,9.676574707E0,2.464308262E0,-3.215953588E0
4.627594621E1,9.530612946E0,1.505534053E0,-2.490479708E0
4.630094621E1,9.452695847E0,1.292423368E0,-1.929063678E0
4.632594621E1,9.209674835E0,1.807179332E0,-2.198405743E0
4.635094621E1,9.829864502E0,1.706680775E0,-2.243869543E0
4.637594621E1,9.844222069E0,1.426570892E0,-1.927867293E0
4.640094621E1,9.519845009E0,1.252941728E0,-1.749601960E0
4.642594621E1,9.429964066E0,1.938934088E0,-1.666900039E0
4.645094621E1,8.511868477E0,1.524676681E0,-2.959772110E0
4.647594621E1,9.311519623E0,9.182456881E-2,-2.667698145E0
4.650094621E1,1.037094212E1,-6.001498103E-1,-2.445016146E0
4.652594621E1,1.054920769E1,-1.680957913E0,-1.896760583E0
4.655094621E1,1.027388287E1,-3.563959837E0,-1.933699846E-1
4.657594621E1,9.140283585E0,-1.958674908E0,5.044369102E-1
4.660094621E1,9.838239670E0,7.417750359E-1,-2.991028363E-3
4.662594621E1,9.494570732E0,3.230460167E0,-1.068395257E0
4.665094621E1,1.019252682E1,3.904488325E0,-9.080761671E-1
4.667594621E1,1.051092243E1,3.384946823E0,-9.032905698E-1
4.670094621E1,9.403643608E0,3.584747314E0,-1.554437399E0
4.672594621E1,8.571688652E0,3.554837227E0,-2.148156643E0
4.675094621E1,9.012267113E0,2.210519552E0,-1.441825151E0
4.677594621E1,9.652647018E0,2.488236427E0,-1.304237843E0
4.680094621E1,9.925578117E0,2.017897129E0,-1.103091240E0
4.682594621E1,9.441928864E0,2.215305090E0,-1.411914945E0
4.685094621E1,9.245717049E0,2.155484438E0,-1.740030766E0
4.687594621E1,9.149854660E0,8.328518271E-1,-1.299452305E0
4.690094621E1,9.777072906E0,2.618645430E-1,-4.878367186E-1
4.692594621E1,1.002368355E1,-2.744268477E-1,-1.622632891E-1
4.695094621E1,1.058270645E1,-1.581655741E0,7.857431173E-1
4.697594621E1,1.027747250E1,-1.726571083E0,1.015603662E0
4.700094621E1,8.713014603E0,2.319542408E0,2.027917206E-1
4.702594621E1,8.394619942E0,3.583550930E0,-1.349701524E0
4.705094621E1,9.546165466E0,1.995165467E0,-1.895564198E0
4.707594621E1,1.000932693E1,1.164407372E0,-9.738788009E-1
4.710094621E1,9.702896118E0,7.692924738E-1,-8.935697079E-1
4.712594621E1,1.039486980E1,3.484248877E0,-1.125823021E0
4.715094621E1,1.069890785E1,1.914856315E0,-8.648558259E-1
4.717594621E1,1.148300648E1,-2.727219582E0,-8.899804950E-1
4.720094621E1,9.744770050E0,1.791625917E-1,-4.007977992E-2
4.722594621E1,8.503493309E0,2.562563419E0,-1.902742624E0
4.725094621E1,9.398858070E0,1.653889060E0,-3.347558975E0
4.727594621E1,9.997362137E0,5.023431778E-1,-2.283350945E0
4.730094621E1,9.237341881E0,6.550352275E-2,-1.915903211E0
4.732594621E1,9.273234367E0,-1.165005490E-1,-1.974527359E0
4.735094621E1,8.989535332E0,-1.440180093E-1,-2.182852507E0
4.737594621E1,9.684949875E0,7.920243144E-1,-2.513211489E0
4.740094621E1,9.354590416E0,1.244566917E0,-2.841177702E0
4.742594621E1,9.341429710E0,4.700401127E-1,-2.895165920E0
4.745094621E1,9.433553696E0,-5.428716540E-2,-3.123680353E0
4.747594621E1,9.257680893E0,6.400800347E-1,-2.887987375E0
4.750094621E1,9.101998329E0,2.054986000E0,-2.787339211E0
4.752594621E1,9.414411545E0,2.016700745E0,-2.497658253E0
4.755094621E1,9.081659317E0,2.023879290E0,-1.981705785E0
4.757594621E1,9.080462456E0,1.829911113E0,-2.361267328E0
4.760094621E1,9.180961609E0,1.440927863E0,-2.333749771E0
4.762594621E1,9.455089569E0,2.675026178E0,-2.340928316E0
4.765094621E1,9.629914284E0,2.661865711E0,-2.404338121E0
4.767594621E1,9.481410027E0,1.764108539E0,-2.307428837E0
4.770094621E1,9.330662727E0,1.132104158E0,-2.009223223E0
4.772594621E1,9.090034485E0,1.367797256E0,-2.405534506E0
4.775094621E1,9.343822479E0,1.400249958E0,-2.088335991E0
4.777594621E1,8.983553886E0,2.567349195E0,-2.714358091E0
4.780094621E1,8.732157707E0,2.333899498E0,-2.769393206E0
4.782594621E1,9.799954414E0,1.999951124E0,-2.093121529E0
4.785094621E1,8.949904442E0,1.589282870E0,-2.328964233E0
4.787594621E1,8.629117012E0,7.968099117E-1,-2.363660097E0
4.790094621E1,1.038529873E1,2.482553571E-2,-1.994866371E0
4.792594621E1,9.273234367E0,-9.870393202E-3,-1.032503009E0
4.795094621E1,8.962018013E0,1.114158034E0,-7.057331204E-1
4.797594621E1,9.748359680E0,2.849851847E0,-6.925725937E-1
4.800094621E1,9.353394508E0,3.310619593E0,-8.122137189E-1
4.802594621E1,9.210871696E0,2.199751854E0,-1.203888878E-1
4.805094621E1,9.499356270E0,2.857030153E0,2.268694937E-1
4.807594621E1,1.001291561E1,3.577569008E0,-8.804091811E-1
4.810094621E1,9.233753204E0,4.938636303E0,-1.903939009E0
4.812594621E1,9.445517540E0,4.417898178E0,-2.077568293E0
4.815094621E1,9.245717049E0,2.369791746E0,-1.479063511E0
4.817594621E1,9.254092216E0,8.627620935E-1,-9.320043921E-1
4.820094621E1,9.736394882E0,2.054836452E-1,-1.393968701E0
4.822594621E1,1.026191902E1,-1.282403350E0,-1.270738363E0
4.825094621E1,1.137398338E1,3.791128397E-1,-1.136590727E-2
4.827594621E1,9.252895355E0,2.810370207E0,-1.048355401E-1
4.830094621E1,8.909226418E0,7.166503668E-1,-1.049252748E0
4.832594621E1,1.099337482E1,-9.137591720E-1,-4.519443810E-1
4.835094621E1,1.003923702E1,-6.180959940E-1,-3.058326542E-1
4.837594621E1,9.993773460E0,9.979565740E-1,-5.404788256E-1
4.840094621E1,9.700503349E0,1.705484390E0,-1.043270707E0
4.842594621E1,9.911220551E0,8.172984719E-1,-6.770192385E-1
4.845094621E1,9.857382774E0,1.456481218E0,-8.481060863E-1
4.847594621E1,8.812316895E0,2.804388046E0,-8.301599026E-1
4.850094621E1,9.027820587E0,3.350250721E0,-2.311017990E0
4.852594621E1,9.819097519E0,2.493022203E0,-1.653739572E0
4.855094621E1,9.215657234E0,3.897160292E0,-7.476075292E-1
4.857594621E1,7.848757267E0,3.872035742E0,-1.304237843E0
4.860094621E1,9.013463974E0,2.857927680E-1,-7.284649611E-1
4.862594621E1,1.159427261E1,-3.287439108E0,5.871388316E-1
4.865094621E1,9.553344727E0,6.735496521E0,-1.439432383E0
4.867594621E1,1.229327583E1,3.121137917E-1,-1.639382601E0
4.870094621E1,1.028584766E1,-8.621639013E-1,-2.240280151E0
4.872594621E1,8.248508453E0,1.002742290E0,-2.082353830E0
4.875094621E1,9.263663292E0,1.073779166E-1,-2.664108992E0
4.877594621E1,9.625128746E0,1.183549881E0,-3.050699234E0
4.880094621E1,9.785448074E0,-1.344467252E-1,-2.373231411E0
4.882594621E1,9.412018776E0,-2.421237379E-1,-2.010419607E0
4.885094621E1,9.498160362E0,-5.084747914E-3,-2.806481838E0
4.887594621E1,9.219246864E0,3.109173775E-1,-2.953789949E0
4.890094621E1,9.310323715E0,5.563312769E-1,-2.755036116E0
4.892594621E1,9.518648148E0,1.835893154E0,-2.810070992E0
4.895094621E1,9.353394508E0,1.619193196E0,-2.198405743E0
4.897594621E1,8.727372169E0,1.339083314E0,-2.066800594E0
4.900094621E1,8.941529274E0,1.920838356E0,-2.597109795E0
4.902594621E1,9.614361763E0,2.598455906E0,-2.746661186E0
4.905094621E1,9.572486877E0,2.455933332E0,-2.421087980E0
4.907594621E1,9.549755096E0,1.660020709E0,-1.668096542E0
4.910094621E1,9.159425735E0,1.828714728E0,-1.839332819E0
4.912594621E1,8.937940598E0,1.319940805E0,-2.411516666E0
4.915094621E1,8.994320869E0,1.327119231E0,-2.686840773E0
4.917594621E1,9.426375389E0,1.550997734E0,-2.865255594E0
4.920094621E1,9.239734650E0,2.002343893E0,-2.484497547E0
4.922594621E1,9.076873779E0,3.213710308E0,-2.366052866E0
4.925094621E1,1.114771175E1,3.070141077E0,-1.969741702E0
4.927594621E1,1.006675434E1,1.946112514E0,-7.105187774E-1
4.930094621E1,8.499904633E0,1.399053454E0,-4.028915167E-1
4.932594621E1,7.981558800E0,1.394267797E0,-8.756235242E-1
4.935094621E1,9.033802986E0,1.114158034E0,-8.564809561E-1
4.937594621E1,9.303144455E0,3.213710308E0,-6.626623273E-1
4.940094621E1,9.985398293E0,4.617848396E0,-1.552044630E0
4.942594621E1,8.906833649E0,3.667449474E0,-1.645364642E0
4.945094621E1,7.976773262E0,1.723430514E0,-8.217850327E-1
4.947594621E1,8.499904633E0,1.264905930E0,-4.124628007E-1
4.950094621E1,9.273234367E0,3.623182058E0,-1.546062589E0
4.952594621E1,9.974630356E0,2.957528830E0,-1.865653872E0
4.955094621E1,9.771091461E0,1.468594968E-1,-1.063609719E0
4.957594621E1,9.662218094E0,-7.257730365E-1,-6.146563292E-1
4.960094621E1,1.030259705E1,-1.311117291E0,-1.032503009E0
4.962594621E1,1.174382401E1,-2.381307125E0,-5.333003402E-1
4.965094621E1,1.176431274E1,7.082754970E-1,4.206881225E-1
4.967594621E1,9.317502022E0,2.350649118E0,1.573280841E-1
4.970094621E1,9.892078400E0,8.914759755E-1,-1.147358418E0
4.972594621E1,1.117642593E1,-5.548357591E-2,-1.006181955E0
4.975094621E1,9.844222069E0,1.364207983E0,-1.282702446E0
4.977594621E1,9.769894600E0,2.929712236E-1,-7.296613455E-1
4.980094621E1,1.035778141E1,3.192922771E-1,-3.741776347E-1
4.982594621E1,9.881310463E0,4.013361931E0,-7.763214111E-1
4.985094621E1,8.037790298E0,4.110270977E0,-7.500003576E-1
4.987594621E1,7.895417213E0,3.384348452E-1,-1.170090318E0
4.990094621E1,1.249083328E1,-7.556833029E-1,-7.009474635E-1
4.992594621E1,7.914559841E0,8.447261810E0,-1.192971587E0
4.995094621E1,7.136444092E0,1.160384369E1,-5.027021408E0
4.997594621E1,9.341429710E0,4.623830795E0,-2.062014818E0
5.000094621E1,1.428888988E1,-3.800998688E0,-3.849453330E-1
5.002594621E1,1.273505116E1,-4.465306282E0,1.174875975E0
5.005094621E1,9.576076508E0,1.104586720E0,-1.170090318E0
5.007594621E1,8.246115685E0,4.523332119E0,-3.502045393E0
5.010094621E1,8.951250076E0,2.829512835E0,-3.997658968E0
5.012594621E1,9.614361763E0,2.905783951E-1,-2.882005215E0
5.015094621E1,9.445517540E0,-1.542174220E0,-1.215703487E0
5.017594621E1,9.342626572E0,-1.141077280E0,-1.688435435E0
5.020094621E1,9.266056061E0,-3.643072546E-1,-2.109871387E0
5.022594621E1,9.404839516E0,-6.505486369E-2,-2.741875648E0
5.025094621E1,9.400053978E0,1.600050569E0,-2.859123945E0
5.027594621E1,9.219246864E0,1.869392633E0,-3.369094372E0
5.030094621E1,9.121140480E0,1.127318621E0,-2.743072033E0
5.032594621E1,9.476624489E0,1.712662816E0,-2.378016949E0
5.035094621E1,9.362965584E0,2.075325012E0,-1.901546240E0
5.037594621E1,9.195318222E0,2.053789616E0,-2.148156643E0
5.040094621E1,9.269645691E0,1.568943858E0,-2.383999109E0
5.042594621E1,9.493373871E0,1.940130472E0,-2.173281193E0
5.045094621E1,9.273234367E0,2.590080976E0,-2.194816589E0
5.047594621E1,8.623134613E0,2.049003839E0,-2.569442749E0
5.050094621E1,9.553344727E0,1.478016615E0,-2.383999109E0
5.052594621E1,9.926774025E0,1.835893154E0,-2.020140409E0
5.055094621E1,9.088837624E0,1.716252089E0,-2.133799553E0
5.057594621E1,9.254092216E0,1.512712598E0,-2.181656122E0
5.060094621E1,9.695717812E0,1.771286964E0,-2.450998068E0
5.062594621E1,9.124730110E0,1.346261859E0,-2.411516666E0
5.065094621E1,9.171390533E0,1.176371455E0,-2.375624180E0
5.067594621E1,9.883703232E0,1.513908982E0,-2.260619164E0
5.070094621E1,7.609325409E0,-5.309075117E-2,-2.041675806E0
5.072594621E1,9.858578682E0,1.671984792E-1,-1.497009635E0
5.075094621E1,1.339457226E1,7.070791125E-1,-8.122137189E-1
5.077594621E1,1.020688438E1,1.731805354E-1,2.436192483E-1
5.080094621E1,9.096015930E0,4.365405738E-1,5.979065299E-1
5.082594621E1,9.018249512E0,2.046611071E0,-1.634597033E-1
5.085094621E1,9.237341881E0,2.561367035E0,-6.267699599E-1
5.087594621E1,1.022243786E1,2.422433853E0,-1.183400393E0
5.090094621E1,9.760323524E0,3.412464142E0,-1.690828323E0
5.092594621E1,9.030213356E0,4.088735580E0,-2.442623377E0
5.095094621E1,8.771638870E0,2.253739834E0,-1.927867293E0
5.097594621E1,8.776424408E0,1.791625977E0,-1.202542901E0
5.100094621E1,9.340233803E0,7.322037220E-1,-1.093519926E0
5.102594621E1,9.629914284E0,5.539384484E-1,-1.135394335E0
5.105094621E1,1.012792110E1,-5.473581553E-1,-5.309075117E-1
5.107594621E1,1.090828037E1,-6.281159353E-3,-3.394817114E-1
5.110094621E1,9.611968994E0,1.263709426E0,-9.167502075E-2
5.112594621E1,9.468249321E0,-2.026421726E-1,-4.304089844E-1
5.115094621E1,1.140867901E1,-1.834248066E0,-3.189931810E-1
5.117594621E1,1.129741287E1,4.520939291E-1,6.696912646E-1
5.120094621E1,8.863762856E0,1.835893154E0,9.870393574E-2
5.122594621E1,9.672985077E0,1.068544865E0,-7.595716119E-1
5.125094621E1,8.866155624E0,3.987040758E0,-1.055234790E0
5.127594621E1,8.440083504E0,3.108426094E0,-4.686941206E-1
5.130094621E1,9.646664619E0,4.080360889E0,-1.670489311E0
5.132594621E1,8.746514320E0,5.014010429E0,-1.143769264E0
5.135094621E1,8.605188370E0,4.523332119E0,-1.894367814E0
5.137594621E1,1.018893814E1,4.258775711E0,-1.862064719E0
5.140094621E1,1.038171005E1,2.645115852E0,-2.744268417E0
5.142594621E1,1.214492130E1,4.066303074E-1,-2.075175524E0
5.145094621E1,1.186959648E1,-5.977569818E-1,-9.523434043E-1
5.147594621E1,1.000454140E1,5.353940651E-2,-1.923081636E0
5.150094621E1,8.163562775E0,4.556831717E-1,-1.301845074E0
5.152594621E1,9.031410217E0,-5.712863803E-1,-1.553241014E0
5.155094621E1,1.003684425E1,3.678964823E-2,-2.453391075E0
5.157594621E1,1.001291561E1,-1.667498350E-1,-1.876421571E0
5.160094621E1,9.414411545E0,8.364410400E-1,-2.744268417E0
5.162594621E1,9.473034859E0,1.637139320E0,-2.934647322E0
5.165094621E1,9.730413437E0,1.424178123E0,-2.707179785E0
5.167594621E1,9.416804314E0,2.202144623E0,-2.364856482E0
5.170094621E1,8.819495201E0,2.784049034E0,-2.368445873E0
5.172594621E1,9.185747147E0,2.433201551E0,-2.446212530E0
5.175094621E1,9.373733521E0,1.966451526E0,-2.060818434E0
5.177594621E1,9.266056061E0,2.105235338E0,-2.072782516E0
5.180094621E1,9.285199165E0,2.798406124E0,-2.212762833E0
5.182594621E1,9.177371979E0,2.796013355E0,-2.318196535E0
5.185094621E1,8.957232475E0,1.730608940E0,-2.339731932E0
5.187594621E1,8.777621269E0,4.114159346E-1,-2.523979187E0
5.190094621E1,9.732806206E0,-6.157031655E-1,-2.704786777E0
5.192594621E1,9.760323524E0,-5.989534259E-1,-2.523979187E0
