Time (s),Linear Acceleration x (m/s^2),Linear Acceleration y (m/s^2),Linear Acceleration z (m/s^2)
0,-0.040833116,0.02193737,0.576830924
0.01,0.058925956,-0.143300057,0.255466104
0.02,0.112973094,-0.145713806,0.142964274
0.03,0.02700752,-0.140996933,-0.008029506
0.04,-0.152243853,-0.107522965,-0.186973065
0.05,-0.16578877,-0.081235886,-0.20440951
0.06,-0.089242607,-0.062144279,-0.03092004
0.07,-0.013554573,2.00272E-05,0.21926637
0.08,-0.016491503,-5.05447E-05,0.220685005
0.09,-0.102090567,-0.024047852,0.282668948
0.1,-0.174149394,0.014269829,0.290751278
0.11,-0.156636596,-0.024009705,0.341903687
0.12,-0.036022991,-0.038330078,0.12703377
0.13,0.021287322,-0.023962021,-0.00262136
0.14,-0.163586199,0.021538734,0.004024141
0.15,-0.182313412,0.031149864,0.012154404
0.16,-0.181886703,0.031186104,0.014943156
0.17,-0.068930835,-0.03822422,0.067595497
0.18,-0.138041586,-0.031020164,0.012797158
0.19,-0.137477815,-0.030978203,0.01622187
0.2,-0.115621001,-0.035722733,0.043903802
0.21,-0.079485923,-0.026116371,0.195957094
0.22,-0.068800002,-0.17210865,0.311961234
0.23,0.03399688,-0.145733833,0.141043454
0.24,0.034823477,-0.186458588,0.06183935
0.25,0.075800061,-0.105069161,0.080877662
0.26,0.075597301,-0.13625145,0.043556456
0.27,-0.072453111,-0.052484512,0.046633963
0.28,-0.312775761,0.02175045,-0.017975293
0.29,-0.297333151,0.112800598,0.052133139
0.3,-0.216946989,0.02189064,0.182386607
0.31,-0.185584694,-0.011595726,0.005271003
0.32,-0.125931233,-0.009175301,-0.004148357
0.33,-0.014011443,0.005191803,0.68033123
0.34,0.084075212,-0.078640938,0.654391766
0.35,-0.045477211,-0.095411301,0.116809316
0.36,0.08026576,-0.047442436,-0.127592146
0.37,-0.06594345,-0.145535469,-0.167395383
0.38,-0.066806197,-0.145514488,-0.16322425
0.39,-0.148603946,0.022012711,0.096743345
0.4,0.034964725,0.024298668,0.521603227
0.41,0.03550671,0.002578735,0.491283864
0.42,0.032793358,0.002477646,0.488927066
0.43,-0.22878322,-0.064582825,0.06791757
0.44,-0.03776288,-0.107680321,0.097736083
0.45,-0.09891361,-0.112472534,0.173936039
0.46,0.046182632,-0.066981316,0.166581288
0.47,0.054264814,-0.126862526,0.087633282
0.48,0.052023768,-0.126866341,0.090061381
0.49,0.054473937,0.02152729,0.366769016
0.5,-0.076157779,0.021497726,0.217056066
0.51,-0.081112057,-0.004797935,0.050844416
0.52,-0.08091858,-0.004693031,0.057261303
0.53,-0.09007892,0.007385254,-0.012758583
0.54,-0.166213483,-0.014062881,0.10254699
0.55,-0.1660887,-0.013988495,0.10780184
0.56,-0.054303914,-0.018712044,0.026441351
0.57,-0.089002728,0.01246357,0.100429326
0.58,-0.020767361,-0.016249657,0.129895896
0.59,-0.064589381,0.022089958,0.135250181
0.6,-0.06519407,0.022123337,0.138424724
0.61,0.004426926,0.012617111,0.129156768
0.62,0.004673034,0.012677193,0.13317886
0.63,-0.221762508,-0.135655403,0.05087845
0.64,-0.134688884,-0.157131195,-0.051643461
0.65,0.055466011,-0.157154083,-0.060607404
0.66,-0.069593251,-0.116537094,0.139879242
0.67,-0.12167716,-0.016084671,0.419900149
0.68,0.06347616,0.022115707,0.45897615
0.69,0.060958043,0.021989822,0.4559986
0.7,0.099876449,0.021914482,0.437237263
0.71,-0.046285659,0.091345787,0.128644139
0.72,-0.046381831,0.091396332,0.131525829
0.73,-0.070233971,0.019664764,-0.038571298
0.74,-0.136719823,-0.001786232,0.025602281
0.75,-0.136616081,-0.00170517,0.029569432
0.76,-0.247726053,-0.037479401,-0.058707327
0.77,-0.298688799,-0.121240616,-0.065683916
0.78,0.196664006,-0.274544716,0.174028829
0.79,0.189787686,-0.27478981,0.169920802
0.8,0.200881258,-0.145788193,0.512443781
0.81,-0.02906023,0.016801834,0.645544291
0.82,-0.026506394,0.002363205,0.119186871
0.83,-0.086243138,-0.004825592,-0.567912698
0.84,-0.079400808,0.021572113,-0.463935494
0.85,0.007191807,0.043082237,0.132487372
0.86,-0.099212736,0.160236359,0.589858294
0.87,-0.047835678,0.018751144,0.757359564
0.88,0.104312822,-0.014979362,0.538906753
0.89,-0.016762197,0.004016876,0.24867475
0.9,-0.018193096,0.003952026,0.246822417
0.91,-0.099180222,0.023123741,0.106803477
0.92,-0.064759046,0.020798683,0.179128498
0.93,-0.006015465,-0.060520172,0.141890287
0.94,-0.004826844,-0.060411453,0.146533132
0.95,0.007695735,-0.148909569,0.093383148
0.96,-0.095200211,-0.04109478,0.051414847
0.97,-0.095656127,-0.04106617,0.054520398
0.98,0.101510629,0.021168709,0.458055049
0.99,0.051804066,0.018767357,0.432541013
1,-0.039251462,0.021183968,0.142392963
1.01,-0.021589607,-0.021822929,-0.112669289
1.02,-0.130476564,-0.036058426,-0.217243061
1.03,-0.317938507,-0.126881599,-0.101660997
1.04,-0.323070824,-0.141139031,-0.029119715
1.05,-0.233518168,-0.07884407,0.084430024
1.06,-0.034945339,-0.172249794,0.201316357
1.07,0.097390413,0.021630287,0.408082724
1.08,0.096340612,0.021552086,0.405623615
1.09,-0.056668833,0.02154541,0.299183667
1.1,-0.055867165,0.021536827,0.298502117
1.11,-0.06912747,0.02155304,0.113529205
1.12,-0.126351297,0.021551132,0.144269586
1.13,-0.225807831,0.016771317,0.143143207
1.14,-0.171144068,-0.014314651,0.140450805
1.15,-0.16973713,-0.014268875,0.141200751
1.16,0.03964965,-0.078896523,0.234967932
1.17,0.040407777,-0.07886219,0.235161424
1.18,-0.066173151,0.021730423,0.26189065
1.19,0.010547027,0.017033577,0.146107316
1.2,0.012339473,0.017130852,0.148876786
1.21,-0.226644129,0.069942474,-0.07072264
1.22,-0.221078843,0.029407501,-0.202703074
1.23,-0.334118366,-0.02073288,-0.145884752
1.24,-0.156307817,-0.082945824,0.204989269
1.25,-0.158841133,-0.083065987,0.202409193
1.26,0.137256175,-0.124035835,0.706057012
1.27,0.009161428,-0.193642616,0.405040205
1.28,0.008039147,-0.152998924,0.2881791
1.29,-0.02078335,-0.076401711,-0.074172392
1.3,-0.00094378,-0.026085854,-0.332960486
1.31,-0.141973659,0.055403709,-0.071480185
1.32,-0.074453771,0.050613403,0.265073896
1.33,-0.203969374,0.021787643,0.359615117
1.34,-0.203942478,0.021709442,0.355445743
1.35,-0.282766193,-0.023852348,0.26090765
1.36,-0.143420413,-0.126838684,0.334499538
1.37,0.098590419,-0.038298607,0.418009281
1.38,0.110151187,-0.055114746,0.472872526
1.39,0.110638082,-0.055136681,0.471267998
1.4,-0.057607427,-0.04791069,0.114926718
1.41,0.00120163,-0.038258553,-0.014706135
1.42,-0.053085178,0.002503395,-0.229751974
1.43,-0.171940848,0.016978264,-0.098656207
1.44,-0.189992935,0.021884918,0.068059683
1.45,-0.146781147,0.021903038,0.268225908
1.46,-0.065701053,0.012338638,0.441659987
1.47,0.050158545,-0.018807411,0.284148753
1.48,0.041087717,-0.01883316,0.2356693
1.49,-0.097140372,-0.014021873,0.135193855
1.5,-0.150167778,-0.023551941,-0.048508972
1.51,-0.233641535,-0.033041954,-0.075999409
1.52,-0.393019557,0.022109985,-0.022927359
1.53,-0.22579886,-0.222036362,0.088441446
1.54,-0.224779159,-0.221998215,0.088590503
1.55,-0.054997534,-0.12626648,0.094317868
1.56,-0.200922906,-0.061663628,0.101621166
1.57,-0.009549841,0.005290031,0.267254144
1.58,0.182859629,0.007531166,0.436841548
1.59,0.061099783,0.024143219,0.536716759
1.6,-0.011539489,0.074287415,0.373762429
1.61,-0.011158675,0.074258804,0.370845676
1.62,-0.072426945,0.05990696,0.099892244
1.63,-0.071769655,0.059944153,0.101078227
1.64,-0.147829399,0.021676064,0.04486008
1.65,-0.083124951,0.014502525,0.029279724
1.66,-0.25406301,0.050411224,0.118652314
1.67,-0.254692555,0.050393105,0.118099943
1.68,0.050642684,0.069505692,0.119949445
1.69,-0.020414799,0.014417648,0.175494745
1.7,0.009153903,0.021551132,0.25668031
1.71,0.124772988,0.009511948,0.53766799
1.72,0.122711964,0.009411812,0.534805596
1.73,-0.085793644,-0.016983032,0.503424108
1.74,-0.227287412,-0.021659851,0.008507639
1.75,0.040178344,-0.079061508,0.199043587
1.76,0.040015563,-0.079073906,0.198577717
1.77,0.074365497,-0.182078362,-0.111000925
1.78,0.071005672,-0.182184219,-0.112754494
1.79,0.133537531,-0.026776314,0.428825855
1.8,0.09416458,0.018445969,0.557227314
1.81,0.0895302,0.018199921,0.549015939
1.82,-0.015897617,0.022830963,0.480029345
1.83,-0.374822021,0.094586372,0.190360218
1.84,-0.181811392,0.020378113,0.095317632
1.85,-0.052220389,-0.08018589,0.092742719
1.86,-0.109566093,-0.07538414,0.217399329
1.87,-0.058679,-0.089761734,0.285543859
1.88,-0.058906376,-0.089791298,0.283693254
1.89,0.12866956,-0.037169456,0.261069834
1.9,0.072860062,-0.025223732,0.389264107
1.91,-0.006246284,-0.003694534,0.228106529
1.92,-0.115971133,0.008294106,0.139324307
1.93,-0.079207987,-0.006067276,0.087034874
1.94,-0.09285818,-0.022769928,0.076444723
1.95,-0.109195501,-0.037112236,0.092217907
1.96,-0.240788549,-0.03950119,0.16967465
1.97,-0.156544387,-0.051456451,0.093473464
1.98,-0.061230212,-0.087353706,0.132561028
1.99,-0.062114298,-0.06344986,0.228129759
2,-0.048378766,-0.046722412,0.327311009
2.01,-0.047693715,-0.046729088,0.325278044
2.02,-0.120238632,-0.058712006,0.234706014
2.03,-0.086941272,-0.09219265,0.086804643
2.04,-0.318608761,-0.029883385,-0.078623608
2.05,-0.215744272,-0.022594452,-0.1122206
2.06,-0.198300824,-0.027302742,-0.039988473
2.07,-0.102615535,-0.008116722,0.080395795
2.08,-0.084828019,0.020593643,0.235430449
2.09,-0.084823623,0.020526886,0.230830252
2.1,0.088636234,0.128170013,0.429332495
2.11,0.086599171,0.128066063,0.424172938
2.12,0.106148884,0.048951149,0.317937672
2.13,-0.089768335,0.020145416,0.055194721
2.14,-0.025821686,0.156626701,-0.197256357
2.15,-0.017031357,0.0584898,0.065719187
2.16,-0.113820881,-0.037267685,0.210292131
2.17,-0.14591676,0.010622978,0.391864717
2.18,-0.147243038,0.010605812,0.393008649
2.19,-0.218345255,-0.068437576,0.599880755
2.2,-0.018176585,-0.094740868,0.277791619
2.21,-0.017690852,-0.094702721,0.279794782
2.22,-0.232924596,-0.046766281,0.07777904
2.23,-0.229611233,-0.046642303,0.081945524
2.24,-0.275711894,-0.111153603,-0.476645529
2.25,-0.141126901,-0.036898613,-0.000124142
2.26,-0.239597291,0.020531654,0.280326992
2.27,-0.239092261,0.020495415,0.276597738
2.28,-0.262035191,0.018087387,0.276270479
2.29,-0.170595646,0.020459175,0.212217256
2.3,-0.086419314,0.018075943,0.364985555
2.31,-0.08611156,0.018091202,0.365478903
2.32,0.139850229,-0.005851746,0.171650708
2.33,0.176595315,0.015703201,0.188697547
2.34,0.075100541,0.030075073,0.248613969
2.35,-0.03757067,0.039719582,0.063966498
2.36,-0.038883507,0.039782524,0.071069613
2.37,0.045460969,0.02070713,0.023291439
2.38,-0.071522906,-0.005544662,0.059492335
2.39,-0.018953413,-0.022233009,0.098599568
2.4,0.059267148,-0.007799149,0.170341089
2.41,0.055386513,-0.007768631,0.175895214
2.42,0.016350165,0.020998001,0.14525348
2.43,0.035770401,-0.048381805,0.146210194
2.44,0.038761839,-0.072245598,0.09607406
2.45,-0.048986584,-0.065023422,-0.01025793
2.46,-0.210620865,0.021211624,0.131802082
2.47,-0.158640638,0.011666298,0.141175702
2.48,-0.097613186,-0.02180481,0.163023964
2.49,0.02290903,-0.057689667,0.135152429
2.5,0.020926625,-0.057653427,0.138733208
2.51,0.131462544,-0.036058426,0.084849626
2.52,0.129253924,-0.036020279,0.08812353
2.53,0.120884247,0.021501541,0.136825532
2.54,0.048292607,0.021543503,0.38601476
2.55,0.085513212,-0.00235939,0.230770275
2.56,0.017194301,-0.071708679,0.189219892
2.57,-0.134609789,-0.09559536,0.087683469
2.58,-0.134711206,-0.095521927,0.090789616
2.59,-0.153193399,-0.196088791,0.00074476
2.6,-0.158577517,-0.09560585,-0.09843114
2.61,-0.046540439,0.02163887,0.132627502
2.62,0.007480204,-0.045514107,0.264294565
2.63,0.077989832,0.006997108,0.289359182
2.64,0.074617729,0.006851196,0.285601854
2.65,-0.185923249,-0.134562492,0.38810575
2.66,-0.147859499,-0.060420036,0.169261187
2.67,-0.195023999,0.073635101,0.141801283
2.68,-0.135685369,0.020987511,0.021327093
2.69,-0.035236001,0.021009445,-0.104274765
2.7,0.080378994,0.006648064,0.112713933
2.71,0.117611647,0.06402874,0.391693771
2.72,0.135041595,0.054296494,0.648122132
2.73,0.130959272,0.054085732,0.64190048
2.74,-0.135283575,0.020425797,0.41432935
2.75,-0.090291545,0.006005287,0.297675759
2.76,-0.037724763,-0.070611,0.159188911
2.77,-0.035092294,-0.082520485,0.094541088
2.78,-0.01521942,-0.072860718,0.054622769
2.79,-0.131794214,-0.029672623,0.168980241
2.8,-0.130540714,-0.029572487,0.171942607
2.81,0.084849052,-0.058240891,0.043326214
2.82,0.184502587,-0.137187004,0.178458855
2.83,0.075305626,0.020859718,0.357705534
2.84,-0.181514218,0.020868301,0.348649263
2.85,-0.254203856,0.054463387,0.185552687
2.86,-0.235690638,0.021081924,0.032252312
2.87,-0.099780217,0.006883621,-0.112652928
2.88,-0.080022216,-0.043244362,-0.09507072
2.89,-0.079690799,-0.043136597,-0.091152668
2.9,-0.131641209,-0.038311958,0.094240502
2.91,-0.169135064,-0.002418518,0.315838963
2.92,-0.127796724,-0.043134689,0.288158715
2.93,-0.049790233,-0.002432823,0.375985205
2.94,-0.191310883,0.021540642,0.323072135
2.95,-0.187017277,0.021635056,0.32469359
2.96,-0.241550013,0.021832466,0.131852642
2.97,-0.161486089,0.010087967,0.012288421
2.98,0.039562121,-0.078255653,-0.034670204
2.99,-0.031969845,-0.032586098,0.073560119
3,0.173641369,-0.085083008,0.111351058
3.01,0.207384214,0.010754585,0.229246795
3.02,0.175904408,0.022770882,0.377085596
3.03,0.129967496,0.025197029,0.366066992
3.04,0.129612103,0.02523613,0.367534757
3.05,-0.236197546,-0.017782211,0.001357347
3.06,-0.385573804,-0.010456085,-0.202661783
3.07,-0.289908707,0.023290634,-0.137052625
3.08,-0.132508278,-0.062703133,0.19197993
3.09,-0.132860452,-0.062631607,0.194646522
3.1,-0.019383118,-0.100921631,0.200509414
3.11,-0.264319837,0.006760597,0.376500934
3.12,0.200090915,-0.165801048,0.534790337
3.13,-0.141727716,-0.034245491,0.314056546
3.14,-0.139865711,-0.03422451,0.312913805
3.15,-0.022995815,-0.115504265,-0.358848155
3.16,-0.03894414,-0.086575508,-0.161633402
3.17,-0.087009668,-0.060146332,0.270369411
3.18,-0.109167799,0.023612976,0.537882328
3.19,-0.095905453,0.035510063,0.327565581
3.2,-0.181002393,0.042690277,0.184131771
3.21,-0.188603461,0.042755127,0.198537692
3.22,-0.087654635,0.030871391,0.261465639
3.23,0.02326031,0.023799896,0.285887629
3.24,0.045809776,-0.071815491,0.208663926
3.25,0.0136282,-0.145817757,0.190413266
3.26,-0.008726105,-0.159968376,0.186378002
3.27,-0.096165702,-0.176558495,0.056614131
3.28,-0.095454931,-0.176399231,0.061032534
3.29,-0.179145798,-0.142726898,0.153828114
3.3,-0.113836378,-0.089947701,0.147231489
3.31,0.018004522,-0.020389557,0.126480803
3.32,-0.061696872,0.025196075,0.112867385
3.33,-0.026527435,0.025248528,0.138766527
3.34,-0.049291998,0.025262833,0.192551166
3.35,-0.165364042,0.025249481,0.230749086
3.36,-0.180193499,-0.027466774,0.160324931
3.37,-0.15430218,-0.113718987,0.168663412
3.38,-0.147940591,-0.104193687,0.191489145
3.39,-0.148529783,-0.104228973,0.190724596
3.4,0.011044905,-0.070767403,0.173148081
3.41,-0.047332466,-0.034870148,0.110808104
3.42,-0.078804657,-0.013297081,0.094833195
3.43,-0.057301492,-0.00607872,0.074560136
3.44,-0.031007439,-0.053899765,0.035573632
3.45,-0.095811829,-0.032264709,0.090637207
3.46,-0.09577179,-0.070494652,0.18112506
3.47,-0.096044183,-0.084833145,0.184480876
3.48,-0.080049977,-0.027365685,0.07486856
3.49,-0.038718879,-0.03215313,0.068725586
3.5,0.013976291,0.003723145,0.090540022
3.51,0.011338338,0.0036726,0.090118587
3.52,-0.215471819,0.013196945,-0.03004992
3.53,-0.16821292,0.046735764,0.085534036
3.54,-0.054170653,-0.025084496,0.074463993
3.55,-0.115701005,-0.017889023,-0.056370646
3.56,-0.117231295,-0.017889023,-0.055845737
3.57,0.02034165,-0.104200363,0.861314178
3.58,-0.00739412,-0.171455383,0.535147548
3.59,-0.127671927,-0.111662865,-0.005044878
3.6,-0.127308652,-0.111609459,-0.003943056
3.61,-0.039901808,-0.034932137,-0.350941151
3.62,-0.085309356,0.024888039,0.043916076
3.63,-0.068858296,0.187511444,0.659918785
3.64,-0.071499452,0.187210083,0.652591825
3.65,-0.135763988,0.033765793,0.272102177
3.66,-0.315415561,0.024158478,-0.078441024
3.67,-0.314250886,0.024246216,-0.076924175
3.68,-0.099780366,-0.025992393,0.206431434
3.69,0.02789712,-0.052330971,0.292521298
3.7,0.059978075,-0.028326035,0.296186864
3.71,0.008235767,0.024470329,0.30872637
3.72,-0.024354398,0.024604797,0.300194293
3.73,-0.023561209,0.024783134,0.304550171
3.74,-0.047037795,-0.053983688,0.011746973
3.75,-0.04540953,-0.051358223,0.042210072
3.76,-0.046749845,-0.051202774,0.046901464
3.77,0.04461056,-0.015183449,0.19680655
3.78,-0.117223024,0.025613785,0.309888005
3.79,-0.139387876,0.028130531,0.20775947
3.8,-0.189921036,0.023480415,0.106164008
3.81,-0.189327166,0.023670197,0.110820323
3.82,-0.145507738,-0.035965919,0.022483915
3.83,-0.14476189,-0.035777092,0.026850879
3.84,-0.026733696,-0.069158554,0.175993756
3.85,-0.026591077,-0.06907177,0.178206757
3.86,-0.08830066,-0.085770607,0.210573271
3.87,-0.078817368,-0.016303062,0.278304458
3.88,-0.009327576,0.007658958,0.269175679
3.89,0.021790668,-0.025812149,0.160195828
3.9,0.021783665,-0.025741577,0.161774635
3.91,-0.032658339,-0.008922577,0.182324648
3.92,-0.038979277,-0.011222839,0.286960721
3.93,0.019338176,-0.001560211,0.353290141
3.94,-0.009030133,0.0272398,0.285606235
3.95,-0.008748978,0.027362823,0.288489103
3.96,-0.051815242,0.027537346,0.036036223
3.97,-0.064755455,0.013302803,-0.006041974
3.98,-0.169007495,0.027770996,-0.077144891
3.99,-0.114215359,0.030344963,-0.003863037
4,-0.11941044,0.004196167,0.045903951
4.01,-0.120217666,0.004335403,0.049393564
4.02,0.064250566,-0.019556046,0.724162817
4.03,-0.210397422,-0.062746048,0.392354697
4.04,-0.242530495,-0.105713844,0.241391987
4.05,-0.030078694,-0.174999237,0.047757238
4.06,-0.029734701,-0.174837112,0.051186055
4.07,-0.028048292,-0.059639931,-0.462546229
4.08,0.013577119,0.02912426,0.281752199
4.09,0.134979695,0.026613235,0.74246484
4.1,0.009094492,-0.011897087,0.43267116
4.11,-0.194661945,-0.009613991,0.067444324
4.12,-0.186321706,0.014334679,-0.18108213
4.13,-0.192465469,0.028772354,-0.078574985
4.14,-0.188304693,0.043231964,0.203512162
4.15,-0.188562766,0.043280602,0.204810977
4.16,-0.136380583,0.029018402,0.382121116
4.17,0.001462385,0.026769638,0.320730329
4.18,0.038448311,-0.040088654,0.078251392
4.19,0.03658808,-0.039876938,0.083279461
4.2,-0.020098209,-0.02526474,0.036015749
4.21,0.035678633,-0.010615349,0.137878627
4.22,-0.042228192,-0.036667824,0.153672725
4.23,-0.043119296,-0.036370277,0.159664661
4.24,-0.055925965,-0.079151154,0.06063053
4.25,-0.064195409,-0.088418007,-0.088807225
4.26,-0.065431684,-0.025920868,0.096032858
4.27,-0.212669909,-0.018586159,0.252182603
4.28,-0.148320839,-0.109454155,0.153754234
4.29,-0.148881689,-0.109294891,0.156849861
4.3,-0.26654163,0.027387619,-0.030560732
4.31,-0.265069813,0.027603149,-0.026723921
4.32,-0.198593944,0.032699585,-0.112732053
4.33,-0.267951727,0.033039093,-0.16938293
4.34,-0.264876545,0.033459663,-0.162452221
4.35,-0.278200656,0.036329269,-0.030587316
4.36,-0.274032414,0.036868095,-0.022358418
4.37,-0.383235157,0.035086632,0.056364775
4.38,-0.332531154,0.035848618,-0.013614953
4.39,-0.029760718,-0.126226425,-0.007139742
4.4,-0.027058184,-0.125514031,0.003738225
4.41,-0.177594498,-0.117645264,-0.026830614
4.42,-0.189328626,-0.155256271,-0.27757746
4.43,-0.187048689,-0.154589653,-0.267841041
4.44,-0.359345347,-0.082184792,-0.31723547
4.45,-0.401804924,0.050112724,-0.512439847
4.46,-0.380705297,0.041268349,-0.332675457
4.47,-0.376158595,0.041944504,-0.323870242
4.48,-0.306671262,0.044966698,0.409280926
4.49,-0.356433779,-0.153420448,0.360514998
4.5,-0.129612848,-0.124238968,-0.234442651
4.51,-0.309623718,-0.08280468,-0.164806664
4.52,-0.419641793,0.159692764,0.120892167
4.53,-0.470610976,0.100465775,-0.293622196
4.54,-0.463269353,0.101430893,-0.282736599
4.55,-0.498226821,0.047586441,-0.43637979
4.56,-0.489520639,0.04855442,-0.426168203
4.57,-0.438387752,0.00630188,-0.166380286
4.58,-0.567061842,-0.162867546,-0.071969748
4.59,-0.542654038,-0.219546318,0.040017307
4.6,-0.531817615,-0.218830109,0.04537791
4.61,-0.474976152,-0.292133331,-0.12416625
4.62,-0.42903167,-0.38446331,-0.343095958
4.63,-0.481591582,-0.313961983,-0.324919999
4.64,-0.463922769,-0.185967445,-0.275859237
4.65,-0.412620157,-0.089073181,-0.236272156
4.66,-0.400080144,-0.087889671,-0.22753644
4.67,-0.323193669,-0.074643135,-0.073784053
4.68,-0.233079284,-0.102113724,0.259150147
4.69,-0.16848591,-0.211180687,0.197981358
4.7,-0.159892559,-0.210001946,0.207465231
4.71,-0.103774935,-0.268586159,0.031270564
4.72,-0.331302643,-0.497182846,-0.212915301
4.73,-0.182040125,-0.642040253,-0.218723595
4.74,-0.065626711,-0.696171761,-0.191087902
4.75,-0.058250338,-0.695527077,-0.187567294
4.76,-0.225618035,-0.733473778,-0.223057687
4.77,-0.138058841,-0.692745209,-0.077297926
4.78,-0.13444826,-0.69305706,-0.082369268
4.79,0.043652833,-0.734415054,-0.185735524
4.8,0.235238656,-0.931555748,-0.45797348
4.81,0.255407929,-1.147935867,-0.464962602
4.82,0.442778707,-1.263710022,-0.600474954
4.83,0.63523066,-1.240375519,-0.69156599
4.84,0.902201593,-1.080385208,-0.524676979
4.85,1.472831845,-0.75537014,-0.320237756
4.86,1.910870671,-0.339819908,-0.455432475
4.87,1.809129477,0.104114533,-0.581238329
4.88,1.569907904,0.600536346,-0.704108775
4.89,1.395195365,0.963851929,-0.816903114
4.9,0.981012821,1.168803215,-0.947606981
4.91,0.557613075,1.340415001,-1.200427771
4.92,0.521690965,1.337609291,-1.228764772
4.93,0.286745995,1.426445961,-1.5576756
4.94,-0.483098209,1.216531754,-1.558434486
4.95,-0.513414443,1.21534729,-1.572541952
4.96,-0.860220194,0.692591667,-0.727981746
4.97,-0.770750821,0.40489006,-0.515404344
4.98,-0.678361535,0.057592392,0.104777813
4.99,-0.688861549,0.057441711,0.102170229
5,-0.178587377,-1.34073925,-1.044193506
5.01,-0.182499588,-1.340379715,-1.039149642
5.02,0.156248257,-1.785814285,-1.806733847
5.03,0.018667802,-1.62859726,-1.179048777
5.04,0.0173725,-1.630256653,-1.203817368
5.05,0.042979531,-1.44101429,-0.67228204
5.06,0.037729651,-1.120368004,-0.430726707
5.07,-0.054239027,-0.977014542,-0.389232814
5.08,-0.060479093,-0.979598045,-0.441415995
5.09,-0.227674216,-0.938835144,-0.544881344
5.1,-0.194146842,-0.995909691,-0.89133358
5.11,-0.082418829,-1.071707726,-1.324819803
5.12,-0.091400303,-1.036974907,-1.434808969
5.13,-0.100522935,-1.037896156,-1.474383473
5.14,0.231853694,-0.815937042,-0.629084051
5.15,0.351490647,-0.653637886,-0.278772891
5.16,0.396859765,-0.529480934,-0.18091923
5.17,0.430830956,-0.429085732,-0.383675814
5.18,0.278800964,-0.299815178,-0.568996906
5.19,0.26955995,-0.232728005,-0.816752255
5.2,0.208015502,-0.139228821,-0.867259502
5.21,-0.027777359,-0.084026337,-0.767266512
5.22,0.01579006,-0.028819084,-0.7066499
5.23,-0.157566428,0.093416214,-0.885056317
5.24,-0.193755791,0.055178642,-0.843208373
5.25,-0.051591873,0.213241577,-0.898987293
5.26,-0.052659214,0.213290215,-0.904277206
5.27,0.059604004,0.273178101,-0.860721231
5.28,0.270053804,0.773627281,-0.590040445
5.29,0.426706016,1.343512535,-0.721169889
5.3,0.387349248,1.8679142,-0.751330078
5.31,0.402806699,2.406628609,-0.881251276
5.32,0.209459186,2.96445179,-0.969587326
5.33,-0.143259376,3.287538528,-0.997389078
5.34,-0.262191385,3.390252113,-1.019036412
5.35,-0.136373773,3.342067719,-0.885234714
5.36,-0.118001096,3.341679573,-0.873852372
5.37,0.269421279,3.970984459,0.382880747
5.38,0.069790594,4.234015465,0.503569067
5.39,-0.432268202,4.362995148,0.785278678
5.4,-0.571610272,3.972501755,1.709263563
5.41,-0.284896791,3.270903587,2.347908497
5.42,-0.260690838,3.270918846,2.361654043
5.43,-0.127522737,2.318070412,2.076491833
5.44,1.337998748,1.343652725,1.85829699
5.45,0.990092039,1.513642311,2.918863535
5.46,0.095305055,1.566302299,3.169550419
5.47,0.101328552,1.566351891,3.147017717
5.48,-1.626049519,1.554505348,3.45892477
5.49,-2.196790218,1.269818306,3.22307992
5.5,-2.325215578,0.769701958,2.539460897
5.51,-2.313144684,0.770023346,2.520445347
5.52,-1.683756113,0.389623642,1.287580729
5.53,-1.50012517,0.686833382,1.291241646
5.54,-1.225647688,1.151734352,1.569802999
5.55,-0.953787804,1.592765808,1.552512288
5.56,-0.947743833,1.593251228,1.532247543
5.57,-0.337038785,1.694297791,1.635774732
5.58,-0.332108617,1.694815636,1.617142558
5.59,-0.333212405,1.242955208,1.739020348
5.6,-0.713080108,-0.40362072,1.016605854
5.61,-0.708003521,-0.402921677,0.996584237
5.62,-0.65078032,-1.425605774,0.386072874
5.63,-0.605058909,-3.138058186,-0.232461497
5.64,-0.571485996,-3.134411335,-0.285050988
5.65,-0.102850437,-4.718973637,-0.020252109
5.66,0.175297454,-5.21466732,0.144406498
5.67,0.192360833,-5.212834358,0.124386072
5.68,0.544740915,-5.922471046,0.252299011
5.69,0.716179848,-6.046210766,0.118929803
5.7,0.803785324,-6.059915066,0.033942759
5.71,0.71049118,-5.95390749,-0.256813318
5.72,0.552096367,-5.644459724,-0.609631896
5.73,0.521793485,-5.203310966,-1.177401543
5.74,0.388899565,-4.503376484,-1.327796102
5.75,0.345539182,-3.783755302,-1.193128467
5.76,0.328630418,-3.784626007,-1.185482264
5.77,0.177189827,-2.956949711,-0.995530427
5.78,-0.786210418,-1.094952583,-0.65969801
5.79,-1.016849518,-0.475634575,-0.680435419
5.8,-1.204713821,0.028614044,-0.88245523
5.81,-1.214067936,0.027443886,-0.859128118
5.82,-0.991542399,0.560202599,-0.434715569
5.83,-0.819296122,0.765004158,-0.259524524
5.84,-0.951004863,1.163843155,-0.369456142
5.85,-0.95881784,1.162878036,-0.343738347
5.86,-0.988270104,1.861063957,-0.419757456
5.87,-0.99013269,1.860233307,-0.388316602
5.88,-1.194014072,2.379071236,-0.717863619
5.89,-1.692113638,2.886137962,-1.014005423
5.9,-2.48682642,3.400629044,-1.928726912
5.91,-2.090311766,3.953694344,-1.096433163
5.92,-1.357328296,4.447015762,-0.360525668
5.93,-1.350302935,4.447052956,-0.344914854
5.94,0.837282181,5.981693268,2.908219099
5.95,1.989029288,6.29030323,4.457853794
5.96,1.97465086,6.289967537,4.461467266
5.97,2.361719608,5.154736519,3.139360428
5.98,1.858105302,3.871119499,2.368088961
5.99,1.505233645,2.594782829,1.882646084
6,1.104603767,1.289753914,2.440471411
6.01,1.168787718,0.710326195,2.618959665
6.02,1.40516305,0.57632637,2.401543379
6.03,1.744588852,0.815818787,2.028565884
6.04,1.754328728,0.815941811,2.031977654
6.05,1.772405505,1.024400711,1.591672897
6.06,1.429626346,1.185029984,0.967765272
6.07,1.538543582,1.05830574,0.665748656
6.08,2.036554337,0.759122849,0.515842795
6.09,2.104240656,0.502810478,0.673096061
6.1,2.07617712,0.174655914,0.921404421
6.11,2.054553509,0.174580574,0.893370748
6.12,1.049254775,-0.562775612,0.902273715
6.13,0.516729593,-1.376573563,0.666760147
6.14,0.294338495,-2.314742565,0.541932523
6.15,0.280113846,-2.314370632,0.519412637
6.16,0.102279864,-3.166431904,0.406747758
6.17,-0.539624274,-4.502272606,0.397982776
6.18,-0.347413749,-5.055357456,0.166993082
6.19,-0.338234425,-5.055471897,0.174989924
6.2,-0.162793666,-5.261539936,0.099651769
6.21,-0.484133899,-5.52253294,0.215811789
6.22,-0.397678912,-5.788232803,0.176922604
6.23,-0.098503768,-5.759348869,-0.201154009
6.24,0.272263438,-5.402406216,-0.480996996
6.25,0.296841115,-5.402152538,-0.466814756
6.26,0.324245334,-5.059348106,-0.850353241
6.27,-0.10642764,-3.785023212,-1.409079313
6.28,-0.086035699,-3.784459591,-1.408995628
6.29,-0.074555546,-3.125534534,-1.76887393
6.3,-0.035920501,-1.844235897,-1.633688569
6.31,0.056618899,-1.163960457,-0.908797979
6.32,0.279419005,-0.59381485,-0.220821261
6.33,0.281738371,-0.593527794,-0.233013809
6.34,0.099365428,0.022073746,0.009395167
6.35,-0.08174172,0.350326538,-0.569403589
6.36,0.082603246,0.738335609,-1.007303357
6.37,0.419996023,1.21235466,-1.508894801
6.38,0.421552599,1.212124825,-1.493469834
6.39,0.39198032,2.785018921,-0.296460986
6.4,0.160139054,3.546469688,-0.112498537
6.41,0.011685818,3.592112541,-0.926889718
6.42,-0.274900883,3.431880951,-1.740328193
6.43,-0.820868373,3.343556404,-1.764122367
6.44,-0.790184319,3.777444839,-0.137901723
6.45,-0.773548842,3.778072357,-0.128289849
6.46,-0.167909712,4.449039459,1.447080851
6.47,0.162840873,4.921305656,1.972343206
6.48,0.552571416,5.264381409,2.199527979
6.49,0.527242422,4.961250305,4.617468834
6.5,0.135294974,3.736503601,5.463815212
6.51,-0.03531003,2.198094368,5.010069847
6.52,-0.159296334,0.975438118,3.621145964
6.53,-0.481616795,0.52335453,1.619855523
6.54,-0.920009792,0.918264389,0.778925121
6.55,-1.681319714,1.727153778,0.289454222
6.56,-2.232739449,2.667740822,0.349772871
6.57,-1.975981474,3.402523041,0.996251047
6.58,-1.981114745,3.402398109,0.975626767
6.59,-1.880798101,3.852796555,2.321460485
6.6,-1.82426405,3.22385788,2.98361516
6.61,-0.993258596,2.166397095,2.001214981
6.62,0.045861959,0.816585541,0.732559502
6.63,0.393128306,-0.461707115,-0.245573655
6.64,0.396549195,-0.461647987,-0.227574468
6.65,0.893719375,-2.473106861,-0.581409574
6.66,1.307964087,-3.61826992,-0.100662634
6.67,1.547098994,-4.387890816,0.071044326
6.68,1.516388416,-5.208058357,0.251073003
6.69,1.633381724,-5.513592243,0.256417334
6.7,0.927520394,-5.562992096,0.41030848
6.71,0.551983357,-5.408747196,1.072575569
6.72,0.78494519,-5.331042767,0.765614212
6.73,0.744287312,-5.332394123,0.758031249
6.74,0.276608676,-5.199541092,-0.193252355
6.75,-0.10809958,-5.076069832,-0.79784441
6.76,-0.186434075,-4.954840183,-1.078248501
6.77,-0.212027356,-4.955579281,-1.063405156
6.78,-0.282037228,-4.642501354,-0.137404516
6.79,-0.666952491,-4.561558723,-1.205937147
6.8,-0.810827076,-4.154942036,-1.318631172
6.81,-0.975680828,-3.324397564,-1.101745844
6.82,-0.984823942,-3.32456255,-1.082162023
6.83,-0.953700483,-2.046048164,-2.015186548
6.84,-1.099538207,-1.057074547,-1.169608831
6.85,-1.129792929,-0.254747391,-0.230759323
6.86,-1.12447238,-0.254532814,-0.212505862
6.87,-1.004889369,0.205405235,0.056773588
6.88,-0.618819952,0.835351944,0.0435379
6.89,-0.980133414,1.436849594,-0.147207022
6.9,-1.372491121,2.560511589,-0.850533843
6.91,-1.282266617,3.155176163,-0.862820685
6.92,-1.325083137,3.412184715,-1.372315168
6.93,-1.781091928,3.432072639,-2.128060341
6.94,-2.388277769,3.506962776,-2.590898991
6.95,-2.382274389,3.507493973,-2.577497482
6.96,-2.799786806,3.704585075,-0.38367191
6.97,-1.2968328,4.77344799,1.682913899
6.98,-1.286126137,4.77471447,1.710713863
6.99,2.506260633,5.683794022,1.831587195
7,3.087306499,5.849233627,1.69387424
7.01,2.97169733,5.368486404,2.453537941
7.02,2.522849321,4.19071579,3.075993299
7.03,2.345207691,2.811304092,3.526291132
7.04,2.312079668,1.440245628,3.226459742
7.05,2.002762556,0.274169922,2.152720928
7.06,1.607797384,-0.289344788,1.160032988
7.07,1.593129754,-0.290851593,1.140577793
7.08,0.380552411,0.564279556,-0.076682031
7.09,0.185038149,1.297156334,0.193928808
7.1,0.301379859,2.128199577,0.597180009
7.11,0.407602012,2.760456085,1.079663396
7.12,0.778954864,3.021544456,1.288940072
7.13,1.012291789,3.060137749,1.327112079
7.14,0.463702619,2.826025963,1.712163925
7.15,0.026002534,1.97688961,1.629830837
7.16,-0.217355728,0.790567398,1.082006812
7.17,-0.491345406,-0.622816086,0.262772024
7.18,-0.812955439,-2.06690073,-0.128356844
7.19,-0.974041939,-3.127697945,-0.222641468
7.2,-0.936037719,-4.336849689,-0.280580103
7.21,-0.916094482,-5.189207554,-0.246293545
7.22,-0.60074234,-5.809287548,-0.026218072
7.23,-0.114098176,-6.146817207,0.722833812
7.24,-0.125971794,-6.424420357,0.55182308
7.25,-0.405283898,-6.278084755,-0.162937746
7.26,-0.344037175,-5.978329182,-0.110529438
7.27,0.10601905,-5.60188055,-0.228628367
7.28,0.305985302,-5.203887463,-0.770298183
7.29,0.273725957,-4.844208241,-0.71400708
7.3,0.341277719,-4.309680462,-0.504164875
7.31,0.358137369,-4.309080601,-0.527533472
7.32,0.568361998,-3.16403532,-0.603815258
7.33,0.594014168,-2.627173424,-0.177177131
7.34,0.688692093,-2.150208473,-0.093818828
7.35,0.880673528,-1.7093153,0.007858165
7.36,0.73328054,-1.199119568,0.104933515
7.37,0.405092299,-0.573979378,0.22560662
7.38,0.348828405,-0.042228699,-0.099927083
7.39,0.382010579,0.317019463,-0.715755642
7.4,0.383254737,0.316966057,-0.708981037
7.41,0.573133528,1.698257446,-1.352645397
7.42,0.585759521,2.480923653,-1.092411757
7.43,0.136504039,3.263631821,-1.576971292
7.44,-0.420367003,3.771056175,-2.31266427
7.45,-0.421307504,3.770957947,-2.307196617
7.46,-0.676622152,4.309664726,-0.952290952
7.47,0.273016691,5.224285126,0.744125724
7.48,1.22225666,6.007065773,2.363449335
7.49,1.475762129,6.155261993,2.743982792
7.5,1.051397562,6.085642815,2.699801922
7.51,-0.55075419,5.072973251,3.1008389
7.52,-1.731680274,3.721013069,3.539106607
7.53,-2.053558826,1.859326363,4.266041279
7.54,-2.033209801,1.86026001,4.251621723
7.55,-1.643647194,0.031702995,3.785214186
7.56,-0.750609875,-0.956768036,2.030390501
7.57,-0.599910617,-0.025068283,2.026325464
7.58,-0.621567726,-0.02456665,1.968007088
7.59,-1.380304813,3.05277729,1.289076805
7.6,-1.477643967,4.286640167,2.047371387
7.61,-1.481407046,5.71229744,2.688132286
7.62,-1.129076719,5.620137215,2.949196339
7.63,-0.553682804,4.711349487,2.68031311
7.64,-0.561136961,4.711767197,2.665704727
7.65,-0.152188271,3.311019897,1.844638109
7.66,-0.069023043,1.751750946,0.933806896
7.67,-0.106324673,0.402801514,0.022769272
7.68,0.558552146,-1.820322514,0.015628666
7.69,1.069201231,-2.92540884,0.499740571
7.7,0.825073957,-3.932256699,0.062097132
7.71,0.493135691,-4.496069908,-0.451117992
7.72,0.455454499,-4.497192383,-0.437861025
7.73,0.38900283,-5.036769867,0.100475758
7.74,0.109574698,-5.25054121,0.053449214
7.75,-0.133851498,-5.411664486,-0.119687289
7.76,-0.024634019,-5.532146931,-0.423690707
7.77,-0.106059529,-5.78669548,-0.680838108
7.78,-0.242932797,-5.825655937,-0.783998489
7.79,-0.325229377,-5.711183071,-0.922377288
7.8,-0.264032632,-5.306869984,-0.794587731
7.81,-0.362370342,-4.801843166,-0.690721929
7.82,-0.552105069,-4.347067833,-0.810359001
7.83,-0.561400116,-4.347277641,-0.791897476
7.84,-1.107910752,-3.138493538,-1.159897566
7.85,-1.263567209,-2.588293552,-1.208134651
7.86,-1.235376716,-2.03100729,-1.131809354
7.87,-0.838163376,-1.416190147,-0.971981049
7.88,-0.19750309,-0.664702416,-0.587717414
7.89,-0.046408113,0.02233696,-0.088819638
7.9,-0.005756371,0.896262169,0.112990566
7.91,-0.488187075,1.954638481,0.016392618
7.92,-1.225153446,2.91740799,-0.494269431
7.93,-1.20400548,2.917906761,-0.454291076
7.94,-1.309168458,4.113307953,-1.515420675
7.95,-1.158616781,4.180976868,-1.740208626
7.96,-1.782491684,4.009036064,-1.851256609
7.97,-2.740952253,3.911103249,-1.882655501
7.98,-3.207422018,4.186644554,-1.348628283
7.99,-3.191641569,4.187077522,-1.334591031
8,-0.815622628,6.119953156,0.691323102
8.01,0.840747953,6.836906433,1.031904221
8.02,1.81000483,6.972452164,1.731001377
8.03,2.458628416,6.564810753,3.049154758
8.04,2.726954937,5.075124741,4.01404953
8.05,2.283243895,2.967806816,3.846226454
8.06,2.29433322,2.969584465,3.878285646
8.07,1.771117926,1.050100327,2.806004524
8.08,1.785925984,-1.111833572,0.841366947
8.09,1.689369917,-0.712508202,-0.176179647
8.1,1.361362576,-0.176803589,-0.377556145
8.11,0.954657972,1.029211044,-0.352049291
8.12,0.513640106,1.988702774,-0.166877717
8.13,0.066209599,2.787881851,0.391356468
8.14,0.63125509,3.045957565,1.033263564
8.15,1.247959137,2.511159897,1.499962568
8.16,1.176695347,1.430409431,0.888963223
8.17,0.996272385,0.129430771,0.560082555
8.18,0.892156243,-0.901082993,0.834506571
8.19,0.658993363,-2.065806866,0.399993956
8.2,0.228474915,-3.254243374,-0.322996765
8.21,-0.156074062,-4.145248413,-0.284435391
8.22,-0.204182938,-4.834874153,0.264976203
8.23,-0.385422289,-5.58423996,0.477583528
8.24,-0.505504549,-5.998252392,0.419052661
8.25,-0.615332663,-6.335497856,0.588432074
8.26,-0.443574518,-6.409318924,0.804187119
8.27,-0.420687586,-6.408935547,0.792173445
8.28,0.311694175,-6.396521568,0.537696123
8.29,0.152426004,-5.435857773,0.161925644
8.3,0.175555527,-5.435235023,0.150882274
8.31,0.556764245,-4.208865643,-0.437172473
8.32,0.570196569,-4.208634853,-0.453552544
8.33,0.67356658,-3.037711143,-0.641539931
8.34,0.78704226,-2.436745644,-1.065294027
8.35,0.593330443,-1.910168171,-1.170531154
8.36,0.218272239,-1.170482635,-1.154362559
8.37,-0.079972178,-0.488221169,-1.086312175
8.38,-0.353279561,-0.004550934,-1.048531651
8.39,-0.442477167,0.26858902,-0.780290246
8.4,-0.398908019,0.436493874,-0.589960933
8.41,-0.244952321,0.573355675,-0.64347434
8.42,0.016508132,0.770104408,-0.757135689
8.43,0.25531596,1.311663628,-0.686891019
8.44,0.25817281,1.312217712,-0.666826129
8.45,-0.009901971,2.945795059,-1.14414084
8.46,-0.325858176,3.442253113,-1.638420701
8.47,-0.316324621,3.443155289,-1.620907903
8.48,-0.915006995,3.209452629,-2.040960312
8.49,-0.903300822,3.210219383,-2.033841372
8.5,-1.123379469,2.866358757,-1.417341471
8.51,0.109058559,4.270176888,1.760335088
8.52,0.433990479,4.637081146,1.977171898
8.53,0.730202496,5.147891045,2.503192902
8.54,0.57857722,4.995758057,3.882729053
8.55,0.59577328,4.997110367,3.894473314
8.56,-0.078563452,2.446172714,4.076847553
8.57,-0.270702064,1.020292282,3.079336643
8.58,-0.060955942,0.307245255,1.93477571
8.59,-0.066486955,0.306694984,1.928644061
8.6,-0.235646129,1.375338554,1.869460583
8.61,-0.26627332,1.372488022,1.835317969
8.62,-0.357213557,2.428079605,1.414527535
8.63,-1.89154923,4.073322296,0.77633822
8.64,-1.900330067,4.481060982,2.002389431
8.65,-1.819570065,4.209116936,1.900443077
8.66,-1.303482771,3.336705208,0.92103976
8.67,-0.641773105,1.966768265,0.536341012
8.68,-0.403886229,0.635151863,0.446627855
8.69,-0.41224283,0.634625435,0.435830563
8.7,0.543491185,-2.13631916,0.065877512
8.71,1.102548599,-3.123772144,0.515252948
8.72,1.578392506,-3.929493904,0.889857173
8.73,1.565835714,-4.519652843,0.992871881
8.74,1.430229306,-4.9492836,0.783410311
8.75,1.401015162,-5.282996655,0.464913756
8.76,0.95229578,-5.461027622,0.186847314
8.77,0.573210537,-5.519206524,-0.156998649
8.78,0.390650451,-5.584411621,-0.096225753
8.79,0.356118947,-5.584871292,-0.096465409
8.8,0.362250656,-5.42000103,-0.2626279
8.81,0.090194285,-5.228635788,-0.194073841
8.82,-0.224066317,-4.955746174,-0.188376069
8.83,-0.245058537,-4.955695629,-0.173134074
8.84,-1.02106452,-4.007396221,-1.059105873
8.85,-1.360181808,-3.492355347,-1.44007647
8.86,-1.360202551,-3.491939545,-1.406396866
8.87,-1.488010764,-3.019622803,-1.662759781
8.88,-0.89195472,-1.620534897,-0.977001727
8.89,-0.878548741,-1.619529724,-0.93646276
8.9,-0.754657745,-0.437975884,-0.549571216
8.91,-0.854194582,0.025473595,-0.301848561
8.92,-0.727041125,0.6398983,-0.30969131
8.93,-0.70876956,0.641467094,-0.274125487
8.94,-1.127620578,1.864055634,-0.980801165
8.95,-1.280314207,2.497404099,-0.897250056
8.96,-1.26967442,2.498220444,-0.883109927
8.97,-1.248625278,3.336550713,-1.131466389
8.98,-1.823567867,3.597493172,-1.601689458
8.99,-2.514181137,3.705109596,-2.043428421
9,-3.092359543,3.743617058,-1.607009172
9.01,-2.746732235,4.218378067,-0.354308635
9.02,-2.722279072,4.219696999,-0.337110221
9.03,0.194406807,6.141953468,0.600868821
9.04,1.526478171,6.422665596,0.464270324
9.05,2.714897871,6.177174568,2.372155666
9.06,3.051829576,5.387673378,4.693720341
9.07,2.386723042,3.635639191,3.649991274
9.08,1.839036226,1.941389084,1.992987514
9.09,1.821185589,0.634088516,1.987561464
9.1,1.500000477,-0.056986809,1.085401773
9.11,1.30490911,-0.162755013,-0.37302953
9.12,1.352599859,0.186058044,-0.253393829
9.13,1.346120834,0.184503555,-0.271006048
9.14,1.014601827,1.178473473,0.704688013
9.15,0.949599922,2.498101234,1.052600384
9.16,0.655603051,2.594498634,1.091539025
9.17,0.831798613,2.17599678,1.065824747
9.18,1.164144039,1.390804291,0.953884006
9.19,0.950478792,0.516751289,0.87550652
9.2,0.934590936,0.514000893,0.834461927
9.21,-0.279874504,-1.17895031,0.246089518
9.22,-0.288029432,-1.181075096,0.207761824
9.23,-0.477388978,-3.430813313,0.513041556
9.24,-0.402980655,-4.145442486,0.863681436
9.25,-0.393787593,-4.146143436,0.845162034
9.26,-0.600034177,-5.518234253,0.701423407
9.27,-0.575423777,-5.517871857,0.700802028
9.28,-0.393371701,-5.924275875,0.448048681
9.29,-0.210609451,-6.174957752,0.182882652
9.3,0.293674558,-6.169537544,-0.214183509
9.31,0.637392879,-5.702293873,-0.04008171
9.32,0.846474826,-5.180256844,0.178073555
9.33,0.864816248,-5.180418015,0.160064459
9.34,0.472250164,-3.803777695,-0.253232092
9.35,0.393124223,-3.106973171,-0.7312904
9.36,0.173761413,-2.462688446,-1.255375504
9.37,0.237371117,-2.031271458,-1.535109162
9.38,0.249628246,-2.030683994,-1.532345533
9.39,0.234972462,-1.582413673,-1.467430353
9.4,0.274623752,-0.617095947,-0.444532752
9.41,0.35715574,-0.281667709,0.113701344
9.42,0.260848731,0.099081039,0.106362373
9.43,0.209582895,0.513320923,-0.588783383
9.44,0.187392965,1.061676979,-1.215570331
9.45,0.079978079,1.938023567,-1.307753563
9.46,0.05563128,2.838267326,-1.022108555
9.47,-0.409250081,3.633088112,-0.961339891
9.48,-0.5873999,4.071159363,-1.525417805
9.49,-0.771538556,3.980195045,-2.336945057
9.5,-0.769678593,3.98045826,-2.332174778
9.51,-0.737972736,3.803634644,0.06106478
9.52,0.336323649,4.627538681,2.405395985
9.53,0.390482903,5.0563097,2.315705299
9.54,0.396367282,5.057108879,2.329000235
9.55,0.046415269,5.245314598,2.952790976
9.56,-0.585248232,4.279902458,3.010811329
9.57,-0.764567614,2.919845581,2.511176825
9.58,-0.93539238,1.478318214,2.854193926
9.59,-0.801504076,0.404612541,3.199141979
9.6,-0.793993831,0.404421806,3.188076973
9.61,-0.152285665,0.330975533,2.887874126
9.62,-0.246597558,0.806818962,2.531090498
9.63,-0.827106357,1.87623024,1.508903146
9.64,-1.07198298,3.219060898,0.737559795
9.65,-1.442599058,4.265542984,0.936395526
9.66,-2.225228786,4.857586861,1.746904612
9.67,-2.393943071,4.624085426,2.326857805
9.68,-1.559442759,3.557764053,2.020416021
9.69,-0.744262159,1.775817871,0.684297741
9.7,-0.751508176,1.775448799,0.678845346
9.71,0.017210126,-1.028573036,-0.845728457
9.72,0.372583538,-2.290751457,-0.453541517
9.73,0.709536314,-3.222993851,0.15332441
9.74,0.680934191,-3.224094391,0.139018238
9.75,1.205072403,-4.762413979,0.892699182
9.76,1.14639914,-5.230333328,0.487919271
9.77,0.71120292,-5.566347122,0.165924072
9.78,0.266469806,-5.562121391,0.277907372
9.79,0.089759186,-5.622316837,0.096286178
9.8,0.071863316,-5.72304678,-0.1565485
9.81,0.040559538,-5.723012447,-0.146536812
9.82,-0.056127112,-5.672562122,0.050161034
9.83,-0.063360862,-5.449595928,0.137984797
9.84,-0.337848336,-5.006208897,-0.09179011
9.85,-0.352694005,-5.005565166,-0.066963136
9.86,-0.740122616,-4.082949162,-1.135315657
9.87,-0.887824893,-3.485737324,-1.239202976
9.88,-0.884261251,-2.835657597,-1.188555956
9.89,-0.876388311,-2.83409071,-1.143503904
9.9,-1.049269319,-1.333292007,-0.977944017
9.91,-1.053333402,-0.603134155,-0.761474729
9.92,-0.95236361,0.093670845,-0.501955211
9.93,-0.837752402,0.596533775,-0.355282068
9.94,-0.768982112,1.132816315,-0.69745177
9.95,-1.215464592,1.688317299,-1.412603855
9.96,-1.416729331,2.282169342,-2.337659597
9.97,-1.039904475,2.991083145,-1.89062047
9.98,-1.031748295,2.993155479,-1.863544226
9.99,-0.806921244,3.997625351,-0.968747735
10,-1.833399177,3.910262108,-1.975681067
10.01,-2.680150509,3.734219551,-1.885391116
10.02,-3.069070101,3.31301403,-1.487003326
10.03,-3.262877226,3.284737587,-1.270442009
10.04,-1.67039001,4.210464478,0.444463342
10.05,0.745028257,5.3022995,1.260152698
10.06,1.949203968,5.842074394,0.743165851
10.07,1.947069883,5.846927643,0.796216488
10.08,2.605854273,6.223169327,1.823440075
10.09,2.276187658,5.2789011,3.319857597
10.1,2.010383129,3.796851158,3.767099857
10.11,1.764038205,1.729043007,3.237139702
10.12,1.075472355,0.015639305,2.145167112
10.13,1.066335678,0.012914658,2.120371103
10.14,0.220368624,-1.180341721,0.118304789
10.15,0.180712327,-0.733622551,-0.028622866
10.16,0.2257981,-0.11217308,0.270059347
10.17,0.432034105,0.856617928,0.389144659
10.18,0.414706081,1.593570709,0.786459088
10.19,0.78965658,1.925914764,1.230454326
10.2,1.136250854,2.001792908,1.392457247
10.21,1.148554325,1.58434391,1.312068462
10.22,0.596002221,0.752690315,1.025990248
10.23,0.592611671,0.749504089,0.97939682
10.24,-0.234646171,-1.571002007,0.148725748
10.25,-0.444583654,-2.851906776,0.155980557
10.26,-0.440738678,-2.8537817,0.120208412
10.27,-0.560331345,-4.837739468,0.392912328
10.28,-0.465987533,-5.497350216,0.403076589
10.29,-0.417037129,-5.960379601,0.361006856
10.3,-0.32583189,-6.085515499,0.181576014
10.31,-0.207148656,-5.992631912,0.045900911
10.32,0.038146198,-5.839895248,0.011683196
10.33,0.272869378,-5.521939754,0.087865829
10.34,0.48741281,-5.117826462,0.247937024
10.35,0.328708589,-4.519698143,0.112304211
10.36,0.477265656,-4.050614834,-0.191666275
10.37,0.492387235,-4.050676823,-0.210841507
10.38,0.742316425,-2.779272079,-0.598993599
10.39,0.751751185,-2.779201508,-0.609268308
10.4,0.738495708,-1.795103073,-0.62942946
10.41,0.695531666,-1.242027283,-0.61465162
10.42,0.694779694,-1.242113113,-0.618344605
10.43,0.30376178,-0.274924278,-0.42216599
10.44,0.304542393,-0.274900436,-0.422527194
10.45,0.327718765,0.414669991,0.61002779
10.46,0.330335379,0.414791107,0.612300396
10.47,0.053805888,0.539692879,-1.273082018
10.48,-0.424378127,1.809036255,-1.639938951
10.49,-0.292639911,2.573075294,-1.952547073
10.5,-0.317467868,3.241289139,-2.048352242
10.51,-0.17911458,3.921379089,-1.611027241
10.52,-0.102658063,4.048186302,-1.167328358
10.53,-0.108505607,4.04784584,-1.173339009
10.54,-0.464092165,3.755392075,-0.227658659
10.55,-0.329455018,4.329726219,1.465339422
10.56,0.533946455,5.078934669,2.86106348
10.57,0.35596177,5.246435165,2.523503304
10.58,-0.144436151,5.220541,1.552351952
10.59,-0.130727381,5.221844673,1.585494995
10.6,-0.50432688,4.655885696,2.243818045
10.61,-0.72668767,3.180148125,2.848649979
10.62,-0.970223069,0.02100563,3.80760932
10.63,-0.95213759,0.021692276,3.806265354
10.64,-0.490849018,-0.706168175,3.86444211
10.65,-0.291633576,-0.489066124,2.700093746
10.66,-0.295165122,0.924725533,1.251081586
10.67,-0.246035159,2.28323555,0.723533392
10.68,-0.268019915,2.281920433,0.703819811
10.69,-0.863638997,4.090963364,0.303658396
10.7,-1.656724334,5.208332062,0.736061633
10.71,-1.999800205,4.762366295,2.397117138
10.72,-1.049654245,3.066727638,1.780776501
10.73,-1.057269096,3.066486359,1.780187845
10.74,-0.774182439,1.254110336,0.446281314
10.75,-0.382678419,-1.738473892,-0.597533584
10.76,0.069077834,-2.717750549,-0.34134531
10.77,0.055244252,-2.718061447,-0.338106513
10.78,0.352726162,-3.602061749,-0.008649901
10.79,0.500303268,-4.301783562,-0.015384331
10.8,0.847159445,-5.142808914,0.140739277
10.81,0.728700995,-5.330119133,0.425894797
10.82,0.442537159,-5.469514847,0.611358285
10.83,0.378021717,-5.601597309,0.397219777
10.84,0.316720069,-5.716702938,0.168993682
10.85,0.292873323,-5.716693401,0.17831856
10.86,0.210631877,-5.774004459,-0.226370379
10.87,-0.013231603,-5.589407921,-0.242305905
10.88,-0.100652486,-5.127066612,-0.304175645
10.89,-0.11661461,-5.12679863,-0.293935984
10.9,-0.636483133,-4.017869949,-1.29158318
10.91,-0.758980215,-3.184129238,-0.762339115
10.92,-1.137324691,-2.414894581,-0.700621724
10.93,-1.773232579,-1.743391037,-1.697777867
10.94,-1.830549121,-0.887018204,-1.614488125
10.95,-1.80835104,-0.885110855,-1.570338607
10.96,-1.361274719,-0.04761219,-0.755700111
10.97,-1.163144588,0.938416481,-0.450350583
10.98,-1.160424471,1.675820351,-0.642289519
10.99,-1.30366981,2.198040009,-1.229857206
11,-1.286476135,2.200839996,-1.188681841
11.01,-1.263536215,2.833065987,-1.34506762
11.02,-1.258048654,2.83481884,-1.321395636
11.03,-0.881613791,3.053569794,-0.593209863
11.04,-1.799202323,3.453936577,-1.33241713
11.05,-2.804255724,3.433063507,-1.781280994
11.06,-3.048155308,4.03269577,-0.672635019
11.07,-3.030023575,4.034280777,-0.655668676
11.08,-0.447884083,5.844353676,0.611412764
11.09,-0.439872026,5.847772598,0.651217461
11.1,2.341943264,6.35477066,1.836807013
11.11,2.724737883,5.801134109,3.075607777
11.12,2.746589661,4.677389145,3.416375637
11.13,2.742992878,4.680768967,3.450603485
11.14,2.085717916,1.212996483,2.69128418
11.15,2.072702408,1.212256432,2.686079025
11.16,1.221248865,-0.326958656,1.108661056
11.17,0.997354031,0.041713715,0.106120586
11.18,0.992284775,0.039449692,0.083662093
11.19,0.602446139,0.604873657,-0.054832816
11.2,0.427500844,2.396469116,0.721089304
11.21,0.187130526,2.82587719,1.016505122
11.22,0.196237072,2.824255943,0.996740103
11.23,0.591490805,2.479925156,1.100857258
11.24,1.13095212,1.68987751,0.997526646
11.25,1.074674726,0.109238625,1.012543321
11.26,0.61635989,-0.676839829,0.995727301
11.27,0.607629776,-0.679914475,0.955685198
11.28,-0.2232683,-2.403781891,0.512661815
11.29,-0.218917698,-2.405320168,0.488914996
11.3,-0.737940013,-3.720497131,0.250470549
11.31,-0.719089449,-3.720488548,0.246086031
11.32,-0.691324472,-4.857214928,0.136188388
11.33,-0.420486122,-5.474164486,0.063520074
11.34,-0.174343392,-6.043413639,0.032677412
11.35,0.142340511,-6.198726654,-0.146662772
11.36,0.308682293,-6.028686523,-0.224927127
11.37,0.450842559,-5.571488857,0.210508615
11.38,0.741015017,-4.973186016,0.735886395
11.39,0.67572391,-4.561616898,0.703186572
11.4,0.37511614,-4.312578201,-0.644528449
11.41,0.280170769,-3.838160515,-0.58723402
11.42,0.290866733,-3.29695797,-0.688972831
11.43,0.330130965,-2.87782383,-1.236966372
11.44,0.341554552,-2.877331734,-1.236885667
11.45,0.345469534,-2.395371914,-1.051507235
11.46,0.395495117,-1.393883705,-0.213926852
11.47,0.447425783,-0.75892067,-0.309247911
11.48,0.447749049,-0.75860405,-0.304199934
11.49,0.721516311,0.7641325,-0.394572258
11.5,0.405573666,1.814956665,-0.549252629
11.51,0.401921868,1.815039635,-0.545206547
11.52,-0.469481945,3.601682663,-1.185412884
11.53,-0.700765491,4.131713867,-1.441076994
11.54,-0.700765252,4.130450249,-1.586408019
11.55,-0.694788575,4.131736755,-1.570233703
11.56,-0.593393028,2.979105949,-1.091943979
11.57,-0.899641991,2.853754044,-0.110260665
11.58,-0.521329463,3.477900505,0.593089879
11.59,-0.509989142,3.479338646,0.605933607
11.6,0.017432064,4.586655617,0.018139362
11.61,0.025679082,4.587491035,0.023975253
11.62,-0.124145627,4.915800095,1.368780375
11.63,-0.104839325,4.593168259,2.812799454
11.64,-0.302749634,3.674850464,3.59981513
11.65,-0.46328789,2.54347229,3.554544926
11.66,-0.30629617,1.478435516,3.539417744
11.67,-0.255882978,0.994109154,2.993663788
11.68,-0.261572123,0.992606163,2.97642231
11.69,-1.19829762,2.034763336,1.084287405
11.7,-1.718223691,2.753544807,0.522624075
11.71,-1.867259502,3.445903778,0.813186467
11.72,-1.884711385,3.443543434,0.790032387
11.73,-1.688980937,3.596436501,2.29314518
11.74,-1.489906669,2.899757385,1.715120435
11.75,-1.43753922,2.098502159,0.444479585
11.76,-1.44474411,2.097604752,0.433538497
11.77,-1.2800138,0.930862427,-0.344513536
11.78,-0.80881846,-0.207647324,-0.300525278
11.79,0.245881036,-2.328041077,0.622181118
11.8,0.225161478,-2.329779625,0.604281902
11.81,1.368457675,-3.93103981,1.231633306
11.82,1.418825269,-4.68238163,0.917256117
11.83,0.981524468,-5.117473602,0.420276135
11.84,0.735626698,-5.377370358,0.278205156
11.85,0.70528245,-5.378439426,0.273921788
11.86,0.505155325,-5.410424232,0.60581708
11.87,0.142772034,-5.74379015,0.042749643
11.88,0.236220345,-5.72247076,0.21314621
11.89,0.358570069,-5.545424938,0.447817564
11.9,0.332362145,-5.545423031,0.458205104
11.91,-0.225303322,-4.92969656,-0.653129458
11.92,-0.508056641,-4.383185863,-0.651316106
11.93,-0.521268845,-4.382483959,-0.632772148
11.94,-0.990247488,-3.373585701,-1.299030662
11.95,-0.994484067,-3.372409821,-1.274230599
11.96,-1.132016778,-2.733989716,-1.298128605
11.97,-1.228858829,-2.145760536,-0.922290266
11.98,-1.05246067,-1.066674232,-0.368486404
11.99,-1.040349364,-1.064968109,-0.342619538
12,-0.845065475,-0.443174362,-0.258211613
12.01,-0.62640816,0.935382843,-0.909735739
12.02,-0.615903735,0.937448502,-0.881681621
12.03,-1.340603113,2.781032562,-1.449507356
12.04,-1.326766253,2.783596039,-1.418124437
12.05,-0.92286247,3.964040756,-0.864724517
12.06,-0.957517982,4.073951721,-1.102751732
12.07,-0.954205811,4.075482368,-1.084928393
12.08,-2.31175518,3.509206772,-1.807382107
12.09,-2.735609055,2.95249176,-1.659702539
12.1,-2.719780684,2.954262733,-1.643180966
12.11,-2.319180727,3.344818115,-0.495510876
12.12,-0.79338634,4.327789307,0.785631299
12.13,0.799872398,5.203005791,0.992071927
12.14,2.3154006,5.803707123,0.597819567
12.15,2.297306299,5.491581917,1.649615884
12.16,2.301011324,5.496360779,1.690265298
12.17,1.908858776,4.374228477,2.131194592
12.18,1.355485201,1.281513214,2.398437023
12.19,1.402173996,0.086275101,1.868345499
12.2,1.400538206,0.085136414,1.859279037
12.21,1.149299145,-0.488558769,1.063450813
12.22,0.856813669,-0.090387344,0.226408482
12.23,0.56269753,0.367438316,-0.218610883
12.24,0.712541103,1.973597527,0.939592838
12.25,0.7168926,1.970264435,0.908137322
12.26,1.663035154,2.7038908,1.406880617
12.27,1.52480197,2.457818031,1.532705784
12.28,1.001336336,1.900113106,1.356584668
12.29,0.375317544,0.880421639,0.757858932
12.3,-0.154690892,-0.179284096,-0.138087869
12.31,-0.53603375,-1.168623924,-0.586017311
12.32,-0.519909978,-2.219459057,0.27951622
12.33,-0.435844004,-3.301174641,1.157930136
12.34,-0.671510637,-4.22204113,0.466666311
12.35,-0.735869288,-4.890437603,0.023499072
12.36,-0.57619828,-5.340217113,0.448789924
12.37,-0.55172199,-5.340119839,0.438617498
12.38,-0.015318066,-6.005765438,0.310550511
12.39,0.516516864,-6.00358963,0.60386014
12.4,0.726871371,-5.85094738,0.856865287
12.41,0.605052114,-5.528363705,0.599683166
12.42,0.567724824,-5.057075024,0.098183155
12.43,0.386429548,-4.38926506,-0.200285196
12.44,0.372309387,-3.876955986,-0.404198468
12.45,0.446875393,-3.292814255,-0.544670403
12.46,0.460443616,-3.292873383,-0.5584324
12.47,0.513184547,-2.119648933,-0.198560894
12.48,0.851715207,-1.415491104,-0.015619099
12.49,0.857449174,-1.414961815,-0.011916757
12.5,0.846830487,-0.882318497,-0.211324155
12.51,0.468616068,-0.085992813,0.057458997
12.52,0.475761592,-0.084466934,0.07579428
12.53,0.414876998,0.84131527,-0.90522188
12.54,0.190582931,1.376767159,-1.222233057
12.55,0.191206038,1.378278732,-1.200238705
12.56,-0.243534029,3.264097214,-1.236324787
12.57,-0.437439442,3.907449722,-1.4588691
12.58,-0.425965071,4.175152779,-1.895807981
12.59,-0.559323192,3.959273338,-2.469957829
12.6,-0.551807404,3.961348534,-2.449219465
12.61,-0.541248322,3.549139023,-2.466426373
12.62,-0.816874266,3.052949905,-0.483199239
12.63,-0.108938217,4.000283241,0.767113864
12.64,0.007652581,4.75117588,1.15256536
12.65,0.033167243,5.162600517,0.804694116
12.66,-0.591664076,4.991106033,1.050836563
12.67,-0.961842418,4.159976959,2.270395279
12.68,-0.931858778,4.16478157,2.298828125
12.69,-0.184726417,0.403222084,2.866227388
12.7,-0.158723056,0.407459259,2.888701677
12.71,-0.059832394,-0.949584007,2.494639158
12.72,0.356595755,-1.595462799,2.504826546
12.73,0.31943953,-0.617991447,2.430767536
12.74,0.308869302,-0.621103287,2.408089638
12.75,-0.305719018,1.846274376,0.315740943
12.76,-0.330996096,1.842824936,0.299930215
12.77,-1.561311007,4.499422073,0.149726212
12.78,-2.060418129,4.763661385,1.311450005
12.79,-1.651868582,3.995082855,2.492741585
12.8,-1.676946044,3.989929199,2.45142293
12.81,-0.66619575,2.757769585,3.084817648
12.82,-0.635994017,-0.232328415,-0.15955466
12.83,-0.280743659,-1.28150177,-1.170532703
12.84,-0.297629654,-1.281991959,-1.164231539
12.85,0.115907729,-2.155039787,-0.715456247
12.86,0.808133841,-2.921443939,0.042971551
12.87,1.394689679,-4.01170063,1.411671877
12.88,0.764546156,-4.359615326,1.635534286
12.89,0.862414837,-4.712000847,1.204782724
12.9,0.795007825,-4.898872852,0.767612815
12.91,0.754662037,-4.900866985,0.758558631
12.92,0.098680377,-5.158257008,-0.227481544
12.93,-0.141588539,-5.17751503,-0.50283277
12.94,-0.16632317,-5.176980972,-0.487093329
12.95,-0.682224453,-4.936491013,-0.768271685
12.96,-0.699115396,-4.934991837,-0.744145513
12.97,-0.60804832,-4.82069397,-0.804446876
12.98,-0.47662881,-4.706171513,-0.959194064
12.99,-0.643886685,-3.928154945,-1.308472157
13,-0.649207354,-3.925434113,-1.27627492
13.01,-0.69974339,-2.830145836,-1.316598058
13.02,-0.698438704,-2.82649231,-1.27814126
13.03,-0.818573475,-0.940748215,-0.624441683
13.04,-0.98290515,0.102013588,-0.333822966
13.05,-0.972669601,0.105572701,-0.301668406
13.06,-0.978402734,1.141324043,-0.433563948
13.07,-0.948369741,1.933347702,-0.72276783
13.08,-0.678423107,2.780943871,-1.571244121
13.09,-0.559655309,2.979857445,-1.607746005
13.1,-0.556630671,2.984250069,-1.573067427
13.11,-0.780976176,3.464125633,-1.034154773
13.12,-1.517220378,3.471273422,-1.410906911
13.13,-2.517592192,3.324557304,-2.23338151
13.14,-3.422701836,2.947859764,-2.720546246
13.15,-3.544542789,2.762574196,-1.704550266
13.16,-3.057326794,3.317294121,-0.277100325
13.17,-0.894580066,4.816318512,0.889974356
13.18,1.24937129,5.577823639,1.32241261
13.19,2.791929245,5.68264389,1.270011783
13.2,3.494289637,5.462781906,2.443915606
13.21,3.48994565,5.466321945,2.468698025
13.22,3.548918724,4.636443138,4.372544765
13.23,3.155035496,3.126819611,4.998663902
13.24,2.645900488,1.660151482,4.244082451
13.25,1.430795193,-0.354808807,0.907774687
13.26,1.429924488,-0.356986046,0.893394828
13.27,1.124632597,-0.137238503,-0.047960877
13.28,1.379689217,0.414040566,1.046789408
13.29,0.963613272,1.343034744,0.145494938
13.3,0.784223557,2.323699951,0.066595793
13.31,0.811268807,3.112811089,0.685466886
13.32,1.188433528,3.272706032,0.976669967
13.33,1.025279403,3.029547691,0.943423927
13.34,0.917859852,2.374156952,1.207675934
13.35,0.9004215,2.367311478,1.154105663
13.36,0.414868534,1.376682281,1.619184732
13.37,-0.49250719,-0.998898506,0.519786656
13.38,-0.629290283,-2.155884266,-0.030181408
13.39,-0.727370381,-3.187073231,-0.021536052
13.4,-0.715347648,-3.187805653,-0.032492936
13.41,-0.649874151,-4.693875313,0.32799989
13.42,-0.628812075,-4.693572998,0.324009359
13.43,-0.421771735,-5.160188198,0.503155232
13.44,0.053464532,-5.701210499,0.859434724
13.45,0.334998041,-5.785122871,0.82490927
13.46,0.360224038,-5.76140976,0.747921586
13.47,0.259854317,-5.639442921,0.107929349
13.48,0.289704263,-5.337466717,-0.5119192
13.49,0.198861927,-4.831840038,-0.955910325
13.5,0.245011568,-4.374281883,-1.157169461
13.51,0.491072416,-3.660738945,-0.930473447
13.52,0.700814545,-2.916151047,-0.388529956
13.53,0.728868365,-2.193004608,-0.058274806
13.54,0.719552577,-1.495880127,0.180894315
13.55,0.706548691,-0.862359047,0.316116154
13.56,0.848737955,-0.360142708,0.474926978
13.57,1.092229366,-0.001655579,0.457792431
13.58,1.013245583,0.308348656,-0.294422984
13.59,1.004563093,0.308966637,-0.282391787
13.6,0.896630049,0.686975479,-1.139607787
13.61,-0.163523972,2.568302155,-0.986317098
13.62,-0.517822087,3.561328888,-0.659985542
13.63,-0.531951726,3.561104774,-0.654701471
13.64,-0.569529116,3.90369606,-0.356849551
13.65,-0.486689717,3.856760979,-0.179073274
13.66,-0.448299557,3.332509995,-0.243834019
13.67,0.167241126,4.034622192,0.493867815
13.68,0.169612527,4.037301064,0.51820904
13.69,0.348105878,4.867562294,0.679663062
13.7,0.321713746,5.51511097,0.519509852
13.71,0.317280173,5.515270233,0.52296561
13.72,-1.411423206,4.057009697,1.568080068
13.73,-1.812661409,2.956073761,1.793598533
13.74,-1.719816566,1.655006409,1.931653261
13.75,-0.861947775,0.608505249,2.686414242
13.76,-0.253236949,-0.100552559,2.745127916
13.77,-0.228045821,-0.127708435,2.17773056
13.78,-0.168930471,0.435613632,2.441381454
13.79,-0.409284413,1.277610779,2.311653614
13.8,-0.73981452,1.980217934,1.460876465
13.81,-0.749703169,1.979141235,1.456180453
13.82,-1.074001074,2.852058411,1.227522731
13.83,-1.843883276,3.06829071,2.07881856
13.84,-1.85140872,3.066531181,2.066256046
13.85,-1.433814883,1.163705826,-0.024092197
13.86,-1.444959164,1.161635399,-0.038104892
13.87,-0.525707603,-0.560350418,0.183097243
13.88,-0.545495153,-0.564100266,0.155796528
13.89,0.282548964,-2.131700993,0.979212344
13.9,0.518987,-2.741452217,1.310302496
13.91,0.560753405,-3.374777794,1.433337808
13.92,0.535923481,-3.377895355,1.409579992
13.93,0.673609972,-3.763630867,1.155337811
13.94,0.522916734,-4.124815464,0.828108847
13.95,0.650010228,-4.250531197,0.442774504
13.96,0.437761188,-4.351840019,0.397547513
13.97,0.411263347,-4.352367401,0.39928177
13.98,0.249924392,-4.369559288,0.534891486
13.99,-0.222530052,-4.197330952,0.349039286
14,-0.244167939,-3.998556614,0.049746037
14.01,-0.205275685,-3.794599533,-0.210310102
14.02,-0.520864189,-3.494661331,-0.289222658
14.03,-0.531065583,-3.493975639,-0.279901862
14.04,-0.887521744,-3.265850544,-0.185165286
14.05,-0.777805269,-2.606524944,-0.217794001
14.06,-0.816636205,-2.210149765,-0.035738885
14.07,-0.812814593,-2.208497047,-0.018437624
14.08,-0.646884203,-1.512000084,-0.178999126
14.09,-0.63494122,-1.509457588,-0.154697657
14.1,-0.359664381,-0.402900696,0.244546354
14.11,-0.150566205,0.07419014,-0.109386325
14.12,-0.278082311,0.556777,-0.352268696
14.13,-0.386810422,1.178574562,-0.502733827
14.14,-0.368369639,1.182807922,-0.469076514
14.15,-0.298960775,1.769042015,-0.611664295
14.16,-0.350403011,2.441399574,-0.786622167
14.17,-0.340078294,2.445158005,-0.758388639
14.18,-1.641934752,2.437671661,-1.385089397
14.19,-2.253794909,2.230423927,-1.302101374
14.2,-2.22327137,2.678772926,-0.430633307
14.21,-1.132219195,3.512947083,0.212970018
14.22,-0.184195697,4.321899414,0.642846644
14.23,1.16328001,5.066419601,1.267133474
14.24,1.545827866,5.017918587,0.912360311
14.25,1.504730821,4.731919289,1.130837321
14.26,1.53044939,4.005822182,1.693988204
14.27,1.233808041,2.840593338,1.358884811
14.28,1.219001293,1.958687782,0.817220449
14.29,1.104438186,1.231076241,1.127531528
14.3,0.902390897,0.689796448,1.639016747
14.31,0.701357245,0.457871437,1.825407028
14.32,0.700174451,0.454967499,1.807365179
14.33,0.940399528,0.842196465,1.538532495
14.34,1.274921298,1.351852417,1.182818413
14.35,1.186518431,1.818539619,0.722760975
14.36,1.185129046,1.815560341,0.703309238
14.37,1.150461912,2.553519249,0.714422166
14.38,1.066563368,2.440050125,0.88155371
14.39,0.850588083,2.097925186,1.105079532
14.4,0.511116087,1.367155075,1.331375837
14.41,0.166306704,0.512125015,1.18630743
14.42,-0.18420589,-0.363089562,1.062877417
14.43,-0.395949513,-1.32768631,1.102551818
14.44,-0.26079154,-2.281359196,1.079085588
14.45,-0.189854473,-2.977677822,1.059017777
14.46,-0.111226469,-3.570082188,0.928549886
14.47,-0.013171703,-3.879679203,0.871358812
14.48,0.071706384,-3.856463909,0.890373588
14.49,0.047114432,-3.835744381,0.915281832
14.5,0.059472114,-3.83667326,0.902831495
14.51,0.136794329,-3.198441982,0.735619068
14.52,0.149611145,-3.199355602,0.72244513
14.53,0.233289689,-2.364480495,0.285005152
14.54,0.57017982,-1.946220875,0.092456877
14.55,0.752446175,-1.597574234,0.215535522
14.56,0.754728198,-1.598856926,0.201988637
14.57,0.955856323,-1.184007645,1.328936815
14.58,0.953776002,-1.185835838,1.311009526
14.59,0.927021444,-0.809153557,1.482304811
14.6,0.924732149,-0.810235977,1.471974492
14.61,0.60378015,-0.289871216,0.176779807
14.62,0.612175405,0.05810833,-0.042596936
14.63,0.584118605,0.055513382,-0.062664747
14.64,0.804623485,0.975101471,0.093556881
14.65,0.583743215,1.327454567,-0.038470864
14.66,0.258810431,1.407361984,-0.085437715
14.67,0.031817928,1.095134735,0.010549128
14.68,0.01878573,1.094683647,0.007844567
14.69,-0.126945511,0.659547806,-0.074841201
14.7,-0.305345178,-0.550588608,0.496465832
14.71,-0.447392136,-1.214491844,0.299893379
14.72,-0.334468186,-0.989499092,0.779634297
14.73,-0.320831895,-0.986621857,0.809547782
14.74,-0.11229907,-0.05038929,1.426114321
14.75,-0.513507187,1.891348839,-0.407461464
14.76,-0.844706297,3.332053185,-0.113964558
14.77,-1.076839209,4.453531265,0.114363372
14.78,-1.457173705,4.73890686,-0.083401799
14.79,-1.460734248,4.739214897,-0.079351604
14.8,-1.369700313,2.426245689,0.896947265
14.81,-1.372368574,2.42620945,0.897182226
14.82,-0.486899316,-0.616798401,1.116901278
14.83,-0.410148859,-1.43575573,1.235931158
14.84,-0.644542217,-1.541676521,1.113167405
14.85,-0.654762268,-1.260251045,0.884594619
14.86,-0.772405624,-0.567231178,0.625029564
14.87,-1.044245362,0.120835304,0.557952881
14.88,-0.932889521,0.73954773,0.66351068
14.89,-0.939757645,0.738286018,0.651165605
14.9,-0.555919945,1.101368904,0.39920345
14.91,-0.248106316,0.650964737,0.081511378
14.92,0.002966657,0.008991241,0.31930691
14.93,0.190675572,-0.598380089,0.455010176
14.94,0.003342301,-1.086072922,0.536538243
14.95,-0.000565827,-1.087743759,0.51721108
14.96,-0.189680368,-1.321738243,0.566296637
14.97,-0.426015258,-1.55100441,0.65405196
14.98,-0.563662469,-1.476270676,0.919214487
14.99,-0.555731356,-1.478060722,0.893702507
15,-0.928555012,-1.015198708,0.642580926
15.01,-0.973149121,-0.693357468,0.381929606
15.02,-0.81900835,-0.459794998,0.213717371
15.03,-0.793370605,-0.460855484,0.18766579
15.04,-0.230801404,0.00469017,0.697932482
15.05,-0.131293058,0.036716461,0.85628593
15.06,-0.092323035,0.14054966,0.984298885
15.07,-0.081557333,0.138972282,0.947006345
15.08,0.002505302,0.032240868,0.597123027
15.09,0.009112179,0.031042099,0.564924061
15.1,0.029852122,0.092227936,0.547442555
15.11,0.032910615,0.09126091,0.519215405
15.12,-0.177268654,0.24366951,0.497322857
15.13,-0.264144242,0.281374931,0.244345278
15.14,-0.486143827,0.264306068,0.127029255
15.15,-0.476643831,0.22107029,-0.207455665
15.16,-0.469261318,0.22107029,-0.216825575
15.17,-0.354203939,0.05837822,-0.162901014
15.18,-0.322653323,-0.006126404,0.197613478
15.19,-0.21195665,-0.226298332,-0.377192289
15.2,-0.20600915,-0.226146698,-0.380629838
15.21,-0.161817104,-0.326807022,-0.362148881
15.22,0.237073973,-0.03000164,0.268222481
15.23,0.073399484,0.01800251,-0.326850653
15.24,0.118259817,0.030357361,-0.244860902
15.25,0.056166261,0.011703491,-0.040743962
15.26,-0.176338404,-0.088380814,-0.131302238
15.27,-0.170960516,-0.087979317,-0.12472871
15.28,-0.198720723,-0.080566406,0.039141029
15.29,-0.315859646,-0.085197449,-0.133724392
15.3,-0.488792658,-0.09449482,-0.252479553
15.31,-0.501132786,-0.208984375,-0.437005431
15.32,-0.359268725,-0.364126205,-0.553495646
15.33,-0.181263626,-0.490145683,-0.369109899
15.34,-0.049646348,-0.518072128,-0.293481231
15.35,-0.038838238,-0.517309189,-0.285591334
15.36,-0.037548214,-0.502183914,-0.208899945
15.37,-0.05980581,-0.400803566,-0.325757861
15.38,-0.048914671,-0.399949074,-0.316510141
15.39,0.086828589,-0.303406715,-0.228548855
15.4,0.092280149,-0.302892685,-0.222112089
15.41,0.317987859,-0.197343826,-0.325212777
15.42,0.352726281,0.09945488,-0.243436366
15.43,0.324766517,0.398378372,-0.138411522
15.44,0.202760994,0.541664124,-0.232138336
15.45,0.074113935,0.541374207,-0.340457112
15.46,-0.030253947,0.490911484,-0.329777718
15.47,0.126220197,0.35191536,-0.463566721
15.48,0.116769642,0.351693153,-0.456818998
15.49,0.257284522,0.121620178,-0.580986619
15.5,0.24635075,0.121450424,-0.571908951
15.51,0.257216811,0.035105705,-0.201490492
15.52,0.280270785,-0.036915779,-0.010553688
15.53,0.378425241,-0.132857323,-0.054424167
15.54,0.328638226,-0.164039612,-0.024659097
15.55,0.299374372,-0.209483147,-0.126140147
15.56,0.292647094,-0.209383965,-0.117247224
15.57,0.050432682,-0.324117661,-0.326034576
15.58,0.243949994,-0.357494354,-0.33240509
15.59,0.327458441,-0.288078308,-0.257007301
15.6,0.460611939,-0.132796288,-0.193273813
15.61,0.40915969,0.034266472,-0.059976488
15.62,0.259469122,0.148601532,-0.043338627
15.63,0.24682796,0.147999764,-0.046654642
15.64,0.188440427,0.183393478,-0.400388837
15.65,0.192541078,0.362565041,-0.428909123
15.66,0.295369923,0.350084305,0.434007794
15.67,0.280464619,0.349374771,0.428087175
15.68,-0.224583685,0.044808388,-0.869098246
15.69,-0.093300968,0.032599449,-0.019673169
15.7,0.088969424,0.02973175,0.38344717
15.71,-0.174019992,0.02944088,-0.4630014
15.72,-0.318378061,0.029586792,-0.636368513
15.73,-0.322097957,0.029918671,-0.627303124
15.74,-0.17744647,0.039774895,-0.219330907
15.75,-0.427045733,-0.098866463,-0.031095833
15.76,-0.430188716,-0.09868145,-0.025704771
15.77,-0.222707883,-0.129722595,-0.131808817
15.78,-0.125478879,-0.019519806,-0.113451451
15.79,-0.232329413,-0.012152672,-0.20866552
15.8,-0.37506491,0.028922081,-0.274624705
15.81,-0.392971158,0.02710247,-0.316448301
15.82,-0.390178323,0.027770042,-0.304695904
15.83,-0.191490978,-0.244555473,-0.174319267
15.84,-0.118157297,-0.184184074,-0.131704867
15.85,-0.101207718,-0.131082535,-0.361041665
15.86,-0.087320477,-0.020519257,-0.398734212
15.87,-0.087601349,-0.020133972,-0.391432941
15.88,-0.195140302,0.056712151,-0.030733407
15.89,-0.068023369,0.035365105,-0.233340263
15.9,-0.104159907,0.011701584,-0.283553541
15.91,-0.034610495,-0.009569168,-0.173232377
15.92,-0.183389887,-0.035654068,-0.288777888
15.93,-0.18183887,-0.035250664,-0.282476127
15.94,-0.344657838,-0.058761597,-0.192378342
15.95,-0.321141064,-0.1229496,-0.219893932
15.96,-0.242116079,-0.177564621,-0.371921241
15.97,-0.242400602,-0.160261154,-0.293185115
15.98,-0.151645362,-0.095205307,-0.113263905
15.99,-0.148460001,-0.094949722,-0.110544086
16,-0.126843229,0.013005257,-0.124920964
16.01,-0.124190375,0.013278961,-0.121629477
16.02,-0.126892179,0.039897919,-0.213895142
16.03,-0.057989895,0.088058472,-0.231707335
16.04,-0.055890009,0.088253975,-0.229429424
16.05,-0.091730267,0.06686306,-0.089184999
16.06,-0.163119018,-0.004764557,-0.099182963
16.07,-0.238167346,-0.00929451,-0.000809133
16.08,-0.233624131,-0.009032249,0.001524866
16.09,0.096000627,0.041548729,0.004507065
16.1,0.006558627,0.041989326,-0.031372666
16.11,0.011506617,0.042537689,-0.025134087
16.12,-0.365107864,0.177270889,-0.326818764
16.13,-0.407082498,0.214010239,-0.473790467
16.14,-0.39828983,0.214943886,-0.464049399
16.15,0.017147303,0.057730675,0.60698092
16.16,-0.050019085,-0.056738853,-0.214868665
16.17,0.040771216,-0.080055237,-0.246251643
16.18,0.044619977,-0.079662323,-0.24239558
16.19,0.119147763,-0.050888062,0.546055675
16.2,-0.089382529,-0.067501068,-0.270531178
16.21,-0.103401125,-0.179484367,-0.306044996
16.22,-0.100585192,-0.179269791,-0.304337621
16.23,0.087999612,-0.239334106,0.076178491
16.24,0.088306561,-0.203799248,0.023868203
16.25,0.075409383,-0.036717415,0.092408001
16.26,-0.146129906,0.046506882,0.13163954
16.27,-0.147378713,0.046252251,0.128372669
16.28,-0.369839102,0.247322083,0.218672425
16.29,-0.368286878,0.247506142,0.220452875
16.3,-0.033054203,0.051566124,0.108817875
16.31,-0.033307016,0.051960945,0.114346862
16.32,0.025754601,-0.048286438,0.143232882
16.33,0.137782618,-0.110392571,0.479278266
16.34,0.172168583,-0.167578697,0.116193593
16.35,0.060862958,-0.04268837,0.173340917
16.36,0.074497461,-0.027950287,0.040938914
16.37,0.090135753,-0.022752762,-0.071936488
16.38,0.042901576,-0.067930222,-0.025216699
16.39,-0.0146617,-0.00094986,0.095581889
16.4,0.070655257,0.02273941,0.077742934
16.41,-0.18260634,0.029663086,0.014685154
16.42,-0.183293581,0.051066399,-0.092978299
16.43,-0.24117893,0.055791855,-0.182769477
16.44,-0.118729413,0.048591614,-0.140821755
16.45,-0.056414694,0.055642128,0.060353398
16.46,-0.084724694,0.048269272,0.167172849
16.47,-0.087958843,0.048144341,0.166643858
16.48,-0.10213241,0.048111916,0.205408156
16.49,-0.055822223,0.04816246,0.125066042
16.5,-0.055902302,0.048348427,0.127537429
16.51,-0.074348062,0.048583984,0.22143954
16.52,-0.073819369,0.048829079,0.224315405
16.53,0.012468353,0.008444786,0.132738292
16.54,-0.052428991,0.039949417,0.123461545
16.55,-0.033030182,0.023537636,0.180630565
16.56,0.017709628,0.028697014,0.134675086
16.57,-0.036967069,0.03385067,0.218313217
16.58,-0.0773471,0.046156883,0.198642731
16.59,-0.201368004,-0.010949135,0.071346819
16.6,-0.200709254,-0.010540009,0.076135218
16.61,-0.154812098,-0.113044739,-0.105091572
16.62,-0.234930009,0.007139206,-0.080691278
16.63,-0.162070423,0.031273842,0.462419748
16.64,-0.161945909,0.031276703,0.462578714
16.65,0.113961011,0.052689552,0.82056433
16.66,-0.222648472,-0.148294449,0.020670116
16.67,-0.124600112,-0.172211647,0.061677933
16.68,-0.129804581,-0.081617355,-0.057808876
16.69,-0.130109996,-0.081926346,-0.061604142
16.7,-0.011361569,0.032881737,0.047358155
16.71,-0.07330519,0.188346863,0.49614799
16.72,-0.075024247,0.188215256,0.494936228
16.73,-0.229320809,0.23615551,0.144109488
16.74,-0.287335813,0.193172455,0.028490961
16.75,-0.222944349,0.052057266,0.0517959
16.76,-0.115347222,0.040241241,0.109005928
16.77,-0.115692392,0.040504456,0.112225473
16.78,-0.101308912,-0.014275551,0.166102409
16.79,-0.007141039,-0.186227799,0.10648036
16.8,-0.006441653,-0.185765266,0.111891866
16.81,0.137762249,-0.113493919,0.315725982
16.82,0.020419389,-0.136967659,0.003026247
16.83,0.020821244,-0.136268616,0.011030674
16.84,-0.124653459,-0.051787376,-0.115192115
16.85,-0.126330733,-0.051257133,-0.108653069
16.86,-0.078890294,0.001813889,-0.220442951
16.87,-0.101494327,0.057168961,-0.029209197
16.88,-0.107281476,0.083699226,0.045787156
16.89,-0.165179461,0.100734711,0.06638217
16.9,-0.259714127,0.06288147,0.038318217
16.91,-0.297437102,0.025164604,0.104779601
16.92,-0.276852608,-0.00776577,0.084550262
16.93,-0.274740994,-0.007117271,0.09107703
16.94,-0.210396096,-0.095153809,0.10626322
16.95,0.013594508,-0.061095238,0.018473387
16.96,0.045145035,-0.031998634,0.046186805
16.97,-0.060186967,-0.055683136,0.199834764
16.98,0.119310573,-0.041184425,0.134389699
16.99,0.118172795,-0.041014671,0.136435509
17,0.111870632,-0.050412178,0.196168959
17.01,0.04596293,-0.083823204,0.156949818
17.02,-0.033895999,-0.069297791,0.154166758
17.03,0.041646749,-0.059606552,0.146140993
17.04,0.092388645,-0.06191349,0.056563139
17.05,0.065903828,-0.035513878,0.09610486
17.06,-0.018366262,0.000355721,0.194524407
17.07,-0.021137193,0.000279427,0.194402814
17.08,-0.148423269,0.012217522,0.091890931
17.09,-0.150011703,0.012354851,0.093677223
17.1,-0.281706452,0.00069809,-0.00832212
17.11,-0.249249354,0.022760391,-0.115773559
17.12,-0.242822096,0.023291588,0.248514354
17.13,-0.004294261,-0.014706612,0.426299751
17.14,0.05555442,-0.141366005,0.397566557
17.15,-0.025264934,-0.157933235,0.349271298
17.16,-0.035304174,-0.143393517,0.269022703
17.17,0.051911384,-0.10252285,0.028236151
17.18,-0.050622538,-0.099864006,-0.316839397
17.19,-0.049297124,-0.099520683,-0.313739657
17.2,-0.020872101,0.125585556,0.479253948
17.21,-0.028836146,0.108519554,0.478723258
17.22,-0.092380852,0.05791378,0.068615556
17.23,-0.09358409,0.057815552,0.068009973
17.24,-0.022830784,-0.061928749,0.015186846
17.25,-0.023850471,-0.062015533,0.0145123
17.26,0.123862743,-0.033368111,0.315639794
17.27,0.168020964,-0.076450348,0.227433264
17.28,0.218847632,-0.11458683,0.109873533
17.29,0.188088045,-0.071176529,0.302887857
17.3,0.186225459,-0.07091713,0.305970609
17.31,0.071988612,-0.087324142,0.180698931
17.32,0.017865554,-0.110927582,0.014496684
17.33,0.06385164,0.006655693,0.166117966
17.34,0.061374724,0.006813049,0.16828537
17.35,-0.15537256,0.052504539,-0.037757397
17.36,-0.156195283,0.052744865,-0.035136998
17.37,-0.259170443,0.052930832,-0.08817929
17.38,-0.198901773,0.050706863,-0.00036341
17.39,-0.190864369,0.050857544,0.242602289
17.4,-0.105263278,0.060497284,0.233377636
17.41,-0.190976158,0.008160591,0.152156353
17.42,-0.239512086,0.013323784,0.246025205
17.43,-0.127187654,0.006477356,0.255526245
17.44,-0.108474046,-0.065037727,0.185729206
17.45,-0.063590288,-0.069508553,0.295654774
17.46,0.030777112,-0.090846062,0.253983438
17.47,0.037840635,-0.035593033,0.16653508
17.48,-0.070538938,-0.018596649,0.16366905
17.49,-0.058878899,0.010351181,0.182029367
17.5,-0.016436398,0.000927925,0.082527816
17.51,-0.015303016,0.00111866,0.084195435
17.52,-0.000810802,0.051531792,0.190731287
17.53,-0.00842002,0.013286591,0.227407038
17.54,-0.026493683,0.070731163,0.196521759
17.55,-0.121279106,0.070729256,0.156025946
17.56,-0.122551307,0.070705414,0.156101942
17.57,-0.128503054,0.070713997,0.09424305
17.58,-0.043670222,0.018021584,0.187757075
17.59,-0.227379605,-0.051391602,-0.199451983
17.6,-0.227254808,-0.051060677,-0.19623071
17.61,-0.071471184,0.054638863,0.058577716
17.62,-0.072122931,0.054867744,0.060947955
17.63,-0.121984094,-0.072140694,0.412320077
17.64,0.054305226,-0.127105713,0.576433063
17.65,0.199121177,-0.11764431,0.709662557
17.66,0.197932273,-0.11807251,0.705660939
17.67,0.065449864,-0.110953331,-0.008295894
17.68,-0.048333988,-0.110682488,-0.603981853
17.69,-0.011145443,0.183468819,0.399274349
17.7,-0.062679529,0.139972687,0.432012796
17.71,-0.066248909,0.139597893,0.429180801
17.72,-0.207354978,0.069974899,0.181141913
17.73,-0.041421354,0.053134918,0.190332055
17.74,-0.042823613,0.053217888,0.191323996
17.75,-0.109930828,-0.00393486,0.216140509
17.76,-0.109515816,-0.003516197,0.220084846
17.77,0.034685165,-0.01494503,0.148655713
17.78,-0.027206197,0.004785538,0.388680518
17.79,-0.098148331,-0.006771088,0.239369035
17.8,-0.202148795,-0.063734055,0.021104097
17.81,-0.20071204,-0.063130379,0.026479363
17.82,-0.06785585,-0.081764221,0.100706995
17.83,-0.076209828,-0.01180172,0.076791525
17.84,-0.182800978,-0.011328697,0.064162433
17.85,-0.064107895,-0.025307655,0.033942819
17.86,-0.063667744,-0.024929047,0.037258863
17.87,-0.190537706,0.059140205,0.130750001
17.88,-0.177568838,0.076097488,0.20668745
17.89,-0.192833856,0.030849457,0.110579789
17.9,-0.20030579,-0.007011414,0.195560098
17.91,-0.2648426,-0.025829315,0.135920584
17.92,-0.194929361,-0.068601608,0.152537704
17.93,-0.182561755,-0.027671814,0.106151044
17.94,-0.179875299,-0.027562141,0.106484115
17.95,0.016551316,0.070544243,0.352063954
17.96,0.017135262,0.07032299,0.34995383
17.97,0.024817556,0.077370644,0.331669509
17.98,-0.039091378,0.077450752,0.097557783
17.99,-0.054847941,0.075281143,0.022764683
18,-0.053874731,0.022913933,0.030132174
18.01,-0.053031534,0.02317524,0.032466173
18.02,-0.018897951,-0.045984268,0.097189844
18.03,-0.001934618,-0.050535202,0.249986708
18.04,-0.104687661,0.009467125,0.330425203
18.05,-0.173099607,0.062324524,0.331605971
18.06,-0.178870797,0.079294205,0.290269494
18.07,-0.153215706,0.060415268,0.230075896
18.08,-0.151226848,0.06076622,0.232773483
18.09,-0.094570994,-0.044050217,0.0552423
18.1,-0.178834796,-0.007510185,-0.13109982
18.11,-0.177697003,-0.007037163,-0.127126336
18.12,0.241651505,-0.014286041,0.853716195
18.13,-0.064160615,-0.131942749,-0.276479602
18.14,-0.086428642,-0.169894218,0.117158711
18.15,0.086228013,-0.069598198,0.679667831
18.16,0.136784837,-0.007958412,0.075495958
18.17,-0.051998138,0.008708954,-0.258137703
18.18,-0.048496187,0.080605507,0.144510746
18.19,-0.129696339,0.080293655,0.225367904
18.2,-0.238056004,0.036738396,0.178306639
18.21,-0.208112299,0.009819031,0.271493614
18.22,-0.003790468,-0.048357964,0.303634167
18.23,-0.00551334,-0.048974037,0.298342466
18.24,-0.019928426,-0.013484955,0.325653434
18.25,-0.011430413,0.039097786,0.228720963
18.26,0.035982728,0.058448792,0.191708505
18.27,0.018975765,-0.013025284,0.077042162
18.28,0.051205799,-0.019972801,0.268228114
18.29,0.036705986,-0.027144432,0.138976991
18.3,0.040741101,0.011223793,0.144485652
18.31,0.003581673,0.049738884,0.185028195
18.32,-0.037950158,0.07881546,0.049569726
18.33,-0.11910823,0.079325676,-0.031910658
18.34,-0.084726542,0.036766052,0.044409633
18.35,-0.048267037,0.056260109,0.193539739
18.36,-0.047973037,0.056509972,0.195655704
18.37,-0.162197679,-0.103581429,-0.002747059
18.38,-0.161249608,-0.103360176,-0.001114488
18.39,-0.264814287,-0.108060837,0.049656272
18.4,-0.088432968,-0.084182739,0.300073087
18.41,0.053665668,-0.019757271,0.374487341
18.42,-0.042232454,-0.015250206,0.254669607
18.43,-0.049369693,0.027679443,0.147812963
18.44,-0.049384892,0.027498245,0.146180391
18.45,-0.068473905,0.04168129,0.108654678
18.46,-0.018844694,0.048696518,0.128764033
18.47,-0.019402057,0.048506737,0.127277613
18.48,-0.008427262,0.00283432,0.161742747
18.49,-0.064626634,0.079394341,0.25976485
18.5,-0.065396756,0.07943821,0.260157049
18.51,-0.096902549,0.072319984,0.220222414
18.52,-0.080159873,0.019730568,0.223385394
18.53,-0.08038491,0.019728661,0.223438561
18.54,0.022477999,-0.044858933,0.135299325
18.55,-0.052241355,-0.056706429,0.055289149
18.56,-0.06907171,-0.015868187,0.056457043
18.57,-0.122071356,-0.046934128,0.100327969
18.58,-0.156056166,-0.042200089,0.17402786
18.59,-0.156434059,-0.042363167,0.172709167
18.6,-0.075471789,0.079851151,0.070756078
18.61,-0.087735742,0.079874039,0.439838469
18.62,0.163196683,0.077295303,0.89303112
18.63,-0.132913858,-0.042901039,-0.138034463
18.64,-0.147615016,-0.016449928,-0.014702916
18.65,-0.085263044,0.01704216,0.633893013
18.66,0.020636261,0.045251846,0.602549553
18.67,-0.08157903,0.00664711,-0.075478435
18.68,-0.126009643,0.0284729,-0.090070963
18.69,-0.101338863,0.074227333,0.211528122
18.7,-0.137285739,-0.014332771,0.30037868
18.71,-0.09682855,-0.007288933,0.222549021
18.72,-0.099634886,-0.002616882,0.183243454
18.73,-0.099784255,-0.002598763,0.183476627
18.74,-0.11629197,0.074139595,0.273097158
18.75,-0.087116152,0.047888756,0.323959589
18.76,-0.086443931,0.048027039,0.325152636
18.77,0.040456131,-0.088103294,0.019392133
18.78,-0.012427151,-0.011036873,0.061882734
18.79,-0.113101542,0.037250519,-0.061379313
18.8,-0.041496873,0.032844543,0.143100202
18.81,0.046000242,0.016291618,0.264939308
18.82,0.024972379,-0.014777184,0.280317843
18.83,0.02321735,-0.014724731,0.281269491
18.84,-0.040403038,0.038189888,0.087387562
18.85,-0.041176945,0.038497925,0.090400219
18.86,-0.120530814,0.012477875,0.06215167
18.87,-0.116097659,-0.111797333,0.042754769
18.88,-0.066763073,-0.078057289,0.109426141
18.89,-0.068377823,0.01535511,0.296933591
18.9,-0.136864215,0.031970024,0.195345283
18.91,-0.14682883,0.029537201,0.109028697
18.92,-0.146699071,0.029555321,0.109018683
18.93,-0.071849972,0.041471481,0.232943535
18.94,-0.052051872,0.024636269,0.220213413
18.95,-0.008257926,0.034200668,0.277312994
18.96,-0.007348388,0.034221649,0.277257562
18.97,-0.175218344,0.079877853,0.070026398
18.98,-0.055965006,-0.049128532,0.021866798
18.99,0.021451429,-0.060767174,0.010196924
19,0.071867123,-0.041353226,0.211158693
19.01,0.071577474,0.023364067,0.336331368
19.02,-0.095831215,0.025947571,0.232572615
19.03,-0.154013425,0.079014778,0.101516366
19.04,-0.151805401,0.079556465,0.105839491
19.05,-0.097364038,0.029904366,-0.068804264
19.06,-0.131631553,0.083082199,0.186608553
19.07,-0.034713447,0.085655212,0.238211751
19.08,-0.010179758,0.085783958,0.16023761
19.09,-0.117429972,0.086074829,-0.009857059
19.1,-0.115578204,0.086480141,-0.006694198
19.11,-0.122187376,0.050933838,0.187359393
19.12,0.105305776,-0.0302248,0.602900505
19.13,0.14659445,-0.083109856,0.615506709
19.14,-0.05027765,-0.219848633,0.110413671
19.15,-0.146002501,-0.152925491,0.202775657
19.16,-0.106999964,-0.07430172,0.378846049
19.17,-0.086856157,-0.029455185,-0.038758874
19.18,-0.086438239,-0.029776573,-0.041579247
19.19,0.066653311,0.04181385,0.047426343
19.2,0.013834685,0.096188545,0.302736521
19.21,-0.065423578,0.210389137,0.280303299
19.22,-0.160469979,0.229019165,0.280964017
19.23,-0.096488565,0.176036835,0.237637281
19.24,0.033046886,0.08271122,0.16622591
19.25,0.035785437,-0.053531647,0.184895456
19.26,0.036171526,-0.053283691,0.186996758
19.27,0.086495429,-0.096305847,0.343314409
19.28,0.068985865,-0.146694183,0.586669505
19.29,0.085317314,-0.127737045,0.228277087
19.3,0.042133585,-0.120473862,-0.060632944
19.31,0.008705199,-0.089128494,-0.089802146
19.32,-0.165690213,-0.060200691,-0.078647971
19.33,-0.164963931,-0.060097694,-0.077824354
19.34,0.052565232,0.083601952,0.092587709
19.35,-0.05216521,0.102583885,0.347741664
19.36,-0.057972878,0.135876656,0.331637561
19.37,-0.154562801,0.083016396,0.21282059
19.38,-0.154321104,0.082954407,0.212205708
19.39,-0.203758001,0.082860947,0.225593388
19.4,-0.034910768,-0.027389526,0.265014291
19.41,-0.093188584,-0.108974457,0.341971874
19.42,-0.062532455,-0.106789589,0.349228442
19.43,-0.091528028,-0.054338455,0.195914805
19.44,-0.103363544,0.000617981,0.057643294
19.45,-0.093186259,0.070045471,-0.038845658
19.46,0.010358721,0.082135201,-0.014563799
19.47,0.029873818,0.082289696,0.136947095
19.48,0.035027921,0.087295532,0.252976418
19.49,0.016519547,0.082751274,0.184957087
19.5,-0.011619419,0.078289986,0.136762261
19.51,-0.008669347,0.07859993,0.13883841
19.52,-0.04409048,0.004620552,0.30288893
19.53,-0.041981518,0.004682541,0.30292052
19.54,0.000460684,-0.067112923,0.360093176
19.55,0.004168063,-0.050483704,0.315518498
19.56,-0.090401143,-0.045820236,0.175287545
19.57,-0.088952988,-0.045805931,0.174852669
19.58,-0.156559467,-0.021783829,0.005145431
19.59,-0.190938324,-0.040906906,-0.097862124
19.6,-0.249033421,0.016662598,-0.260330796
19.61,-0.122604847,0.083868027,0.121287704
19.62,0.005567431,0.124588013,0.551941454
19.63,-0.006014973,0.110037804,0.459318936
19.64,-0.005608141,0.110074043,0.459512413
19.65,-0.093486965,0.083779335,0.361480892
19.66,-0.136771023,-0.11004734,0.297162235
19.67,-0.050562918,-0.062240601,0.200058043
19.68,-0.007000476,-0.098155022,-0.08090806
19.69,0.023469806,-0.083529472,0.00709784
19.7,0.018227935,0.043433189,0.307016969
19.71,-0.02132988,0.083872795,0.410434485
19.72,-0.15920198,0.083367348,0.384820044
19.73,-0.131499767,0.042064667,0.250380158
19.74,-0.211253434,0.024849892,0.088489711
19.75,-0.157864839,0.036716461,0.185502231
19.76,-0.155928314,0.036886215,0.186486065
19.77,0.025800049,0.082777023,0.316369534
19.78,0.027750909,0.083271027,0.320126772
19.79,0.053504795,-0.007042885,0.253714085
19.8,0.209785849,-0.013632774,0.352261484
19.81,0.202291206,-0.044108391,0.145016313
19.82,0.044200957,-0.079392433,-0.081748486
19.83,-0.090444863,-0.093383789,-0.01846683
19.84,-0.02224654,0.021744728,0.196845889
19.85,-0.024104446,0.021912575,0.198852539
19.86,-0.125885934,0.086791039,0.105426669
19.87,-0.202595085,0.113633156,0.102658153
19.88,-0.261363536,0.087878227,0.011556268
19.89,-0.268748969,-0.004850388,-0.000216484
19.9,-0.19930312,-0.040171623,0.159811735
19.91,-0.161111713,-0.066124916,0.308397532
19.92,-0.070381552,-0.061077118,0.286132991
19.93,-0.068246573,-0.060750961,0.28823024
19.94,-0.046799034,-0.019719124,0.130010486
19.95,-0.034757584,-0.021759987,0.072382331
19.96,0.006095558,-0.018951416,0.067817569
19.97,0.015096813,-0.013789177,0.139897108
19.98,-0.043743283,0.039180756,0.269045234
19.99,-0.043444604,0.03935051,0.270277381
20,0.027991444,0.010842323,0.059194803
20.01,-0.047122478,0.054191589,0.075891614
20.02,-0.095454246,0.025709152,0.140400648
20.03,-0.116896063,0.006743431,0.223473012
20.04,-0.116660506,0.006891251,0.224623382
20.05,-0.083300531,-0.062344551,0.20947206
20.06,-0.023263901,-0.043084145,0.193575501
20.07,-0.023707241,-0.04298687,0.194505453
20.08,-0.00044167,-0.040540695,0.164067984
20.09,-0.015895694,-0.045319557,0.152478218
20.1,-0.205708891,-0.050139427,0.087739825
20.11,-0.183884859,0.002605438,-0.06490922
20.12,-0.084782571,0.065122604,0.039944887
20.13,-0.084025621,0.065416336,0.04199481
20.14,0.019186258,0.010460854,0.215373337
20.15,-0.071874499,-0.037506104,0.30807966
20.16,0.063396513,-0.116940498,0.484435439
20.17,0.062006503,-0.117480278,0.480320334
20.18,0.024995536,0.0017519,0.031387448
20.19,-0.051907986,0.008786201,-0.029629111
20.2,-0.066863984,0.044695854,0.181191683
20.21,-0.113303602,0.092432022,0.54889518
20.22,-0.114321828,0.091947556,0.425583065
20.23,-0.115719408,0.091488838,0.422023356
20.24,-0.078514278,0.016990662,0.185342729
20.25,-0.04969123,-0.078907967,0.205729783
20.26,-0.02961877,-0.078982353,0.207375884
20.27,-0.018775582,-0.119734764,0.11794889
20.28,-0.017632544,-0.119771004,0.117329955
20.29,0.052398235,-0.10320282,0.321401596
20.3,0.061819553,-0.019674301,0.481991649
20.31,0.051795304,-0.015270233,0.153256536
20.32,0.051704705,-0.015281677,0.153221965
20.33,-0.04382813,-0.053344727,-0.168082476
20.34,-0.070302486,-0.041241646,-0.030308843
20.35,-0.070978791,-0.041282654,-0.030502915
20.36,-0.074398041,0.090111732,0.336007595
20.37,-0.044248909,0.147255898,0.276115775
20.38,-0.044488847,0.147188187,0.275588512
20.39,-0.155822069,0.109078407,0.114111066
20.4,-0.141837299,-0.051040649,0.113597751
20.41,-0.130340934,-0.194389343,0.094104528
20.42,-0.102207959,-0.203701973,0.100548983
20.43,-0.101479948,-0.20369339,0.100445032
20.44,-0.048808545,-0.072195053,0.3191365
20.45,-0.05809924,0.044912338,0.288585007
20.46,-0.057389021,0.044801712,0.287469208
20.47,-0.115600169,0.056820869,0.18196553
20.48,-0.085062116,0.02100563,0.036197782
20.49,-0.084118724,0.021054268,0.036409378
20.5,-0.011945874,0.006660461,0.057543397
20.51,0.004756182,0.025741577,0.119133472
20.52,-0.160396189,0.085510254,0.307626486
20.53,-0.159939081,0.085412979,0.30655098
20.54,-0.095155418,0.090119362,0.248440146
20.55,-0.059269637,0.003968239,0.207960129
20.56,-0.026143759,0.037392616,0.269599855
20.57,-0.026926458,0.037231445,0.268460691
20.58,-0.087424517,0.005924225,0.200029254
20.59,-0.118965715,0.022607803,0.194749057
20.6,-0.119010121,0.022532463,0.194244683
20.61,-0.255265474,-0.051604271,-0.068642139
20.62,-0.211191773,0.003633499,0.064249396
20.63,-0.150721192,0.010956764,0.070091844
20.64,-0.024077415,0.061378479,0.430469871
20.65,-0.025389373,0.061283112,0.430109263
20.66,-0.002677321,-0.020091057,0.512166321
20.67,-0.067908734,-0.099274635,0.434289873
20.68,-0.06721577,-0.099534988,0.431857765
20.69,-0.157759517,-0.166620255,-0.255832791
20.7,-0.177139044,-0.11620903,0.082897425
20.71,0.003196746,0.039229393,0.512787819
20.72,-0.090969592,0.048460007,0.467710555
20.73,-0.093143433,0.048335075,0.467266262
20.74,-0.192293018,0.02689743,0.202795863
20.75,-0.046880573,0.070101738,0.170365036
20.76,-0.100648552,0.010454178,0.083830237
20.77,0.013041258,0.089712143,0.347202778
20.78,0.099531874,0.092057228,0.19185555
20.79,0.096987739,0.092166901,0.193501473
20.8,-0.039468884,0.149841309,0.133747935
20.81,0.033239424,0.15003109,0.234006465
20.82,0.004986912,0.090372086,-0.151661158
20.83,0.029116482,0.047867775,-0.040583611
20.84,0.027042896,0.048388481,-0.035719275
20.85,-0.003484905,-0.018192291,0.32534492
20.86,-0.006924033,0.00150013,0.200940669
20.87,-0.050073564,-0.021745682,0.074921966
20.88,-0.042073905,-0.037725449,0.050060749
20.89,-0.031464547,-0.032191277,-0.001634479
20.9,-0.031043679,-0.031511307,0.003830791
20.91,0.012349933,-0.066930771,0.216028035
20.92,-0.043091625,-0.045107841,0.316593349
20.93,-0.072149396,-0.020895958,0.206311107
20.94,-0.072173625,-0.020550728,0.209075928
20.95,-0.107831448,-0.032281876,0.036281824
20.96,-0.107810408,-0.032155991,0.037211776
20.97,-0.093625069,-0.022638321,0.058463812
20.98,-0.011256665,0.008255959,0.186054826
20.99,-0.06815657,0.077301979,0.322280765
21,-0.075610042,0.08430481,0.079247952
21.01,-0.077394933,0.041388512,0.013409972
21.02,-0.076242268,0.041689873,0.015517116
21.03,-0.029384732,0.015583038,0.03872633
21.04,-0.02826947,0.015850067,0.040376425
21.05,-0.015812337,-0.010375977,0.148986816
21.06,-0.040078938,-0.00083828,0.397754014
21.07,-0.033807933,0.032698631,0.264039993
21.08,0.001935214,0.054297447,0.204511643
21.09,-0.00328064,0.049547195,0.1211586
21.1,-0.004195124,0.042338371,0.130731106
21.11,0.056600571,-0.00092411,0.208889842
21.12,0.016728878,-0.003582001,-0.001101375
21.13,0.016373754,-0.003596306,-0.001111865
21.14,-0.341543734,0.0971241,0.162724614
21.15,0.076410592,0.099468231,0.80842483
21.16,0.11626485,0.063107491,0.460273027
21.17,-0.05514586,-0.042470932,-0.18055141
21.18,-0.01443997,-0.104509354,0.379052937
21.19,0.127238736,-0.020998955,0.630374193
21.2,0.058400393,-0.002267838,0.061808228
21.21,0.059517413,-0.002087593,0.062877297
21.22,-0.101826996,0.050837517,-0.055152297
21.23,-0.065892726,0.089044571,0.123622656
21.24,-0.144338787,0.009770393,0.062060118
21.25,-0.146371454,0.009279251,0.058600426
21.26,-0.071802229,-0.051299095,0.371798694
21.27,-0.090101212,-0.008929253,0.359062374
21.28,-0.157515287,0.081618309,0.293223977
21.29,-0.153461844,0.088841438,0.252579153
21.3,-0.045977324,0.093833923,0.074086428
21.31,-0.0056912,0.07748127,0.103157878
21.32,0.029515564,0.022831917,0.209081054
21.33,0.030439705,0.02314949,0.211543679
21.34,0.061394006,0.030716896,0.178715825
21.35,0.06061542,0.031125069,0.182198405
21.36,-0.023389637,-0.018826485,0.206556618
21.37,-0.068231195,-0.092703819,0.072682261
21.38,-0.104043007,-0.114006043,0.00286305
21.39,-0.082553566,-0.121003151,0.222151995
21.4,-0.044754863,-0.111564636,0.182819486
21.41,-0.098418802,-0.027915955,0.078954458
21.42,-0.165883154,0.005577087,0.117254615
21.43,-0.163318485,0.010294914,0.142834783
21.44,-0.131736398,-0.032916069,0.127433896
21.45,-0.110035092,-0.006757736,0.171542764
21.46,-0.030653715,0.007321358,0.260002971
21.47,-0.000141025,0.03319931,0.354710698
21.48,-0.000699818,0.032767296,0.351341009
21.49,0.003878593,0.078048706,0.18686676
21.5,-0.146721095,0.094781876,0.167344332
21.51,-0.109827876,0.053975105,0.178185225
21.52,-0.084878564,-0.005976677,0.28958565
21.53,-0.014692903,-0.027653694,0.226243138
21.54,0.048031688,0.029867172,0.137968898
21.55,-0.019153535,0.032408714,0.096123338
21.56,-0.018661678,0.032625198,0.097792149
21.57,-0.030271828,0.001649857,0.060539484
21.58,-0.11374262,-0.010396004,0.174791336
21.59,-0.018486023,-0.029712677,0.238236189
21.6,-0.064172775,0.020504951,0.134820581
21.61,-0.064196736,0.020536423,0.135029912
21.62,-0.030742943,0.001430511,0.056448936
21.63,-0.057561308,0.008662224,0.080883861
21.64,-0.10376507,0.037283897,0.046753764
21.65,-0.108740956,0.101940155,-0.06318295
21.66,-0.108460695,0.102145195,-0.061753273
21.67,-0.127447426,0.095122337,0.145578861
21.68,0.065946102,0.049618721,0.655568719
21.69,-0.229644477,-0.154015541,-0.348318577
21.7,-0.22950536,-0.153652191,-0.345343351
21.71,-0.122005582,-0.079556465,0.577746093
21.72,0.029691517,-0.000989914,0.473401189
21.73,-0.020464033,0.025058746,-0.082047701
21.74,-0.037661791,0.044481277,-0.055836439
21.75,-0.060812414,0.073234558,0.160218716
21.76,-0.062655121,0.073003769,0.158888936
21.77,-0.15293929,0.07267189,0.175716758
21.78,-0.175944686,0.041168213,0.18505013
21.79,-0.093167394,0.045724869,0.140250564
21.8,-0.019238293,0.012126923,0.259478509
21.81,0.00691548,0.00017643,0.206926048
21.82,-0.071997106,0.017103195,0.105442882
21.83,-0.128449053,-0.018451691,0.11285007
21.84,-0.074329495,-0.039650917,0.113009095
21.85,-0.056686372,-0.022624969,-0.083890915
21.86,-0.053823292,-0.034215927,0.043584228
21.87,-0.054189473,-0.033992767,0.045600891
21.88,0.013879031,-0.048173904,0.172003985
21.89,-0.030839354,0.01177597,0.163556218
21.9,-0.013949603,0.016656876,-0.002707958
21.91,-0.024213165,0.062181473,0.110830665
21.92,-0.017523319,0.095580101,0.26146543
21.93,-0.053542584,0.078661919,0.272731781
21.94,-0.163044632,0.0043993,0.160389066
21.95,-0.211255431,-0.048108101,0.099586487
21.96,-0.167549104,-0.045422554,0.125809908
21.97,-0.119042873,-0.011699677,0.093703508
21.98,-0.118622899,-0.011586189,0.094489694
21.99,0.051537514,0.005110741,0.287773073
22,-0.021064639,0.088653564,0.240413129
22.01,-0.021630168,0.088447571,0.238956511
22.02,-0.024015069,0.095579147,0.164351106
22.03,-0.044714242,0.076560974,0.074316144
22.04,-0.043425977,0.076806068,0.07593298
22.05,-0.064033359,-0.02107811,0.049181938
22.06,0.003965229,-0.00892067,0.222828269
22.07,-0.024502128,-0.020848274,0.215879798
22.08,-0.00285694,0.055911064,0.207535505
22.09,-0.040988803,0.013045311,0.170987606
22.1,-0.018919498,-0.020240784,0.218258798
22.11,-0.018365383,-0.020027161,0.219752252
22.12,0.015477389,-0.036622047,0.189944148
22.13,0.001089245,-0.031655312,0.244015217
22.14,0.089272037,-0.017250061,0.160598517
22.15,0.088211134,-0.017271042,0.160739899
22.16,-0.084871054,0.013849258,0.129723668
22.17,-0.084748596,0.013871193,0.12995863
22.18,-0.086240947,-0.002723694,0.035226822
22.19,-0.127393216,0.098178864,-0.091814756
22.2,-0.056106567,0.098392487,0.464910865
22.21,-0.054554373,0.098467827,0.465113759
22.22,-0.087513089,-0.050081253,-0.088926435
22.23,-0.162930161,-0.028164864,0.078879714
22.24,-0.141898453,-0.047142029,0.328758061
22.25,-0.139458954,-0.047312737,0.326767147
22.26,-0.000874579,-0.018691063,-0.105701089
22.27,-0.088051736,-0.004105568,-0.003700018
22.28,-0.08699432,-0.004116058,-0.004002213
22.29,-0.024410009,0.026691437,0.029297233
22.3,-0.075755954,0.059872627,0.065272331
22.31,-0.077011198,0.059315681,0.061084867
22.32,0.048810124,-0.003659248,0.328494906
22.33,0.109321147,-0.006599426,0.147269011
22.34,0.014586002,0.048252106,0.201029778
22.35,0.013791651,0.048208237,0.200906992
22.36,0.033074141,0.02189064,0.265657127
22.37,0.080956131,-0.018708229,0.347911716
22.38,0.123917177,-0.047380447,0.192765474
22.39,0.12315847,-0.047272682,0.193797231
22.4,0.105177492,0.005545616,0.176151633
22.41,0.103594601,0.005537987,0.176498294
22.42,0.032274216,0.00310421,0.15511632
22.43,-0.060360968,0.0102005,-0.039122701
22.44,-0.02123183,0.069789886,0.181797743
22.45,-0.023103893,0.069296837,0.178344488
22.46,-0.002886951,0.080786705,0.323240757
22.47,-0.223290563,0.094950676,0.108402729
22.48,-0.25054279,0.039959908,0.15186429
22.49,-0.248828232,0.039988518,0.151663184
22.5,-0.09643963,-0.041419029,0.067506552
22.51,-0.013315201,-0.015136719,0.212585747
22.52,0.043191612,0.018099785,0.406185448
22.53,-0.046289325,0.000957489,0.412359476
22.54,-0.058532417,0.03423214,0.273223281
22.55,-0.036982417,0.002949715,0.170716047
22.56,-0.035003662,0.002762794,0.168706536
22.57,-0.007269502,0.009802818,0.150421619
22.58,0.038977087,0.036030769,0.163597226
22.59,0.038870543,0.035823822,0.161926627
22.6,0.026330173,0.088322639,0.160633087
22.61,-0.060032368,0.081094742,0.169910789
22.62,-0.102672666,0.057171822,0.191445947
22.63,-0.211713016,-0.002645493,0.203454018
22.64,-0.21012342,-0.002585411,0.203621268
22.65,-0.081652313,0.023814201,0.258667886
22.66,-0.079752594,0.024010658,0.259844601
22.67,-0.098640352,0.031508446,0.266471505
22.68,-0.0909096,0.019928932,0.141977787
22.69,-0.128139913,0.027562141,0.060837746
22.7,-0.234957218,0.030262947,0.227537394
22.71,-0.231305122,0.030331612,0.227201343
22.72,-0.198673189,-0.00547123,0.246070266
22.73,-0.13677448,0.064378738,0.09502852
22.74,-0.110684723,0.045646667,0.283791661
22.75,-0.10651651,0.045924187,0.284912825
22.76,-0.128961295,-0.052109718,0.2488181
22.77,-0.178418338,-0.118866921,0.061100602
22.78,-0.148227394,-0.12576294,0.263174236
22.79,-3.90708E-05,-0.008309364,0.255735934
22.8,-0.086827755,-0.067933083,-0.174643636
22.81,-0.179233462,-0.019347191,-0.050304651
22.82,-0.176184028,-0.018755913,-0.046480179
22.83,-0.074478567,0.093857765,0.217103481
22.84,-0.124125004,0.074568748,0.177520275
22.85,-0.111949801,0.086305618,0.199587822
22.86,-0.190691948,0.033398628,0.14962256
22.87,-0.170585543,0.057283401,0.184799671
22.88,-0.218729377,0.098155022,0.101676345
22.89,-0.21486932,0.098574638,0.103867769
22.9,-0.074778616,0.091939926,0.023149729
22.91,-0.10906595,0.054134369,0.085811019
22.92,-0.031515896,0.056847572,0.348148406
22.93,0.156964511,0.054703712,0.512452543
22.94,0.026918978,0.07457161,0.175272346
22.95,0.029217184,0.075438499,0.181507349
22.96,-0.099942058,0.042963028,0.035676718
22.97,-0.11177063,-0.035065651,0.016309023
22.98,-0.035623252,-0.031900406,0.325728536
22.99,-0.032671928,-0.038783073,0.373416424
23,-0.121388972,-0.077033043,0.342836797
23.01,-0.226103634,-0.144046783,0.211046457
23.02,-0.246072978,-0.153549194,0.093812346
23.03,-0.244028628,-0.153420448,0.094198108
23.04,-0.239082485,-0.122185707,0.151599884
23.05,-0.212115824,-0.067035675,0.232527733
23.06,-0.221043944,0.10556221,0.223562002
23.07,-0.147438645,0.139492035,0.131928921
23.08,-0.107467502,0.123337746,0.03469944
23.09,-0.141824812,0.107345581,0.106447458
23.1,-0.138148189,0.108092308,0.11071384
23.11,-0.00118196,-0.00877285,0.359954417
23.12,0.000674456,-0.008363724,0.362421691
23.13,-0.055352718,-0.067679405,0.152874589
23.14,-0.051509947,-0.131793976,0.055862665
23.15,-0.052447498,-0.162361145,0.00468421
23.16,-0.051528186,-0.161862373,0.008183241
23.17,-0.065724164,-0.171192169,0.093655705
23.18,0.015362918,-0.060982704,0.340997875
23.19,-0.075747967,-0.082453728,0.241126299
23.2,0.001753926,-0.084536552,0.04684329
23.21,0.00237149,-0.084129334,0.049644351
23.22,-0.040323198,-0.050274849,0.099865675
23.23,-0.04067713,-0.0502882,0.099997759
23.24,0.003512532,-0.055194855,0.171342015
23.25,-0.034429729,-0.000326157,0.115597367
23.26,-0.2609061,-0.02185154,-0.159172058
23.27,-0.272390455,0.083740234,-0.013922691
23.28,-0.184900641,0.04323864,0.265007377
23.29,-0.184495717,0.043055534,0.263439775
23.3,-0.054093212,0.052190781,0.277222037
23.31,0.018040657,-0.001174927,0.363801897
23.32,0.035026014,-0.011511803,0.227075815
23.33,-0.011546731,0.057313919,0.306568682
23.34,-0.035071254,0.016057968,-0.044926047
23.35,-0.078363597,-0.000884056,0.133268595
23.36,-0.012342125,0.049070358,0.349047422
23.37,0.069002956,0.084376335,0.386023223
23.38,0.065717787,0.083544731,0.380623996
23.39,-0.171932757,-0.039465904,0.250204563
23.4,0.026927918,-0.023644447,0.38727051
23.41,0.022095144,-0.077204704,0.397914052
23.42,0.021064043,-0.077846527,0.393299818
23.43,-0.005593896,-0.032767296,0.069267869
23.44,-0.005320042,-0.03285408,0.068461895
23.45,0.123957068,0.019781113,0.283624589
23.46,0.218361586,0.060105324,0.546870291
23.47,0.17262584,0.121797562,0.409341693
23.48,0.006670684,0.10227108,0.148922324
23.49,-0.07434544,0.097475052,0.125531316
23.5,-0.046811223,-0.010148048,0.107834816
23.51,-0.048169523,-0.010011673,0.109428883
23.52,-0.016276091,-0.021859169,0.096560836
23.53,-0.003533959,0.033149719,0.149375677
23.54,-0.060510427,0.030601501,0.163113594
23.55,-0.062182307,0.030468941,0.162593365
23.56,-0.125115156,0.013630867,0.147877574
23.57,-0.170143157,-0.00549221,0.104919195
23.58,-0.090270489,-0.031698227,0.050546527
23.59,-0.062571406,-0.086669922,0.213615537
23.6,-0.060832441,-0.08665657,0.213194728
23.61,-0.011205941,-0.089051247,0.191025972
23.62,0.008788049,-0.026839256,0.190290093
23.63,0.073866308,0.066338539,0.169451833
23.64,0.073656619,0.066130638,0.16791749
23.65,-0.009975672,0.075534821,0.113882065
23.66,-0.076843977,0.022806168,0.060564518
23.67,-0.107603908,0.027610779,-0.027855873
23.68,-0.106915057,0.027667046,-0.027753592
23.69,-0.060730755,-0.046544075,0.063096166
23.7,-0.060637355,-0.046674728,0.062038779
23.71,-0.146781534,-0.017976761,0.267533064
23.72,-0.145792812,-0.018036842,0.266790152
23.73,-0.146552235,-0.063349724,0.119314909
23.74,-0.154393435,-0.04877758,0.101057887
23.75,-0.073280424,-0.079766274,0.034457803
23.76,-0.071517199,-0.079605103,0.03502357
23.77,0.001775563,0.030638695,0.131118894
23.78,-0.023839593,0.068943024,0.102160931
23.79,-0.094562948,0.102674484,0.072191596
23.8,-0.251120389,0.086070061,-0.142481327
23.81,-0.325052947,0.115106583,-0.212830663
23.82,-0.359873623,0.101051331,-0.139693737
23.83,-0.033087403,0.096541405,0.495613873
23.84,0.090447456,-0.028049469,0.259722829
23.85,0.090297371,-0.027870178,0.261369467
23.86,-0.119488537,-0.149721146,0.339642823
23.87,-0.189235032,-0.073156357,0.256993055
23.88,-0.185757697,-0.073117256,0.255972982
23.89,-0.161127657,-0.034440994,-0.297718883
23.9,0.118191123,0.102272987,0.223201752
23.91,-0.048693597,0.094853401,0.190849304
23.92,-0.224659056,0.046878815,0.025276184
23.93,-0.266029656,-0.036979675,0.058692455
23.94,-0.266482651,-0.037127495,0.057598829
23.95,-0.244991481,-0.099449158,0.040290117
23.96,-0.237874121,-0.094586372,0.103155494
23.97,-0.120178819,-0.058538437,0.140016675
23.98,-0.079828501,-0.03678894,-0.004281163
23.99,-0.11879006,-0.022121429,0.010358095
24,-0.119201005,-0.021780014,0.01318717
24.01,-0.131080866,-0.014307976,0.151910067
24.02,-0.144848853,-0.008981705,-0.236693263
24.03,-0.084816903,-0.084917068,-0.09968555
24.04,-0.159534067,-0.09866333,0.008183479
24.05,-0.104874909,-0.100583077,-0.074150801
24.06,-0.165738076,-0.09540844,-0.157025814
24.07,-0.188128948,-0.135889053,-0.107058764
24.08,-0.0789451,-0.078496933,0.000442743
24.09,-0.164447546,-0.081092834,0.004241109
24.1,-0.165481418,-0.08116436,0.00410378
24.11,-0.328163087,-0.093029976,-0.078914881
24.12,-0.327269644,-0.092985153,-0.078935385
24.13,-0.220489353,-0.152917862,-0.142190814
24.14,-0.228699565,-0.169775963,-0.191396117
24.15,-0.272545338,-0.167517662,-0.133237243
24.16,-0.141419351,-0.146208763,-0.042371035
24.17,-0.19336158,-0.153686523,-0.128660679
24.18,-0.221215367,-0.113181114,-0.195241451
24.19,-0.272845477,-0.103870392,-0.142677903
24.2,-0.271058291,-0.104190826,-0.145760655
24.21,-0.24297151,-0.159655571,-0.068147063
24.22,-0.148239881,-0.153019905,-0.111245632
24.23,-0.109958082,-0.184833527,-0.236412406
24.24,-0.123435617,-0.133043289,-0.216546655
24.25,-0.228551567,-0.091005325,-0.185818911
24.26,-0.228260398,-0.080161095,-0.074431658
24.27,-0.246795952,-0.131630898,-0.085878372
24.28,-0.248225868,-0.132787705,-0.09478426
24.29,-0.17543295,-0.165112495,0.015594125
24.3,-0.275126159,-0.142267227,-0.227555394
24.31,-0.263219923,-0.135760307,-0.297774196
24.32,-0.295856863,-0.119441986,-0.29954946
24.33,-0.294187039,-0.119809151,-0.3032161
24.34,-0.352270633,-0.182332993,-0.303918004
24.35,-0.356959164,-0.153880119,-0.42446816
24.36,-0.35349834,-0.153910637,-0.426171422
24.37,-0.353864074,-0.156102181,-0.045535564
24.38,-0.202921629,-0.165667534,0.515266657
24.39,-0.405418873,-0.317008019,-0.383585215
24.4,-0.423067302,-0.433792114,-0.96346736
24.41,-0.265883386,-0.475955963,-0.38697505
24.42,-0.207676172,-0.415741921,0.110645294
24.43,-0.349226654,-0.384878159,-0.56267643
24.44,-0.614044428,-0.41095829,-0.851447225
24.45,-0.600336254,-0.359944344,-0.510293484
24.46,-0.588057637,-0.35931015,-0.510729551
24.47,-0.575451672,-0.37314415,-0.284596205
24.48,-0.429122508,-0.408563614,-0.389375448
24.49,-0.373255253,-0.424610138,-0.418318987
24.5,-0.142612159,-0.375875473,-0.503903866
24.51,-0.078628063,-0.480408669,-0.371005178
24.52,-0.042495906,-0.709701538,-0.354774356
24.53,0.295991689,-0.972831726,-0.359472752
24.54,0.290021807,-1.250904083,-0.093765378
24.55,0.372404188,-1.642226219,0.20302099
24.56,0.371062964,-1.644058228,0.187775433
24.57,0.300263941,-2.089009762,-0.733060002
24.58,0.406549245,-2.336940289,-1.115331173
24.59,0.606750488,-2.540018082,-1.401376367
24.6,0.59041369,-2.545101166,-1.44103384
24.61,1.250584245,-1.969268799,-0.989133596
24.62,1.216709137,-1.976176262,-1.043043375
24.63,1.386199355,-0.642777443,-1.090070724
24.64,1.091353774,-0.001083374,-1.164600611
24.65,0.654952705,0.198027611,-1.411321878
24.66,0.602705479,0.191791534,-1.474738955
24.67,0.338328451,-0.137117386,-1.52296567
24.68,0.19253698,-0.359808922,-1.718712211
24.69,-0.110976666,-0.602994919,-1.975071907
24.7,-0.357057393,-0.699211121,-2.19649601
24.71,-0.399416387,-0.701354981,-2.239960432
24.72,-0.667331755,-0.772521973,-2.014657974
24.73,-0.522767127,-0.793138504,-1.516524196
24.74,-0.321784049,-0.760939598,-1.290250182
24.75,-0.533349216,-0.687709808,-1.230883121
24.76,-0.575904727,-0.913404465,-1.296200037
24.77,-0.358727217,-1.296663284,-1.432400465
24.78,-0.363179684,-1.818191528,-1.705441833
24.79,-0.395338476,-1.816775322,-1.798794746
24.8,-0.317648202,-2.453184605,-1.664941788
24.81,0.451111674,-3.283843994,-0.812746763
24.82,0.392931491,-3.388964653,-0.732935548
24.83,0.282071173,-3.419631004,-0.693405271
24.84,0.227348536,-3.06929636,-0.837721407
24.85,0.520503402,-2.457909584,-0.722781301
24.86,0.755716622,-1.592629433,-0.137206614
24.87,1.01327312,-0.452104569,0.598977566
24.88,1.065684795,0.748125076,1.29790473
24.89,0.737383664,1.694477081,1.6160357
24.9,0.485944748,2.259642601,1.609287381
24.91,0.169850409,2.399456978,0.893226981
24.92,0.148847997,2.36428833,0.278028369
24.93,0.23203516,2.482256889,0.261662841
24.94,0.062351048,2.662061691,-0.294402242
24.95,-0.626470268,2.717965126,-1.633141637
24.96,-0.619629622,2.726455688,-1.676883698
24.97,-1.189875007,2.966334343,-1.522992373
24.98,-1.718520403,3.336937904,-1.309343696
24.99,-1.551366568,3.485992432,-0.947411299
25,-1.132662892,3.598812103,-0.405090809
25.01,-0.743247211,3.880216599,0.024053812
25.02,-0.711729646,3.888127327,-0.019272804
25.03,-0.048399866,4.590378761,1.61807847
25.04,-0.027350008,4.603259087,1.559803963
25.05,0.359769464,4.266891479,3.200971365
25.06,0.29569155,3.530022621,3.640766144
25.07,-0.061439991,2.284114838,3.905109167
25.08,-0.884910643,0.782327652,4.293003082
25.09,-2.001420975,-0.607328415,5.222976685
25.1,-2.179751873,-1.209449768,6.257897377
25.11,-1.783378363,-1.112316132,5.893625259
25.12,-1.301803589,-0.027551651,4.112771034
25.13,-1.086960793,1.476838112,2.412965059
25.14,-1.423023462,3.88369751,0.942735195
25.15,-1.382479668,3.887462616,0.925028801
25.16,-4.685920238,9.714569092,0.834820271
25.17,-5.856715679,11.49704361,1.738496304
25.18,-5.391978264,11.94048405,2.978926897
25.19,-3.703570843,11.35702038,2.30196023
25.2,-2.597785711,10.34091473,0.35907054
25.21,-1.757423639,8.689433098,-0.774900913
25.22,-0.949835599,7.237719536,-0.768950939
25.23,-0.473408014,6.059473038,-1.000529051
25.24,-0.505581141,6.064434052,-1.012907028
25.25,0.025969088,4.431503296,-1.448836565
25.26,-0.214731723,2.854231834,-1.097281098
25.27,-1.489261389,1.114110947,0.489192247
25.28,1.166709661,-2.088858604,4.939566612
25.29,2.694408417,-4.387580395,4.429613113
25.3,2.817265987,-6.321361542,2.248494625
25.31,1.96711278,-8.195282936,-0.657449246
25.32,0.693033814,-9.789671898,-4.336517811
25.33,-0.608405829,-10.77293301,-5.991039276
25.34,-1.658297062,-11.43206692,-5.470291138
25.35,-0.769456744,-11.84414959,-4.29777813
25.36,-0.819776893,-11.84666252,-4.277390003
25.37,0.090538263,-12.41864204,-2.587223291
25.38,0.031512797,-12.40898895,-2.608156681
25.39,0.52967298,-12.17414951,-1.841467857
25.4,0.875889301,-12.10437775,-1.483415246
25.41,1.136403561,-11.03784561,-1.027948499
25.42,1.926507235,-9.009688377,-1.188975096
25.43,1.916780591,-9.00647068,-1.197307587
25.44,3.586121082,-3.549273968,1.828212023
25.45,4.966534138,0.16403389,2.327387333
25.46,4.543988705,3.634002686,1.216692686
25.47,4.384715557,6.931937218,1.730563164
25.48,4.451167107,10.69146824,3.092545509
25.49,3.828931808,13.71784401,3.955837011
25.5,3.344518661,17.02035904,3.740217924
25.51,2.702948093,18.89090538,0.166786671
25.52,1.792928576,17.59165192,-2.740841389
25.53,1.636443377,13.76479435,-0.717448831
25.54,1.919353962,10.06536961,0.741827726
25.55,1.008137107,7.521372795,-0.15835166
25.56,-0.468142927,6.464735985,0.011285543
25.57,-2.377592087,5.615276337,1.215524435
25.58,-1.423754692,4.196784973,2.711778641
25.59,-0.311973304,2.951711655,5.38090992
25.6,1.187238693,0.424051285,9.591341019
25.61,-1.938519359,-1.36400032,13.93385315
25.62,-1.890548706,-1.377703667,13.96964741
25.63,-3.864825726,-5.647266388,3.891648769
25.64,-4.203764915,-8.509371758,-2.548474312
25.65,-4.423575878,-10.56046963,-5.720656395
25.66,-4.35149765,-11.54037094,-6.071056843
25.67,-4.189583302,-12.35553837,-4.451987743
25.68,-3.562680721,-13.0626564,-2.058001518
25.69,-3.137311697,-13.47601318,0.049852848
25.7,-3.564784527,-13.90828896,1.237479925
25.71,-3.57156682,-13.90217781,1.211230993
25.72,-4.009593964,-13.91569519,0.791836023
25.73,-3.807005167,-13.56994247,-0.154325247
25.74,-2.369641066,-9.834928513,-2.650041819
25.75,-1.322468519,-6.365386963,-2.374670029
25.76,-0.008365884,-2.467020512,-1.602605581
25.77,0.681599259,2.655856133,0.271240473
25.78,0.34873417,8.051781654,2.142016649
25.79,0.154104665,12.09851646,4.33907032
25.8,0.23978141,12.112463,4.280550957
25.81,-4.403845787,18.84531021,9.23496151
25.82,-3.283401489,19.00266647,10.39606476
25.83,-2.999137878,17.68427658,8.895525932
25.84,-3.673395157,15.51366329,4.046928883
25.85,-3.850694656,12.92635918,-0.49263072
25.86,-3.511026621,10.34800625,-2.339164734
25.87,-2.422222853,7.723964691,-1.236018419
25.88,-1.125246048,5.138026237,-0.922881007
25.89,0.038248777,2.544437408,-0.913065434
25.9,0.668099165,0.178613663,0.824998856
25.91,0.061878294,-1.749899864,5.201939583
25.92,1.47268343,-3.635781765,6.195127964
25.93,3.201308727,-6.274661064,4.385866165
25.94,2.81383276,-8.119753838,0.764871121
25.95,2.761018276,-8.126885414,0.799428701
25.96,0.58262676,-10.94244957,-4.249244213
25.97,-0.267220616,-11.7870779,-5.73294735
25.98,0.250229538,-11.99273491,-5.563520432
25.99,1.008540154,-12.09338284,-3.914242506
26,0.945804715,-12.09233665,-3.907056332
26.01,2.560705185,-13.03051472,0.089545488
26.02,3.879686117,-13.28281307,0.628677607
26.03,3.78007555,-13.26223564,0.566144228
26.04,2.481671095,-11.71522045,-1.464937449
26.05,1.033029795,-9.560660362,-4.829590797
26.06,0.835687697,-6.229460716,-5.3598423
26.07,0.831441402,-6.233845711,-5.339526176
26.08,3.651648998,-0.942708015,-1.747800946
26.09,5.897620201,2.975645065,1.961664438
26.1,6.341033936,10.41331863,7.55181694
26.11,5.756194592,11.75068569,6.689479828
26.12,2.969915867,13.45708466,5.968626976
26.13,-0.499729514,15.17579365,4.40826416
26.14,-0.454682767,14.94767189,3.304927826
26.15,-0.988138199,13.06042385,0.160693526
26.16,-0.92503953,13.0456171,0.203452468
26.17,-0.703952551,8.467395782,-1.506651998
26.18,-0.488250405,7.98911953,-0.878938079
26.19,-0.406167716,7.994653702,-0.936741471
26.2,-0.791200757,7.591824532,5.069466591
26.21,-0.717563152,7.607157707,4.97994709
26.22,-0.816918969,5.654901505,9.086230278
26.23,1.07235539,0.666729927,10.59362602
26.24,-0.666216493,-3.088776112,5.648827553
26.25,-3.061789036,-6.774846077,1.702112198
26.26,-3.241559505,-10.05617809,-1.246142507
26.27,-3.244126081,-13.01768875,-2.454678059
26.28,-3.167913914,-13.0409832,-2.336095572
26.29,-3.342834711,-14.72143745,-4.626367569
26.3,-3.504297495,-14.28504372,-3.300733566
26.31,-4.743757725,-14.03638458,-0.351991534
26.32,-4.43435812,-14.57127953,0.928396583
26.33,-3.726260424,-15.38713932,-0.40840137
26.34,-4.121925354,-15.13350487,-2.36396575
26.35,-4.126697063,-15.12566853,-2.417684555
26.36,-3.023370266,-11.34366322,-2.979368687
26.37,-2.350923777,-8.207429886,-2.14234066
26.38,-2.340604544,-8.197810173,-2.199915409
26.39,0.294339895,0.145927429,1.523153663
26.4,0.317027926,0.154439926,1.476891756
26.41,4.319251537,9.784561157,6.962117672
26.42,4.366988182,9.805496216,6.857254028
26.43,-5.65460062,19.95608521,3.519171238
26.44,-5.604932308,19.97755432,3.425028324
26.45,-4.756421089,20.72172546,7.836400032
26.46,-5.132110596,19.06435013,12.09853458
26.47,-5.123054504,19.07029915,12.07521915
26.48,-6.139505386,13.92411804,-2.236866951
26.49,-1.874255657,8.667945862,-4.236625671
26.5,0.091262937,4.756379128,-1.607364655
26.51,1.393433928,1.477221489,1.162770629
26.52,1.352493525,1.474557877,1.169032574
26.53,1.565573215,-2.016039848,7.230746746
26.54,3.336770535,-3.645778656,7.548727512
26.55,4.363965034,-5.595048904,4.66492939
26.56,4.291044235,-5.602666855,4.70040226
26.57,1.079643965,-9.065922737,-3.246227264
26.58,1.030837774,-9.083685875,-3.144584179
26.59,0.172647834,-11.02993202,-5.470654488
26.6,0.044930965,-12.00534534,-3.338619232
26.61,0.158242732,-13.18484688,-1.650863647
26.62,1.355779529,-13.88866615,-0.566932976
26.63,1.29069972,-13.89154434,-0.532138169
26.64,2.846255064,-15.26314545,0.26967144
26.65,3.278542042,-14.94384956,-1.249988794
26.66,1.664738178,-13.48141193,-3.806413651
26.67,0.07366389,-11.56177139,-5.377934456
26.68,-0.52590692,-9.407418251,-5.143615246
26.69,0.866984129,-6.381493092,-4.194324017
26.7,5.211531162,-0.718126297,-1.203207731
26.71,9.160939217,4.280854225,2.510077
26.72,9.093060493,9.382030487,3.63417387
26.73,5.673348904,13.42987347,4.326771736
26.74,2.244552374,16.1225872,6.079656124
26.75,0.104770184,17.33143616,8.584996223
26.76,0.529920876,17.60741234,6.298010826
26.77,1.26239872,16.18594551,1.411501884
26.78,0.229685307,13.87883568,-2.962188721
26.79,-1.182254672,11.93289852,-2.716175556
26.8,-2.045884609,11.48897266,-0.818751156
26.81,-2.905259132,10.17989445,2.383753777
26.82,-3.543426037,8.519076347,6.469696999
26.83,-2.023499966,6.897829056,9.438221931
26.84,-1.338645458,4.117843628,12.21599007
26.85,-0.08258155,1.052016258,12.60159111
26.86,1.539829731,-3.784946442,7.843521118
26.87,-1.292566538,-8.072606087,1.749756336
26.88,-3.513403654,-10.69974709,-4.335716724
26.89,-3.835716248,-12.9241581,-6.407339096
26.9,-2.901259661,-13.96460724,-3.903484821
26.91,-2.843064547,-13.96820259,-3.876708031
26.92,-3.177811861,-12.81507587,0.61150682
26.93,-5.150716782,-13.3229866,1.450172782
26.94,-5.157076359,-13.32096958,1.431771994
26.95,-5.277893543,-13.80516434,-0.618755579
26.96,-4.89984417,-14.43390656,-2.052580833
26.97,-4.934761047,-14.42629051,-2.111982822
26.98,-4.408191681,-14.15892792,-2.258888245
26.99,-2.503292799,-9.961858749,-1.421637058
27,-2.140616894,-6.424865723,-1.51861608
27.01,-1.588836312,-2.78529644,0.148566485
27.02,2.714711428,3.091352463,4.174418449
27.03,4.93055582,8.359458923,6.585595131
27.04,2.917287111,12.45085907,5.317639828
27.05,0.254751682,17.03088951,6.14793396
27.06,-1.635071754,19.30726242,11.00188732
27.07,-4.227458,19.33563232,12.89187431
27.08,-7.085766792,18.55060959,8.378009796
27.09,-8.038619041,16.74113846,1.663979292
27.1,-7.330841541,14.1241312,-2.163586617
27.11,-5.843314171,11.46230602,-2.84416604
27.12,-2.359879732,8.129585266,-1.886280894
27.13,0.216982722,4.952184677,0.888524175
27.14,0.199705124,4.948706627,0.908897758
27.15,1.132497907,3.102324486,2.401407242
27.16,0.984561801,1.109577179,4.332838535
27.17,1.553833842,-0.016115189,6.745839119
27.18,3.642852306,-5.142081738,4.293247223
27.19,2.499114275,-8.018172264,0.55034256
27.2,1.40576911,-10.35215187,-4.216461658
27.21,1.380498648,-12.27399063,-6.729031086
27.22,2.246047974,-13.40410709,-6.48033762
27.23,2.386283398,-13.7131958,-4.520210743
27.24,2.278823614,-13.88542366,-2.664081812
27.25,2.042124748,-13.10980225,-0.190596223
27.26,1.907397032,-13.12239742,1.966161966
27.27,2.097067356,-13.59717274,1.915067911
27.28,2.017676353,-13.58525276,1.878456354
27.29,1.333299398,-12.95770359,-0.779400647
27.3,-0.890183985,-10.86713791,-6.378269672
27.31,-0.309147,-7.69591713,-5.525702953
27.32,2.850085735,-1.411999702,-1.561543584
27.33,6.443158627,3.771169662,2.703913689
27.34,7.563831806,7.574258804,3.064799309
27.35,6.013627052,11.93423176,2.882677078
27.36,6.723148823,15.22043705,5.499018669
27.37,5.833738327,16.29012108,10.20431042
27.38,4.230486393,16.46630478,8.988238335
27.39,0.472689867,16.46625137,3.664109945
27.4,-1.416927695,15.04541683,0.845787168
27.41,-3.155697584,12.99945736,0.846905947
27.42,-3.037390232,11.58321667,1.406432271
27.43,-2.970494747,11.57894039,1.391332269
27.44,-2.801676273,8.585858345,5.154503345
27.45,-2.223958492,6.748563766,5.52594471
27.46,-2.142430305,6.727381706,5.602985382
27.47,-3.19795084,3.570340157,7.738295078
27.48,-2.179298401,-4.917647839,8.88378334
27.49,-2.114763021,-4.947226048,9.058817863
27.5,-3.955842972,-12.31083679,-1.283963084
27.51,-3.512729168,-14.49185562,-6.573334694
27.52,-3.987398148,-14.25120544,-7.418525219
27.53,-3.887669086,-14.2621994,-7.323430538
27.54,-4.542200565,-12.11688995,-2.661392689
27.55,-5.806616783,-14.4892292,0.245280922
27.56,-3.636046648,-13.30576706,1.379210949
27.57,-5.640909195,-15.75193787,2.836380482
27.58,-5.680054665,-15.73844719,2.714595318
27.59,-5.07862854,-14.41012955,1.081753016
27.6,-3.824163198,-10.85636139,-0.324153125
27.61,-3.541378736,-7.728892326,-0.727073908
27.62,-1.81808567,-3.716141224,-1.365633249
27.63,-2.017311573,-0.462327004,0.544743896
27.64,3.845841885,6.846464157,4.271084785
27.65,5.664037228,12.17434311,7.822156429
27.66,0.92805022,19.34244919,4.793690681
27.67,-3.365543842,23.89468956,4.582996845
27.68,-5.670705318,24.28611755,14.11459255
27.69,-8.794157028,21.35069656,20.13731384
27.7,-9.733111382,17.86919785,11.58439732
27.71,-8.258449554,14.00217724,-5.289020538
27.72,-5.465939999,11.25121021,-11.38831329
27.73,-2.751573563,8.314661026,-5.953403473
27.74,0.129575938,5.132618904,0.900063872
27.75,2.03691721,1.92672348,2.427020788
27.76,3.550881147,-0.650331497,3.326396942
27.77,4.009509563,-2.25235033,4.243433952
27.78,3.620152473,-4.841347694,6.931600571
27.79,3.965886831,-6.367727757,6.990293503
27.8,3.594935179,-8.145905495,2.823982954
27.81,2.446908236,-9.591034889,-3.053164005
27.82,1.193054199,-10.49459648,-6.779192924
27.83,0.899668098,-10.6790123,-5.959597588
27.84,0.494695246,-11.08820438,-2.768782616
27.85,-0.192164213,-11.43350697,-0.812468588
27.86,-0.400516063,-11.32692337,0.739765286
27.87,-0.457062572,-11.32819653,0.778476477
27.88,-0.505439878,-11.90338612,1.586715221
27.89,-0.380534709,-14.24280167,-1.867786169
27.9,0.016495585,-14.26803017,-3.200783491
27.91,1.016592026,-13.2428093,-4.737280369
27.92,1.77038157,-11.39667702,-5.763819695
27.93,1.72598362,-11.38578606,-5.800197601
27.94,3.756261349,-7.711912155,-3.834453583
27.95,11.14390564,4.473299026,6.229277611
27.96,9.645946503,9.757851601,5.757401943
27.97,9.525722504,9.779102325,5.739215851
27.98,-0.40753448,18.38821411,-0.873014271
27.99,-3.250142574,19.84460831,4.704050064
28,0.094212294,18.27668571,6.702594757
28.01,1.54605329,14.95777416,3.155182838
28.02,0.556325316,11.64844799,-0.506134272
28.03,-0.267660141,10.0851469,-0.813242436
28.04,-1.310286045,9.602707863,0.091621041
28.05,-2.399341583,9.795039177,2.167180777
28.06,-2.263840199,9.034186363,5.79904747
28.07,-2.150743961,9.022480965,5.794665813
28.08,-4.311464787,5.461620331,10.88652992
