Time (s),Linear Acceleration x (m/s^2),Linear Acceleration y (m/s^2),Linear Acceleration z (m/s^2)
0,-0.050944865,0.01759243,0.194001794
0.01,-0.029554009,0.049387932,0.181581974
0.02,0.034953386,0.071595192,0.056560516
0.03,0.037004173,0.072264671,0.061018109
0.04,-0.061731935,0.024981499,0.10082686
0.05,-0.059712708,0.025508881,0.104004264
0.06,-0.004593313,0.112443924,0.149510026
0.07,-0.124106348,0.050830841,0.294710696
0.08,0.129876673,0.04665184,0.544979513
0.09,0.05644384,-0.087076187,0.422808945
0.1,0.056915849,-0.086734772,0.42522186
0.11,-0.030555874,-0.146104813,0.033362031
0.12,0.005005389,-0.062117577,0.220849156
0.13,-0.045795828,-0.061843872,-0.304513693
0.14,-0.0778386,-0.063448906,-0.306377411
0.15,-0.019850492,0.032970428,0.169888496
0.16,-0.018345296,0.116920471,0.3844257
0.17,-0.019967645,0.116810799,0.384138763
0.18,-0.234199077,0.119175911,0.197564721
0.19,-0.234467089,0.119348526,0.198950648
0.2,-0.178669006,0.095828056,0.170722008
0.21,-0.095671117,0.038866043,0.269640565
0.22,-0.016589105,-0.010778427,0.270972729
0.23,-0.003192157,-0.024355888,0.328027606
0.24,0.087078482,-0.064284325,0.195804
0.25,0.011807203,-0.113695145,0.042743444
0.26,-0.006121039,-0.187005043,-0.035749316
0.27,-0.007808447,-0.188548088,0.014677644
0.28,-0.005335033,-0.187823296,0.018910646
0.29,-0.025294185,-0.125072479,0.091425061
0.3,-0.038336784,-0.004820824,0.034891129
0.31,-0.135002703,0.062766075,0.021583438
0.32,-0.069166601,0.125552177,0.065552354
0.33,-0.11575073,0.075702667,0.154367924
0.34,-0.078682721,-0.036514282,0.170537949
0.35,-0.077310026,-0.036218643,0.172106862
0.36,-0.085670412,-0.081497192,0.118100524
0.37,-0.110705137,-0.090909004,0.140289068
0.38,-0.1139853,-0.074039459,0.200294495
0.39,-0.097889423,-0.093280792,0.132007957
0.4,-0.11099577,-0.093447685,0.140069962
0.41,-0.099746943,-0.107901573,0.086089015
0.42,-0.097899258,-0.10789299,0.085440755
0.43,-0.067291617,-0.062343597,0.188192248
0.44,-0.074433923,-0.071805954,0.20240593
0.45,-0.093040764,-0.093141556,0.248251438
0.46,-0.08977443,-0.092834473,0.249147534
0.47,-0.005483031,-0.054185867,0.195400715
0.48,0.073399395,-0.075414658,0.256616592
0.49,-0.01840204,-0.11353302,0.192710042
0.5,-0.13666153,-0.079894066,0.044533372
0.51,-0.156772971,-0.022361755,0.147459626
0.52,-0.112912595,-0.005759239,0.110108852
0.53,-0.070331216,0.001122475,0.187295556
0.54,0.083488703,0.036477089,0.962162733
0.55,0.054239333,-0.086933136,0.587669969
0.56,-0.0226717,-0.128840447,0.343021631
0.57,-0.119162858,-0.055862427,0.116514444
0.58,-0.119309545,-0.056891441,0.109091044
0.59,-0.118118465,0.004782677,-0.181952357
0.6,-0.093789339,0.076125145,-0.086560607
0.61,0.049315721,0.221378326,0.682091773
0.62,-0.080513358,0.215579033,0.608783662
0.63,-0.026145279,0.119048119,0.15332973
0.64,-0.168702245,0.073254585,0.11577487
0.65,-0.16863972,0.073004723,0.113865733
0.66,-0.068136275,-0.006106377,0.127587915
0.67,-0.025431514,0.03455925,0.251848221
0.68,-0.05938071,0.044109344,0.409790218
0.69,-0.047053337,0.039307594,0.230079293
0.7,-0.048842072,0.029886246,-0.001218319
0.71,-0.119960129,0.018366814,0.07834959
0.72,-0.068604231,0.011647224,0.143656135
0.73,-0.031839669,-0.004615784,0.079962254
0.74,-0.045176566,0.041611671,0.065719724
0.75,-0.096648514,0.047162056,0.080507874
0.76,-0.100041807,0.059928894,0.088138342
0.77,-0.12262702,0.04638958,0.086450577
0.78,-0.092601001,0.035259247,0.058483005
0.79,-0.017047226,0.026560783,0.083457351
0.8,-0.059461176,0.034534454,0.131932497
0.81,-0.070924878,0.025642395,0.09122324
0.82,-0.183170259,-0.002465248,0.10501647
0.83,-0.091641903,0.000394821,0.062631965
0.84,-0.091370642,0.000778198,0.065300345
0.85,-0.007594168,-0.022859573,0.077025056
0.86,-0.010590494,0.013074875,0.204282761
0.87,-0.010763466,0.013056755,0.20421207
0.88,-0.010891497,0.013175964,0.157259464
0.89,0.003516257,0.032540321,0.180220723
0.9,-0.041807175,0.027944565,0.327651501
0.91,0.063955039,0.025693893,0.239840746
0.92,0.051926672,0.061957359,0.168083787
0.93,0.011389136,0.009685516,0.144528508
0.94,0.011426568,0.010155678,0.147732854
0.95,-0.100402415,-0.003626823,-0.054316401
0.96,-0.168680191,0.054459572,-0.198759794
0.97,-0.03923732,0.06913662,0.255788803
0.98,0.215078414,0.023682594,0.687776506
0.99,-0.029663086,-0.09389019,0.301563501
1,-0.131937265,-0.151329041,0.168345094
1.01,-0.15092665,-0.084209442,0.36757493
1.02,-0.101186752,0.016104698,0.017963529
1.03,-0.063125134,0.011494637,-0.223539114
1.04,0.009851158,0.102726936,0.115567565
1.05,0.052728295,0.167222977,0.629308522
1.06,-0.008696854,0.152258873,0.467732489
1.07,-0.137043893,0.130220413,0.184715986
1.08,-0.168965876,0.079629898,0.125337362
1.09,-0.171500683,0.019462585,0.202216029
1.1,-0.120684087,-0.002353668,0.274408579
1.11,-0.126581848,-0.00011158,0.356644511
1.12,-0.055071056,-0.031339645,0.350374818
1.13,-0.084058106,-0.021789551,0.339772463
1.14,-0.096221626,-0.005029678,0.188098431
1.15,-0.05840075,-6.29425E-05,0.071281075
1.16,-0.057089686,0.000276566,0.073132873
1.17,0.056598872,-0.004235268,0.244631529
1.18,0.057330698,-0.003953934,0.246272802
1.19,-0.028049529,-0.022878647,0.230893016
1.2,-0.07026881,-0.018115997,0.251834154
1.21,-0.029329419,0.015149117,0.204482436
1.22,-0.044211209,0.041204453,0.178827524
1.23,-0.044969916,0.040908813,0.177057624
1.24,-0.127152383,0.026226044,0.131946445
1.25,-0.160918891,0.002098083,0.166762829
1.26,-0.13939786,0.001906395,0.143816233
1.27,-0.091185629,-0.012558937,0.166916013
1.28,-0.090827346,0.008872032,0.194727898
1.29,-0.111841559,0.008707047,0.186079145
1.3,-0.08701241,0.013282776,0.229794025
1.31,-0.114865422,0.075248718,0.265656114
1.32,-0.113584757,0.075029373,0.263563514
1.33,-0.026644707,0.067769051,0.246019721
1.34,0.002368331,0.065415382,0.169540286
1.35,-0.023750961,0.065364838,0.19069016
1.36,0.01447469,0.067699432,0.195022821
1.37,0.054442108,0.096266747,0.198983073
1.38,-0.068613172,-0.001964569,0.160562396
1.39,-0.107494712,-0.054647446,-0.064272046
1.4,-0.055093288,0.036560059,-0.20631516
1.41,-0.169935525,0.058461189,0.208005905
1.42,-0.083855569,0.029866219,0.381447017
1.43,0.20935455,-0.049212456,0.747697353
1.44,0.205836624,-0.049780846,0.74518919
1.45,-0.153784692,-0.088183403,0.113446116
1.46,-0.155129433,-0.088466644,0.111993551
1.47,-0.057282388,0.006684303,0.462051094
1.48,-0.006934285,-0.005429268,-0.336181641
1.49,-0.048377514,0.033108711,-0.161967754
1.5,-0.05549103,0.126259804,0.349706769
1.51,-0.058959305,0.125523567,0.345759392
1.52,-0.119986832,0.124667168,0.427241504
1.53,-0.12201196,0.124063492,0.423627913
1.54,-0.141781926,0.123773575,0.235132694
1.55,-0.088642001,0.030521393,0.187844038
1.56,-0.09235096,-0.000279427,0.17305851
1.57,-0.098090053,-0.009333611,0.240933418
1.58,-0.105972588,-0.047214508,0.33674705
1.59,-0.073374867,-0.092419624,0.096294284
1.6,-0.072700322,-0.091977119,0.099254847
1.61,0.025559545,-0.017317772,0.166978955
1.62,0.024756134,-0.017056465,0.169124126
1.63,0.038170815,0.004619598,0.249486685
1.64,0.006055951,0.031043053,0.142742634
1.65,-0.014224947,0.067223549,0.082709789
1.66,-0.029732704,0.11058712,0.046726584
1.67,-0.030724347,0.110871315,0.049197912
1.68,-0.179170013,-0.001419067,0.16821599
1.69,-0.179141104,-0.00111866,0.170267105
1.7,-0.114397705,-0.003159523,0.151137948
1.71,-0.114151955,-0.002754211,0.153978109
1.72,-0.075379729,-0.011890411,0.099358678
1.73,-0.062899232,0.026842117,0.032726407
1.74,-0.042981386,0.065536499,0.051927805
1.75,-0.020961165,0.118507385,0.216558099
1.76,-0.065805018,0.130654335,0.315660358
1.77,-0.15544188,0.130836487,0.409874082
1.78,-0.019468129,0.09519577,0.367974877
1.79,0.058582842,0.026158333,0.181105614
1.8,0.021386206,0.002857208,0.084420919
1.81,0.022531271,0.003566742,0.08901
1.82,-0.012438834,-0.007717133,0.04307735
1.83,-0.100886464,0.052781105,0.13835597
1.84,-0.100923538,0.053107262,0.140662551
1.85,-0.033268094,0.038887978,0.122236013
1.86,-0.149338126,0.036800385,0.152560711
1.87,-0.146968484,0.037203789,0.154491305
1.88,-0.04960233,-0.029476166,0.09405458
1.89,0.070566773,-0.079698563,0.304977536
1.9,0.032709897,-0.139469147,0.178570867
1.91,-0.080122113,0.021091461,0.240927696
1.92,-0.005997002,0.116704941,0.315601111
1.93,-0.004424334,0.116552353,0.314004779
1.94,-0.130743086,0.040326118,-0.131344557
1.95,-0.021675289,0.071584702,0.097422004
1.96,-0.014423668,0.135855675,0.337636352
1.97,-0.091202915,0.101695061,0.334296465
1.98,-0.133795023,0.062828064,0.079700232
1.99,-0.170493841,0.048466682,-0.046805859
2,-0.170370817,0.048782349,-0.04482317
2.01,-0.110110939,0.063501358,0.275945425
2.02,-0.023103356,0.087755203,0.316038847
2.03,-0.019706368,0.085633278,0.38218832
2.04,-0.017926812,0.085936546,0.383575916
2.05,0.10594967,0.036102295,0.117723107
2.06,0.09284544,0.005430222,0.13708055
2.07,-0.001610994,0.003507614,0.211614609
2.08,-0.000168383,0.003893852,0.213761449
2.09,0.048586071,-0.024349213,0.082612395
2.1,-0.034527659,0.134226799,0.191417337
2.11,-0.021756649,0.105823517,0.303446651
2.12,-0.064118266,0.084616661,0.267189384
2.13,-0.103616536,0.027665138,0.24378252
2.14,-0.101570427,0.028270721,0.247130156
2.15,-0.058795035,-0.056949615,0.073211193
2.16,-0.081009626,-0.111382484,0.148572803
2.17,-0.115732253,-0.139822006,0.171582699
2.18,-0.081278026,-0.228395462,0.097077131
2.19,-0.223535717,-0.226106644,0.004907608
2.2,-0.222294807,-0.226137161,0.004169941
2.21,-0.181020439,-0.144698143,-0.338175058
2.22,-0.058428466,0.049225807,-0.345637918
2.23,-0.012967348,0.238301277,0.039328337
2.24,0.065219283,0.307254791,0.433940053
2.25,0.126500666,0.376033783,0.38209033
2.26,-0.013189673,0.310910225,0.57322377
2.27,-0.04601568,0.245937347,0.431886911
2.28,0.009114325,0.14043808,0.284778714
2.29,0.00835675,0.140380859,0.284661174
2.3,-0.018597841,0.042341232,0.086954713
2.31,0.124514759,0.078492165,0.251541734
2.32,0.173603863,0.076255798,0.298656106
2.33,0.04763943,0.083547592,0.649427891
2.34,0.012393475,-0.122797012,0.714322865
2.35,0.010978341,-0.123399735,0.710846722
2.36,-0.005877733,-0.18578434,0.33404839
2.37,-0.073336661,-0.168577194,-0.075579524
2.38,-0.107000351,-0.005134583,-0.510363817
2.39,-0.106646419,-0.00458622,-0.506798863
2.4,0.166404784,0.09107399,-0.205003381
2.41,0.042590499,0.190806389,0.982408106
2.42,-0.110034168,0.194281578,0.93359983
2.43,-0.24683255,0.138031006,0.504399955
2.44,-0.224558473,-0.015312195,-0.055397868
2.45,-0.219989002,-0.014592171,-0.052291751
2.46,-0.047287166,-0.252914429,-0.317392349
2.47,0.13429296,-0.17041111,0.092860222
2.48,0.164759934,-0.081220627,0.60762167
2.49,0.168046117,-0.081254959,0.606116533
2.5,0.144336969,-0.059391975,0.189570665
2.51,0.149401873,-0.058858871,0.191177487
2.52,-0.318072856,0.097774506,-0.223904371
2.53,-0.369839668,0.141676903,-0.018277407
2.54,-0.451454222,0.079754829,-0.038079739
2.55,-0.504504681,0.03915596,0.096176147
2.56,-0.49753511,0.039099693,0.092757344
2.57,-0.431523204,0.041340828,0.086782813
2.58,-0.002856314,-0.090494156,-0.457389116
2.59,-0.174184203,-0.217338562,-0.719550371
2.6,-0.169092119,-0.217018127,-0.71967423
2.61,0.140776694,-0.112071037,-0.630561709
2.62,0.456641138,-0.067612648,0.283288121
2.63,0.157238871,-0.073419571,0.39630568
2.64,-0.676891148,0.153054237,0.692039251
2.65,-0.663035035,0.15193367,0.677688599
2.66,-0.661240876,0.057333946,-0.101402998
2.67,-0.214499891,-0.107370377,-0.477058172
2.68,0.079689562,-0.153022766,-0.956077457
2.69,0.079333007,-0.155887604,-0.976832032
2.7,0.534098148,-0.235369682,-1.232429624
2.71,0.531390369,-0.238051415,-1.251217365
2.72,1.115357757,-0.019202232,1.636701584
2.73,0.189779759,0.114880562,2.924017191
2.74,-0.691650808,0.322944641,3.016093016
2.75,-0.990626097,0.561800003,1.997662187
2.76,-0.733265996,0.440822601,0.553592384
2.77,-0.319613218,0.05494976,-0.816874266
2.78,-0.320257366,0.056098938,-0.806854963
2.79,0.130745828,-0.260042191,-0.896221638
2.8,0.119153082,-0.177513123,-0.889613152
2.81,0.085340798,-0.066637993,-1.17225945
2.82,0.085557938,-0.068339348,-1.186893582
2.83,0.450576067,0.109230042,0.159921527
2.84,0.375062645,-0.006081581,0.883439243
2.85,0.376097858,-0.008461952,0.8614344
2.86,-0.047079504,0.236436844,1.573891163
2.87,-0.04414171,0.256864548,0.994070232
2.88,-0.6370309,0.474378586,0.365857959
2.89,-1.112571716,0.304391861,-0.818632722
2.9,-0.765803158,0.092431068,-1.349214911
2.91,-0.769843102,0.08914566,-1.377954125
2.92,0.508965254,-0.6242733,-1.525098443
2.93,1.660496235,-0.694560051,-0.422799885
2.94,1.65773797,-0.427605629,0.918983638
2.95,0.592124343,-0.1757164,2.450895071
2.96,-0.439209938,0.104658127,3.119719267
2.97,-0.413874388,0.104408264,3.089648008
2.98,-1.415692329,0.641718864,1.719711781
2.99,-1.280224562,0.707877159,0.651568949
3,-1.195479035,0.419014931,-0.342455566
3.01,-0.567712605,0.107710838,-1.298993349
3.02,-0.188161552,-0.202510834,-1.77757287
3.03,0.668051899,-0.384632111,-1.535565138
3.04,1.251176357,-0.500596046,-0.340308309
3.05,1.16050005,-0.425235748,1.196896791
3.06,0.290343612,-0.187651634,2.094521284
3.07,-0.459320486,0.02753067,2.697053909
3.08,-0.939169645,0.229205132,2.606821775
3.09,-0.899985492,0.273313522,1.480998278
3.1,-0.36689347,0.114004135,0.461577267
3.11,0.132579625,0.047325134,-0.275886953
3.12,0.296377063,-0.07954216,-0.737676919
3.13,0.050304592,-0.050976753,-0.859817624
3.14,0.049675643,-0.05133152,-0.865837038
3.15,-0.027144551,-0.01850605,-0.488491774
3.16,0.219668329,-0.163269043,0.390924901
3.17,0.019328475,-0.240862846,0.833342552
3.18,-0.267850339,-0.178973198,1.106011987
3.19,-0.485929966,0.06289196,1.029021263
3.2,-0.479668617,0.063241005,1.025164008
3.21,-0.285876274,0.113926888,0.400408536
3.22,-0.060842633,-0.05347538,0.395072877
3.23,-0.063403666,-0.054052353,0.387519687
3.24,0.161364496,-0.212763786,0.245272234
3.25,-0.019691706,-0.175098419,0.877218008
3.26,0.108790398,-0.075329781,1.115325093
3.27,0.110087454,-0.076107979,1.092292547
3.28,0.249479711,-0.038491249,0.854320049
3.29,-0.120868027,0.059113503,0.85986495
3.3,-0.118715525,0.05865097,0.839751005
3.31,-0.622577846,-0.042087555,-0.036364853
3.32,-0.674425185,-0.101716995,-0.335204661
3.33,-0.466094494,-0.257060051,-0.41183126
3.34,-0.464821994,-0.257115364,-0.417415202
3.35,0.013036072,-0.135252953,0.213552386
3.36,0.012457669,-0.135458946,0.207797766
3.37,-0.018022895,0.05840683,0.779817939
3.38,0.068145037,0.055898666,0.627036393
3.39,0.35175699,0.019816399,0.174793229
3.4,0.30228281,-0.028370857,-0.132205322
3.41,-0.056015909,-0.016673088,-0.315961927
3.42,-0.219064474,-8.39233E-05,-0.4840464
3.43,-0.232172012,0.03072834,-0.340354264
3.44,0.112352908,0.015818596,0.199233338
3.45,0.105167389,0.015055656,0.192786068
3.46,0.145796537,0.055274963,0.679058313
3.47,-0.352102459,0.129563332,0.669059694
3.48,-0.969880104,0.242591858,0.370909244
3.49,-0.961544812,0.243438721,0.376475632
3.5,-0.63194412,0.055025101,-0.466844112
3.51,-0.246267438,-0.167491913,-0.883434653
3.52,0.507098734,-0.379015923,-0.92158103
3.53,1.101215124,-0.366158485,-0.040474057
3.54,1.084975123,-0.368010521,-0.061150357
3.55,1.050890565,-0.302301407,0.996221364
3.56,0.702381074,-0.041970253,1.094056368
3.57,-0.504759133,0.140117645,1.204585552
3.58,-0.66416353,0.130812645,0.715731204
3.59,-0.644254565,0.095174789,0.197302654
3.6,-0.420764923,0.013933182,-0.234149396
3.61,0.126005113,-0.204133034,-0.453868985
3.62,0.542302847,-0.427473068,-0.065272689
3.63,0.743719459,-0.56242466,0.212369889
3.64,0.737518251,-0.562999725,0.206466794
3.65,0.698835254,-0.211299896,0.58505106
3.66,-0.246168256,0.001879692,0.637636185
3.67,-0.241054297,0.002333641,0.641083121
3.68,-0.846872091,0.050816536,0.622106016
3.69,-0.79426682,-0.166929245,-0.437321901
3.7,-0.673317552,-0.179017067,-0.932839036
3.71,-0.676745176,-0.179314613,-0.933804095
3.72,-0.207643747,-0.225369453,-1.530405402
3.73,0.768701375,-0.312322617,-1.068351984
3.74,0.835440159,-0.344683647,0.236571789
3.75,0.457516015,-0.261956215,1.279617429
3.76,0.454227805,-0.262466431,1.253329635
3.77,-0.431317866,-0.164229393,1.965850949
3.78,-0.825361788,0.056240082,2.286675453
3.79,-0.381684423,0.259800911,0.404890508
3.8,-0.060817063,0.111268044,-0.415724248
3.81,0.249990225,0.055904388,-0.689121604
3.82,0.243363798,0.055517197,-0.676597595
3.83,0.512568533,-0.282475472,-0.089436457
3.84,0.352000862,-0.297167778,0.164399207
3.85,-0.106671691,-0.124835968,0.239756778
3.86,-0.102132261,-0.124429703,0.245523661
3.87,-0.643349528,0.036417961,0.070007816
3.88,-0.574197471,0.029436111,-0.246106684
3.89,-0.248235524,-0.013828278,-0.574392915
3.9,0.530974269,0.045500755,-0.029305957
3.91,0.183728814,0.138632774,1.258225441
3.92,0.183331072,0.138549805,1.253288507
3.93,0.121010661,0.253409386,1.20020771
3.94,-0.186284304,-0.005070686,0.050657813
3.95,-0.3531726,-0.167552948,-0.530257464
3.96,-0.508399725,-0.284506798,-1.188076615
3.97,-0.507778406,-0.284285545,-1.17504704
3.98,-0.390036643,-0.277112961,-1.744126558
3.99,0.236965358,-0.217273712,-1.346898913
4,0.216765344,-0.119444847,0.419654787
4.01,0.122335136,0.035478592,1.415546775
4.02,0.034306228,0.116205216,1.991665363
4.03,-0.090181649,0.259409905,2.201292515
4.04,-0.097292006,0.177791596,1.938115358
4.05,-0.053467631,0.134620667,1.246679306
4.06,0.023813784,-0.152724266,0.30208239
4.07,0.095299244,-0.349095345,-0.104385234
4.08,0.201551318,-0.325258255,-0.920543015
4.09,0.176706076,-0.193587303,-1.523660064
4.1,-0.027428687,-0.236467362,-1.52246058
4.11,-0.024790764,-0.236200333,-1.513183594
4.12,-0.325027347,-0.161881447,0.012448195
4.13,-0.733070612,0.070404053,0.418577373
4.14,-0.868352711,0.247608185,0.456185877
4.15,-0.584820211,0.209147453,0.326869667
4.16,-0.591178954,0.208664894,0.316029131
4.17,0.670015872,-0.244797707,0.234741002
4.18,0.82602942,-0.34157753,0.43338427
4.19,0.473935962,-0.23210144,0.944380462
4.2,-0.052205503,-0.182082176,1.076156616
4.21,-0.586936116,-0.146027565,0.938493133
4.22,-0.998641133,-0.061704636,0.783765078
4.23,-1.052672505,-0.020226479,0.006447718
4.24,-1.042569399,-0.019514084,0.011628918
4.25,-0.748064578,-0.107813835,-0.99493444
4.26,-0.065664649,-0.29220295,-1.802528143
4.27,0.191409767,-0.352163315,-1.278372407
4.28,0.316364378,-0.388374329,-0.361206472
4.29,0.158840478,-0.28350544,0.468517304
4.3,0.152060568,-0.284018517,0.457315534
4.31,-0.178430378,-0.090586662,1.956482172
4.32,-0.183359623,-0.09089756,1.940188646
4.33,-0.16980058,-0.004882813,2.188353777
4.34,-0.197574616,-0.002487183,1.352231622
4.35,-0.198542893,0.019151688,0.455589861
4.36,-0.207879484,0.018315315,0.484036773
4.37,-0.161728025,-0.082975388,-0.707245171
4.38,-0.432977915,-0.169692993,-0.452613801
4.39,-0.440376461,-0.170043945,-0.417358965
4.4,-0.164452672,-0.33078289,0.089916423
4.41,0.144212127,-0.326371193,0.2466304
4.42,0.131268203,-0.326592445,0.285981596
4.43,-0.069268644,0.003927231,0.80752182
4.44,-0.079763174,0.004507065,0.858044982
4.45,0.183180422,0.038934708,0.379740715
4.46,0.626982451,0.040175438,-0.807479382
4.47,0.776887417,0.010552406,-1.239005208
4.48,0.600871742,-0.042983055,-0.977150321
4.49,0.772787809,-0.075170517,-0.760402322
4.5,0.709677577,-0.19888401,-0.388020814
4.51,0.330786586,-0.085855484,0.124514997
4.52,-0.269867539,-0.006516457,0.750013232
4.53,-0.7701056,0.027285576,0.860511065
4.54,-0.90133071,0.05170536,0.57184124
4.55,-0.731144011,-0.067193031,0.190640807
4.56,-0.20945555,-0.303701401,-0.380380809
4.57,0.055542707,-0.497485161,-0.699512422
4.58,0.052088559,-0.471460342,-0.878678143
4.59,0.038285673,-0.472037315,-0.876900613
4.6,0.021511495,-0.12553978,-0.866451919
4.61,0.215633631,-0.085743904,-0.54122138
4.62,0.281714916,0.039977074,0.051356733
4.63,0.000773311,0.220704079,0.444028258
4.64,-0.458537221,0.425580025,0.726844907
4.65,-0.457857728,0.424860954,0.7134763
4.66,-1.010161161,0.433915138,1.158226013
4.67,-1.103238821,0.330626488,1.11015296
4.68,0.017632037,-0.038140297,-0.662176728
4.69,0.688587904,-0.191392899,-0.950785101
4.7,0.678410232,-0.191482544,-0.944284082
4.71,0.321839422,-0.033465385,-0.400116324
4.72,-0.553760767,0.040943146,0.301250011
4.73,-1.032520533,0.091543198,0.81573379
4.74,-1.044916272,0.039338112,0.706330657
4.75,-0.560465694,-0.237678528,0.248344153
4.76,0.035399377,-0.595998764,-0.43248421
4.77,0.003233641,-0.710058212,-0.699583769
4.78,0.070039839,-0.666199684,-0.600514591
4.79,0.217301205,-0.522096634,-0.436649084
4.8,0.227230817,-0.287371635,-0.333377361
4.81,-0.025166988,0.002122879,-0.242424071
4.82,-0.306674629,0.226867676,-0.305941105
4.83,-0.303497165,0.226503372,-0.31432724
4.84,-0.887115479,0.381607056,0.086793065
4.85,-0.894215584,0.364269257,0.480487496
4.86,-0.843259156,0.29658699,0.802633762
4.87,-0.586797535,0.17385006,0.891983569
4.88,-0.313201815,0.041507721,0.754946947
4.89,0.10802123,-0.033378601,0.715851605
4.9,0.106507331,-0.034011841,0.704086363
4.91,0.437199414,-0.118549347,0.353639334
4.92,0.191138148,-0.013853073,0.059153765
4.93,0.187288195,-0.01447773,0.049285859
4.94,-0.032482833,-0.022334099,-0.152870446
4.95,0.15270716,-0.288956642,-0.34013325
4.96,0.022370517,-0.505627632,0.351731509
4.97,-0.118667334,-0.602632523,0.671394825
4.98,-0.425573021,-0.886222839,0.314165115
4.99,-0.301344514,-1.037823677,-0.297491491
5,-0.143976957,-1.24187851,-0.56570363
5.01,0.249719366,-1.570864677,-0.89686954
5.02,1.157931209,-1.727787018,-0.857418299
5.03,1.137351751,-1.729404449,-0.885750651
5.04,1.611002922,-1.163690567,-0.579071999
5.05,1.519137859,-0.514092445,-0.893685877
5.06,1.032815218,0.023109436,-1.260371089
5.07,1.008423209,0.021839142,-1.301281214
5.08,0.803326309,0.296055794,-1.602013946
5.09,1.279416561,0.982193947,-1.107471228
5.1,1.301222563,1.340476036,-0.670266688
5.11,1.308335066,1.610384941,-0.869074047
5.12,1.264873147,1.609968185,-0.897537351
5.13,0.931014299,1.839608192,-1.47961092
5.14,0.746099949,2.016751289,-1.446275353
5.15,0.6863662,2.086304665,-0.818135023
5.16,0.211347207,1.734546661,-0.307818294
5.17,-0.086673491,1.112213135,-0.194367349
5.18,-0.228008539,0.240778923,-0.445638984
5.19,-0.268868744,-0.743299484,-1.004247904
5.2,-0.163267925,-1.648379326,-1.477076173
5.21,-0.146473661,-2.357124805,-1.700887084
5.22,-0.149853647,-2.357141018,-1.690431714
5.23,0.093288973,-2.850313663,-1.425263524
5.24,0.091094092,-2.850268841,-1.429487944
5.25,0.490999162,-2.629931927,-1.492206931
5.26,0.497269332,-2.191671848,-1.393455029
5.27,0.453160316,-1.873071194,-1.192278266
5.28,0.451735318,-1.374820709,-0.977295518
5.29,0.389267206,-0.936279297,-0.537409782
5.3,0.617403626,-0.66757679,-0.686092973
5.31,0.609519303,-0.666971207,-0.713647366
5.32,0.635666847,-0.33360672,-1.006595731
5.33,0.398524761,0.064319611,-1.08679235
5.34,0.553715229,0.02158165,-1.202407479
5.35,0.501169205,0.093605042,-1.187331915
5.36,0.228458047,0.093633652,-1.19580543
5.37,0.177425653,0.021785736,-1.031405926
5.38,0.279320806,-0.107460022,-0.751511812
5.39,0.279724419,-0.107335091,-0.756913424
5.4,0.8152619,-0.128720284,-1.04248023
5.41,0.604633808,0.125164986,-1.25912869
5.42,0.447599471,0.592069626,-1.295544863
5.43,0.102349654,0.936784744,-1.513601542
5.44,-0.09863507,1.379516602,-1.802929282
5.45,-0.329248488,1.678436279,-1.602176189
5.46,-0.278761208,1.821767807,-1.094324827
5.47,-0.174529612,1.989135742,-0.355372936
5.48,-0.235534936,1.775945663,0.414289475
5.49,-0.30437234,1.641828537,0.488331527
5.5,-0.578688741,1.859570503,0.416533083
5.51,-0.555517852,2.299899101,0.029422551
5.52,0.144327879,2.811903,-0.348022372
5.53,0.503119648,3.371918678,-0.273816884
5.54,0.692891181,4.233932495,0.360105574
5.55,0.388908744,5.002964973,1.331449866
5.56,-0.064274251,5.429940224,2.040153265
5.57,-0.037299156,5.430961609,2.01993227
5.58,0.19958508,5.048892975,3.539249897
5.59,0.58735019,4.398488045,3.931961536
5.6,0.649829745,3.781446457,3.623232365
5.61,-0.208372861,2.908067703,2.612270355
5.62,-1.398099303,1.895786285,1.953188777
5.63,-2.244957447,1.024765015,1.893619299
5.64,-2.699896574,0.220920563,2.250168562
5.65,-2.744662285,-0.376831055,3.092719316
5.66,-1.992692947,-0.849935532,3.11244154
5.67,-1.597300649,-0.928228378,2.510204077
5.68,-1.587457299,-0.927702904,2.504350185
5.69,-1.638638258,0.475850105,0.302141726
5.7,-1.546859026,1.096542358,-0.386460543
5.71,-1.669475079,1.676665306,-0.762505174
5.72,-1.837732553,1.938433647,-0.720076561
5.73,-1.950796843,1.865264893,-0.330074549
5.74,-1.948093772,1.866755486,-0.358349621
5.75,-1.357370734,-0.029899597,1.285797596
5.76,-1.054236412,-1.354496956,0.678775013
5.77,-1.115702152,-2.701303482,-0.234373272
5.78,-0.970960319,-3.974466324,-0.832925499
5.79,-0.53390944,-5.111570358,-1.140006065
5.8,-0.518965602,-5.111712456,-1.127990007
5.81,-0.187481403,-6.775963783,-0.423201531
5.82,0.446631938,-7.061118603,0.065788925
5.83,1.050343633,-7.3034935,0.480173528
5.84,1.589900613,-7.436088562,0.559301138
5.85,1.735817671,-7.289116859,0.420968652
5.86,1.527619362,-6.941069126,0.296236008
5.87,1.318696856,-6.367741108,0.075931191
5.88,1.307768941,-6.368834972,0.091007769
5.89,0.778121114,-4.643475533,-0.312702626
5.9,0.610272169,-3.61948204,-0.347734273
5.91,0.351588398,-2.595363617,-0.393120945
5.92,0.329997033,-2.595948219,-0.394800842
5.93,-0.38122198,-0.549379349,-0.809639812
5.94,-0.880711734,0.26172924,-1.456920624
5.95,-1.310530901,1.250065804,-1.186969042
5.96,-1.719805717,2.06862545,-0.427036226
5.97,-2.389836788,2.772498131,0.08559078
5.98,-2.562922716,3.274857521,-0.093947887
5.99,-2.10227561,3.585231781,-0.151001215
6,-1.715750217,3.847378731,-0.277807981
6.01,-1.726036906,3.846008301,-0.246464163
6.02,-1.274130464,3.87818718,-0.376885325
6.03,-1.255013347,4.018231392,-1.13386929
6.04,-1.291886806,4.191958427,-1.589787364
6.05,-1.5192765,4.545406342,-1.387887597
6.06,-1.656460166,4.915763855,-0.966140747
6.07,-0.594326913,5.27660656,0.105872035
6.08,0.95683068,6.111537933,1.942626238
6.09,0.937083483,6.11093998,1.990988374
6.1,1.953521371,6.366804123,3.169371128
6.11,3.08526206,6.048388481,3.997653246
6.12,2.894557953,5.342377663,4.951640606
6.13,2.419676065,4.404272079,5.440970898
6.14,1.623291731,2.903523445,5.019770145
6.15,1.126837611,1.263922691,3.379580498
6.16,1.100703955,1.264363289,3.366899967
6.17,0.396771669,-0.167110443,2.554945707
6.18,0.44211328,-0.432831764,2.69747901
6.19,0.710828781,-0.603121758,2.173245192
6.2,0.789445758,-0.536551476,1.290413618
6.21,0.639037013,-0.252135277,0.461671025
6.22,0.705108583,0.04442215,0.202521563
6.23,0.735738993,0.044224739,0.220168859
6.24,1.382982135,0.190135002,1.130671859
6.25,1.534707785,0.017552376,1.690786958
6.26,1.348086715,-0.305893898,1.730501652
6.27,1.003284693,-0.883015633,1.362511635
6.28,0.997131109,-0.882915497,1.318160415
6.29,0.642800629,-2.628001213,0.291231901
6.3,0.288301855,-3.400822639,0.30406794
6.31,0.281740308,-3.400205612,0.265526891
6.32,-0.058555942,-4.146681309,0.415590227
6.33,-0.31822294,-5.257239819,0.555827797
6.34,-0.307901144,-5.257121563,0.54680568
6.35,-0.373019964,-5.673901558,0.226666063
6.36,-0.39041096,-5.832318306,0.22570467
6.37,-0.054426808,-5.701024532,0.931816459
6.38,0.064203523,-5.689373493,0.669689596
6.39,0.093654662,-5.749519348,-0.042765744
6.4,0.11732816,-5.483972073,-0.311046451
6.41,0.148229212,-5.483971119,-0.282344103
6.42,0.328657597,-5.174908638,-0.318892598
6.43,0.397436023,-4.202500343,-1.293168306
6.44,0.492522597,-3.313812256,-1.156375885
6.45,0.51367116,-3.313365936,-1.152101278
6.46,0.661778212,-2.398436546,-0.89952457
6.47,0.855663717,-1.723080635,-0.5961079
6.48,0.630997181,0.04407692,0.010675635
6.49,0.637871742,0.04430294,-0.000328571
6.5,0.014716133,1.495527267,-0.263900161
6.51,-0.022217989,2.130261421,-1.204747677
6.52,-0.146951079,2.918168068,-1.833018064
6.53,-0.047993332,3.796977997,-2.18199563
6.54,0.017174572,4.764307022,-2.497943163
6.55,0.018157154,4.764293671,-2.489933252
6.56,-0.468391568,5.939891815,-3.170665264
6.57,-1.385893822,6.172317505,-2.826848984
6.58,-1.372374177,6.172724724,-2.826855421
6.59,-2.288868427,5.577205658,-1.270448565
6.6,-1.735057831,5.10147953,-0.086542487
6.61,-0.867515683,4.783706665,1.048846602
6.62,0.51109916,5.078866005,1.50528729
6.63,1.740892887,5.467460632,2.57380414
6.64,1.342924356,5.032877922,4.400538921
6.65,0.246601537,4.422030449,5.282175064
6.66,-0.665500045,3.105825424,4.976961613
6.67,-0.931364238,1.327724457,4.787554741
6.68,-0.407234252,-0.542293549,4.436504841
6.69,0.730185092,-1.927690029,3.503108263
6.7,1.024490118,-2.531781673,2.323917627
6.71,0.168526948,-1.944535255,1.320770502
6.72,-0.844436646,-1.161541939,0.489283919
6.73,-1.239958882,0.031072617,-0.560141683
6.74,-1.928712487,1.647872925,-1.082674503
6.75,-2.998857498,2.865433693,-0.272351712
6.76,-4.318200111,3.62160778,1.576948404
6.77,-3.969863653,3.114521027,3.262611151
6.78,-2.269309759,1.578140259,3.09920311
6.79,-0.821151078,-0.614462853,1.454402447
6.8,0.007476777,-2.43855381,0.057848088
6.81,0.725889921,-4.068809032,-0.017424665
6.82,0.725166261,-4.068898678,-0.012596518
6.83,1.006797194,-6.403674126,-0.28546828
6.84,1.469258785,-7.086817741,0.012330048
6.85,1.807820082,-7.593081474,0.31142056
6.86,2.224406719,-7.795313835,0.318338454
6.87,2.11440587,-7.454026222,0.843495369
6.88,1.618073225,-7.076517582,1.171132445
6.89,1.248611808,-6.54315424,1.072889328
6.9,0.736998916,-5.952367306,0.417259306
6.91,0.296830088,-5.409523964,-0.303316951
6.92,0.27593255,-5.41020298,-0.295119643
6.93,-0.428599775,-4.275937557,-0.918087304
6.94,-0.543809891,-3.668300152,-0.847894192
6.95,-0.404013991,-2.948020935,-0.471422613
6.96,-0.485828936,-2.270801544,-0.186803266
6.97,-0.523351073,-1.562458992,-0.21103023
6.98,-0.426171988,-0.748884201,-0.166218668
6.99,-0.678824246,0.110149384,-0.468126416
7,-0.690822423,0.109617233,-0.443380684
7.01,-1.006016135,1.263171196,-1.161112189
7.02,-1.151178241,2.256382942,-1.39192152
7.03,-1.364892244,3.429319382,-1.408561945
7.04,-2.377866983,5.378083229,-0.954978466
7.05,-1.998561263,5.634159088,-0.66098237
7.06,-1.591899276,5.437757492,-0.715905607
7.07,-1.60926795,5.437728882,-0.701643884
7.08,-1.648581266,5.152821541,-1.43659687
7.09,-2.610791683,4.511240959,-2.252945662
7.1,-2.261799335,4.094768524,-1.55491221
7.11,-1.790781379,4.05670929,-0.29488802
7.12,-0.240762755,4.887964249,0.950957894
7.13,1.561950088,5.049244881,1.827907324
7.14,2.698493481,5.199542046,2.61887145
7.15,3.26321125,4.984562874,3.418102741
7.16,3.508655071,4.011454582,4.47887516
7.17,3.502491951,4.015483856,4.55927515
7.18,3.708181143,2.793075562,5.198851585
7.19,3.475908041,0.197463036,4.913650513
7.2,3.284744978,-0.490982056,3.388724804
7.21,2.573188782,-0.459499359,1.481436968
7.22,1.51429975,0.236929894,-0.662020385
7.23,0.793091297,1.047829628,-1.619167566
7.24,0.194941863,2.112174988,-0.978616893
7.25,-0.586628437,3.15218544,0.066788435
7.26,-1.326033711,3.358894348,-0.332612038
7.27,-1.300485373,2.986445427,-0.258274227
7.28,-0.921929658,1.907625198,0.352648318
7.29,-0.269836187,0.359422684,0.553818107
7.3,-0.199468464,-1.12383461,0.311448246
7.31,-0.437825829,-2.477493763,0.445652723
7.32,-0.691231489,-3.704135895,0.67861557
7.33,-1.069417,-4.865992546,0.347744703
7.34,-1.043589354,-4.866396904,0.347429663
7.35,-0.917369425,-6.568981171,0.378727615
7.36,-0.659244955,-6.93318367,0.946867466
7.37,-0.32135582,-7.093841076,0.986471295
7.38,-0.000287731,-7.26388073,0.905025601
7.39,0.037669659,-7.263723373,0.906884372
7.4,-0.094698474,-7.014327526,0.858301401
7.41,0.122962803,-6.714470863,0.314682186
7.42,0.166713014,-6.237493515,-0.262017727
7.43,0.20155783,-6.237135887,-0.268529892
7.44,0.051523641,-4.936961651,-0.789198279
7.45,0.176894292,-4.161372185,-1.036987424
7.46,0.240389526,-3.136975288,-1.089419246
7.47,0.258099943,-3.137495041,-1.12310648
7.48,0.149634019,-1.179247856,-1.453057289
7.49,0.163130924,-1.179232597,-1.468807697
7.5,0.222227246,0.714779854,-1.146714926
7.51,0.101975754,1.698917389,-0.667380869
7.52,0.277451992,2.503486633,-0.590112627
7.53,0.279866099,2.503445625,-0.596253038
7.54,0.395046115,3.930360794,-1.473678708
7.55,0.159282789,4.674994469,-1.685712218
7.56,0.163205817,4.675156593,-1.68530941
7.57,-0.245770246,5.005884171,-2.051636934
7.58,-1.103550792,5.303256989,-2.281697989
7.59,-1.458599687,5.854561806,-1.60389781
7.6,-0.927940369,6.513656616,-0.757790506
7.61,-0.410449624,6.542945862,-0.220142871
7.62,-0.390466273,6.543637276,-0.230281398
7.63,0.584868789,5.938860893,3.336014271
7.64,0.640557885,4.915492058,4.723400593
7.65,0.288272619,3.646099091,4.957856178
7.66,0.282012373,2.453623772,5.13588047
7.67,0.30343625,2.455349922,5.157229424
7.68,0.632685244,0.4129076,6.213820934
7.69,0.309854537,-0.043316841,6.200458527
7.7,-0.791287184,0.034083366,4.247330189
7.71,-1.853598118,0.818172455,2.496138811
7.72,-2.592387199,1.468772888,1.222097874
7.73,-4.237071037,2.43844223,-0.304025412
7.74,-4.626760483,2.807950974,-1.289628625
7.75,-4.408856392,3.184793472,-0.798173726
7.76,-3.616887569,2.747437477,0.34577319
7.77,-2.091868877,1.445342064,0.961437881
7.78,-0.695968151,0.207366943,1.087720037
7.79,-0.152641773,-0.664552689,0.946924985
7.8,-0.001181722,-1.689595222,0.770826578
7.81,-0.008151591,-1.689884186,0.751782239
7.82,0.055768669,-2.731706619,0.566641569
7.83,0.591338575,-4.7816329,-0.021433614
7.84,0.583972693,-5.469437122,0.285133958
7.85,0.53199178,-5.771798611,0.995719671
7.86,0.680584073,-6.220212936,1.339002728
7.87,1.010736108,-6.601632118,1.024436951
7.88,1.23197329,-6.930539608,0.152574331
7.89,1.16887784,-7.060950279,-0.196927637
7.9,1.139930248,-7.007105827,-0.246710762
7.91,0.968374968,-6.79740572,-0.354500175
7.92,0.78579247,-6.388781548,-0.50088954
7.93,0.769891739,-6.389539719,-0.483294278
7.94,0.734951973,-5.43974638,-0.840683341
7.95,0.715803325,-5.440464497,-0.835206986
7.96,-0.032734334,-3.736370087,-1.181695223
7.97,-0.344724596,-2.700194836,-1.495166183
7.98,-0.657500684,-1.61854744,-1.703545213
7.99,-0.933971763,-0.728428841,-1.9462744
8,-0.979197979,0.204927445,-2.007444143
8.01,-1.029304624,1.301192284,-1.431172967
8.02,-1.037403464,1.301028252,-1.409759521
8.03,-1.488636494,3.403215408,-0.430747271
8.04,-1.452271223,4.176753044,-0.722026527
8.05,-1.450086832,4.177122116,-0.690505624
8.06,-1.146570683,4.505670547,-0.895327151
8.07,-0.759130836,4.142189026,-0.76059705
8.08,-0.982100248,3.82403183,-1.196918726
8.09,-1.522452831,3.582327843,-2.008928061
8.1,-1.538762927,3.582407951,-1.992750287
8.11,-2.530643702,3.472380638,-1.983659506
8.12,-1.98329401,3.755289078,0.247228444
8.13,-0.944394589,4.32591629,1.773717046
8.14,-0.940428913,4.327500343,1.819286346
8.15,2.165917873,4.466590881,3.086648226
8.16,3.407338142,3.823922157,3.573609591
8.17,3.623414993,2.880576134,3.59743762
8.18,3.624647617,2.885715485,3.678002834
8.19,4.075101376,1.910834312,4.416745186
8.2,4.061522007,1.914445877,4.467281818
8.21,3.347489834,1.603438377,1.956406832
8.22,2.396762609,2.028493881,0.527022004
8.23,1.670689702,2.394475937,-0.203436375
8.24,1.169792771,2.669501305,-0.208757758
8.25,0.706068754,2.931870461,0.009687126
8.26,0.674365759,2.928304672,-0.036666036
8.27,0.178294018,2.893814087,0.595558405
8.28,0.237629935,2.56033802,0.588415623
8.29,-0.019389179,1.717305183,0.504560649
8.3,-0.638600469,0.656959534,0.350931972
8.31,-0.6464836,0.655226708,0.316927999
8.32,-1.235193968,-0.289477348,-0.093424499
8.33,-1.612406254,-1.535536766,-0.329170525
8.34,-1.911629796,-3.870665073,-0.114590883
8.35,-1.883256197,-3.87092638,-0.116979241
8.36,-1.78810823,-4.751995087,-0.100606322
8.37,-1.135218024,-6.236229897,-0.016115278
8.38,-0.363871694,-6.844087601,0.327507556
8.39,0.411780685,-7.250903606,0.759219527
8.4,0.762649953,-7.265274048,0.98074925
8.41,0.796227515,-7.265339851,0.965631247
8.42,0.729543328,-7.104850769,0.917056382
8.43,0.780107617,-6.534838676,0.33352375
8.44,0.812933743,-6.534578323,0.316631049
8.45,0.571347833,-5.408986092,-0.65745306
8.46,0.503409326,-4.630502701,-1.079506397
8.47,0.518546939,-3.698773861,-1.271247268
8.48,0.453156024,-2.800493717,-1.38152945
8.49,0.475708634,-2.799974918,-1.396310806
8.5,0.43961221,-0.649265289,-0.989998221
8.51,0.483507723,0.194251061,-0.694426298
8.52,0.257984817,1.06661129,-0.655583143
8.53,-0.064063221,1.805277824,-1.2659477
8.54,-0.35756588,2.359834671,-2.180763006
8.55,-0.302482009,3.268954277,-2.318618536
8.56,-0.288451433,3.270573616,-2.294310093
8.57,-0.493981242,4.004686356,-2.057847977
8.58,-0.562612653,4.448718071,-1.786536217
8.59,-0.652377188,4.564313889,-1.780650377
8.6,-1.262569189,4.260879517,-2.392237663
8.61,-1.323330641,4.302633286,-2.189527988
8.62,-0.667954981,5.05570507,-1.064194083
8.63,0.143685162,5.626747131,0.234928101
8.64,0.715499461,5.788151741,1.547043562
8.65,0.736136258,5.789275169,1.538287997
8.66,0.465745807,5.036821365,5.005416393
8.67,-0.111738861,4.026496887,6.022844315
8.68,-0.428004205,2.599951744,6.187351227
8.69,-0.135536611,0.873470306,5.972784996
8.7,0.278130531,-0.225153923,5.570071697
8.71,0.254112542,-0.635599136,4.968853951
8.72,-0.601382554,-0.077270508,3.563596249
8.73,-1.100035191,0.880716324,1.312989473
8.74,-1.682690144,2.269907951,-0.526233077
8.75,-3.050127745,4.189035416,-1.416153908
8.76,-3.0465734,4.188905716,-1.432666659
8.77,-5.827814579,6.468745232,1.270918608
8.78,-4.222785473,5.477856636,1.842401266
8.79,-1.606404066,3.429605484,1.750655413
8.8,-0.261646509,1.447774887,1.410419583
8.81,-0.371643722,0.045988083,1.121147275
8.82,0.39013496,-1.386627197,0.759442091
8.83,1.148712873,-2.798019886,0.025641587
8.84,1.376904011,-3.984715462,-0.062432125
8.85,1.571806669,-5.023217678,-0.017572775
8.86,1.469684124,-5.985386848,-0.162983999
8.87,1.008519292,-6.710561752,-0.071448535
8.88,0.626429439,-7.081263542,0.013663422
8.89,0.593522012,-7.083163261,0.014218133
8.9,0.655160427,-7.429758549,-0.11522425
8.91,0.580806553,-7.519997597,0.027799498
8.92,0.744126439,-7.497407913,0.122047447
8.93,0.682063222,-7.52970171,0.052950379
8.94,0.515575051,-7.327066422,-0.02557832
8.95,0.364884585,-6.978133202,-0.358506382
8.96,0.138931856,-6.468538761,-0.835302532
8.97,-0.093486309,-5.743150711,-1.10551846
8.98,-0.102169395,-5.743023872,-1.083367348
8.99,-0.275999636,-4.789872646,-1.169758916
9,-0.316082507,-2.53900528,-0.740168989
9.01,-0.320304781,-2.538525581,-0.715707302
9.02,-0.773154497,0.266181946,-1.702287555
9.03,-0.959778786,1.900491714,-1.235044479
9.04,-1.226267099,3.290577888,-1.467597604
9.05,-1.752389073,4.62816906,-1.742946267
9.06,-2.281313658,5.690609932,-1.563478827
9.07,-2.267634392,6.068167686,-1.1176337
9.08,-0.868561029,5.693348885,-0.542940617
9.09,-0.245937914,5.096879005,-0.551827073
9.1,-0.751922369,4.70339489,-1.286952972
9.11,-1.904313087,4.484645844,-2.406495094
9.12,-3.049422503,4.258989334,-2.948430538
9.13,-3.455626488,4.065120697,-2.822796106
9.14,-3.165780067,4.392062187,-1.751362801
9.15,-1.80884552,5.828647614,-0.014389336
9.16,0.919487953,6.303077698,1.367123365
9.17,2.479157209,5.903899193,2.007982016
9.18,2.921036959,5.366656303,2.201787233
9.19,2.988307476,4.410915375,2.679661274
9.2,2.9822855,4.414775848,2.729643822
9.21,2.408052444,0.984009743,3.494039536
9.22,2.389868736,0.984193802,3.50173068
9.23,2.201895237,-0.528133392,3.239099503
9.24,2.072115898,-2.110839367,2.627363682
9.25,2.106947184,-1.893733025,1.184613585
9.26,1.408948183,-1.035199165,0.527233243
9.27,1.088334799,0.530209541,0.189487815
9.28,1.083271146,0.527864456,0.157688081
9.29,0.703418195,1.929011345,0.352092266
9.3,0.989007533,3.229845047,0.661166072
9.31,0.21034722,4.425609589,0.493994296
9.32,-0.139343888,3.579148293,0.356348693
9.33,-0.139363766,3.577691078,0.331158757
9.34,-0.027602226,2.103560448,0.226421237
9.35,-0.336962402,0.337487221,-0.154623687
9.36,-0.688639045,-1.404266357,-0.47322461
9.37,-0.969623089,-4.179618835,0.019258618
9.38,-1.040383458,-5.225691795,0.36315915
9.39,-1.016612172,-5.224806786,0.372218072
9.4,-0.940651238,-6.863434792,0.433451027
9.41,-0.905854106,-6.861678123,0.450516731
9.42,-0.542165995,-7.257591248,0.534553409
9.43,0.634901881,-7.416698456,1.538499713
9.44,1.049464226,-7.25300312,1.588288546
9.45,1.07808733,-7.251921654,1.587808609
9.46,0.815193474,-6.494099617,0.281236708
9.47,0.879582524,-5.899382591,0.078549594
9.48,0.906447709,-5.89897728,0.061315537
9.49,0.772639394,-5.149308681,-0.609621465
9.5,0.553919792,-3.351173878,-1.240229845
9.51,0.589112639,-2.185395718,-1.608088136
9.52,0.565252423,-0.986316681,-1.970570087
9.53,0.305498332,0.052298546,-1.952936172
9.54,0.196189076,1.210676193,-1.835120916
9.55,-0.361604512,2.079421997,-1.324094772
9.56,-0.369391799,2.079107285,-1.321490765
9.57,-0.630421877,2.66301918,-0.833169222
9.58,-0.149416208,3.429096222,-1.609137654
9.59,-0.155868143,3.429480553,-1.592491031
9.6,-0.294016153,4.309020996,-2.057999372
9.61,-0.30136916,4.535421371,-2.123289824
9.62,-0.455601633,4.683263779,-2.034098625
9.63,-0.684306443,4.611305237,-2.004105091
9.64,-0.665704012,4.613955498,-1.975076675
9.65,-1.201429009,4.401451111,-0.32962364
9.66,-0.42830503,5.1300354,0.438499391
9.67,0.167726904,5.066022873,0.27848798
9.68,0.427714855,4.659638405,0.613190651
9.69,0.235331267,4.240844727,1.89046216
9.7,-0.2748546,3.086688042,3.159063816
9.71,-0.367501855,1.386475563,4.157645226
9.72,-0.312932074,-0.074997902,4.840982437
9.73,-0.007310688,-1.252807617,5.061767578
9.74,0.178198755,-1.239657402,4.432405949
9.75,0.168346643,-1.241929054,4.409849644
9.76,-0.405455411,0.687470436,2.615695
9.77,-0.826354444,2.106835365,0.892060578
9.78,-1.560740232,3.957839012,-0.829085946
9.79,-3.142915726,5.829256058,-0.943379343
9.8,-5.555820465,7.060268402,0.318892598
9.81,-5.214776039,6.105169296,1.458198667
9.82,-5.213261604,6.104604721,1.446923256
9.83,-1.06481719,1.144792557,0.735764325
9.84,-1.072629571,1.143981934,0.730736256
9.85,-0.998660982,-0.762005806,-0.128726482
9.86,-0.556261957,-2.909798622,-0.43272084
9.87,0.617555261,-3.875299931,0.568684936
9.88,1.595803022,-4.863157272,1.117619753
9.89,1.991400361,-5.707897663,0.643509924
9.9,1.824474573,-6.22708416,0.931351185
9.91,1.643203616,-6.478186607,1.66160953
9.92,1.736568093,-6.576178551,1.316033244
9.93,1.720500231,-6.863312721,0.384755552
9.94,1.629591346,-6.92984581,0.000731319
9.95,1.60487926,-6.931005478,0.002479017
9.96,1.397279024,-6.866974831,-0.056144089
9.97,0.624727011,-6.625609875,-0.279901385
9.98,0.461588323,-6.290866375,-0.57240355
9.99,0.382116288,-5.711854458,-0.761933804
10,0.295812428,-4.859847069,-0.99428618
10.01,-0.107081145,-3.837767601,-1.265261412
10.02,-0.509428501,-2.782060146,-1.417336106
10.03,-0.766363025,-1.546544075,-1.501645803
10.04,-0.946061611,-0.432235718,-1.650995731
10.05,-0.809094071,0.534423828,-1.432888746
10.06,-0.895393252,1.398108482,-1.046851635
10.07,-0.914886832,2.165817261,-0.907812119
10.08,-0.875519514,2.782423973,-1.06096983
10.09,-1.037363052,3.041992188,-1.428700924
10.1,-1.207629561,3.418881416,-1.326023459
10.11,-1.16707921,3.886640549,-0.630616367
10.12,-1.350800514,4.220074654,-0.085455656
10.13,-1.790358424,4.285115242,-0.355232179
10.14,-2.269626856,4.091481209,-1.491185427
10.15,-2.820273638,4.012747765,-2.216754675
10.16,-3.221216917,3.903156281,-1.931794643
10.17,-2.767588615,4.424063683,-0.232635617
10.18,-2.740595102,4.426625252,-0.21053195
10.19,0.839913547,5.814742088,1.120461941
10.2,0.855809927,5.82097435,1.186246395
10.21,4.08618927,5.170475006,3.065706968
10.22,3.896710157,4.249480247,4.206963539
10.23,3.496593237,2.922955513,4.048325539
10.24,3.487375975,2.927636147,4.092127323
10.25,2.845917225,0.566134453,2.185293913
10.26,2.522074699,-0.151262283,1.445986748
10.27,2.48415494,-0.157094955,1.405776978
10.28,1.005307913,0.386532784,-0.292686343
10.29,0.689730942,1.423442841,-0.788995028
10.3,0.737725854,2.671909332,-0.240565419
10.31,0.70966357,2.666584969,-0.292257607
10.32,1.316206217,4.017043114,2.596224785
10.33,0.318775535,3.886292458,2.471696377
10.34,-0.281400323,2.679250717,1.869341612
10.35,-0.409300596,1.080394745,1.041611791
10.36,-1.341681838,-0.675778389,-0.438496769
10.37,-1.339897394,-0.675983429,-0.441306591
10.38,-1.483572483,-3.757145405,-1.125671268
10.39,-1.347287059,-5.014130116,-0.144982398
10.4,-1.270753384,-5.912207603,0.42707929
10.41,-1.251907468,-5.912479401,0.420407563
10.42,-0.393301189,-7.18413353,0.943739891
10.43,0.277415037,-7.467092037,1.066535592
10.44,0.328987241,-7.297634602,1.224035025
10.45,0.272409648,-6.771446228,1.025002718
10.46,0.397056282,-6.204394341,0.599006414
10.47,0.546313047,-5.560687065,0.290248364
10.48,0.571982026,-5.561178207,0.270540625
10.49,0.385025024,-4.235495567,0.243617475
10.5,0.399528831,-3.651932716,-0.512527227
10.51,0.200297535,-3.104235172,-1.126288652
10.52,0.120008171,-2.611623764,-1.395351052
10.53,0.262104213,-1.970596313,-1.319477677
10.54,0.266689777,-1.971231461,-1.335638523
10.55,0.496420413,-0.789223671,-0.894357443
10.56,0.303925812,-0.208278656,-0.684711218
10.57,0.05933854,0.288766861,-1.04617095
10.58,-0.137432128,0.793012619,-1.661753416
10.59,-0.150398582,0.792132378,-1.67054224
10.6,-0.131106228,1.555099487,-2.381366491
10.61,0.291199535,2.665210724,-2.609418631
10.62,0.309783846,5.11848259,-1.63310051
10.63,0.294769794,5.117646217,-1.641993999
10.64,-0.478960872,5.590955734,-1.823281527
10.65,-0.946645498,5.027737617,-2.067463398
10.66,-1.036556363,4.050665855,-2.067717791
10.67,-1.324258924,3.316018105,-0.904222965
10.68,-1.299771786,3.316853523,-0.90295285
10.69,1.090525627,4.404987335,2.643191338
10.7,1.14629662,4.214916229,3.080963373
10.71,1.176883221,4.217280388,3.108774185
10.72,-0.475586921,3.104519844,4.184773445
10.73,-0.599266529,1.711372375,4.672379494
10.74,-0.40845862,0.257529259,5.129796982
10.75,0.889066756,-0.658932686,6.230258942
10.76,1.444082141,-0.650465965,5.514016151
10.77,0.628810167,0.14235878,2.63532424
10.78,-0.499483794,1.547749519,0.648360491
10.79,-0.791089177,3.034449577,-0.926219702
10.8,-1.912386894,5.198943138,-1.153180361
10.81,-1.931588769,5.197249413,-1.179048419
10.82,-4.350933075,7.252555847,1.915494919
10.83,-2.733056068,5.501085281,2.402234554
10.84,-0.322394729,2.705647469,1.474389791
10.85,-0.351359546,2.704553604,1.470429659
10.86,1.399653196,-1.174910545,-0.439997315
10.87,1.663363218,-2.43960762,-0.47273311
10.88,1.632301688,-2.440048218,-0.461682707
10.89,1.591775894,-3.98236084,0.0692375
10.9,1.528518796,-4.538165092,0.236430287
10.91,1.498813152,-4.538345337,0.245477498
10.92,1.338537574,-4.895060062,0.37483111
10.93,0.845230103,-5.471829414,0.475959539
10.94,0.716059506,-5.636554718,0.362692714
10.95,0.695966244,-5.635910034,0.382925928
10.96,0.425213605,-5.82431221,-0.125813663
10.97,0.406443745,-5.871522903,0.044477999
10.98,0.540846646,-5.77523613,0.151784539
10.99,0.918025076,-5.669523716,0.060566932
11,0.864434242,-5.506402969,-0.26363647
11.01,0.842893183,-5.5061903,-0.262266368
11.02,0.246893495,-5.015198231,-0.595362783
11.03,-0.111487329,-4.670309067,-0.826777935
11.04,-0.606065989,-4.150597095,-0.86343503
11.05,-0.616573095,-4.150386333,-0.862204075
11.06,-1.165170789,-2.766017914,-1.327955604
11.07,-1.442662954,-1.816792965,-1.492500186
11.08,-1.636706829,-0.890758514,-1.273748636
11.09,-1.554851294,0.047822952,-1.11089325
11.1,-1.246861458,0.886512756,-0.893523932
11.11,-0.774271011,1.278097153,-0.987461329
11.12,-0.446073741,1.622115135,-1.334422588
11.13,-0.723553419,1.843657494,-1.863445878
11.14,-1.087479711,2.246677399,-2.133167267
11.15,-1.433699846,2.934054375,-2.119232178
11.16,-1.894622087,3.755045891,-2.13795042
11.17,-2.316334248,4.575787544,-2.320568323
11.18,-2.725098133,4.960674286,-2.461668015
11.19,-2.785814047,4.634599686,-2.34086895
11.2,-2.31964469,4.500307083,-1.220090389
11.21,-1.346157551,5.300133705,-0.139853001
11.22,1.018802404,6.752254486,0.578699052
11.23,2.962293148,7.261874199,1.384288788
11.24,4.4031744,6.898805618,3.474676371
11.25,4.57521534,5.731664658,5.539154053
11.26,4.547138214,5.731466293,5.537920475
11.27,3.59017396,4.135433197,5.563122749
11.28,2.495561838,2.618106842,4.90918684
11.29,0.754112303,0.094833374,1.472099066
11.3,0.016057186,0.458857536,0.849946499
11.31,-0.071834892,0.866486549,1.1085217
11.32,-0.393262684,2.029553413,1.310278177
11.33,-0.516364217,2.904613495,0.840119124
11.34,-0.484347045,2.903098106,0.823140502
11.35,-0.666501045,3.426729202,0.504743159
11.36,0.030449864,2.403628349,1.301983714
11.37,0.564272106,1.444638252,1.732912779
11.38,0.694510818,0.398862839,1.698663235
11.39,0.334113598,-0.735765457,1.184451103
11.4,-0.343224615,-1.786370277,0.668998599
11.41,-0.687576115,-2.807786942,0.244925827
11.42,-0.985084415,-3.804705143,0.137264252
11.43,-1.127127886,-4.592870712,0.123749554
11.44,-1.038212776,-5.186749458,0.197839171
11.45,-0.882928193,-5.70607996,0.280215681
11.46,-0.76583916,-6.009665489,0.416890651
11.47,-0.159365147,-6.384904861,0.563316345
11.48,0.063832909,-6.424748421,0.575010181
11.49,0.039722413,-6.334961891,0.426462948
11.5,0.242624372,-5.940796375,0.14328903
11.51,0.513528884,-5.599115372,-0.296380341
11.52,0.580349863,-5.104201317,-0.644137263
11.53,0.608043373,-5.102693558,-0.640027463
11.54,0.583634019,-4.574747562,-0.769057035
11.55,0.570858359,-3.209103107,-1.026674747
11.56,0.483436823,-2.432667255,-1.287899733
11.57,0.489684463,-2.432057858,-1.282672882
11.58,-0.003340721,-0.796141625,-1.366021037
11.59,0.047634304,-0.117884636,-1.338940859
11.6,0.045204759,-0.117181778,-1.322613478
11.61,0.134099126,0.304915428,-1.050897121
11.62,0.244859934,0.71965313,-0.522570014
11.63,0.314622134,1.41686821,-1.060824633
11.64,0.304959089,1.417398453,-1.042533278
11.65,0.217328131,2.753899574,-1.092008114
11.66,-0.450829655,3.498668671,-1.91031909
11.67,-0.643622398,4.298682213,-2.567093849
11.68,-0.803376913,4.990839958,-2.042983055
11.69,-0.813715935,4.990047455,-2.04743576
11.7,-1.295390844,5.228672981,-1.754484057
11.71,-1.334229112,4.682546616,-1.524638772
11.72,-1.531790733,4.333548546,-0.810388565
11.73,-1.512594461,4.334896088,-0.80409503
11.74,-1.419026732,4.540802956,0.207705289
11.75,-0.472321987,5.264225006,0.850137115
11.76,0.525154769,5.01349926,0.98508656
11.77,0.970393002,3.927556992,2.36634779
11.78,-0.272378922,0.948215485,4.323500633
11.79,-0.232483566,0.952991486,4.351861954
11.8,-0.781616807,-2.085402012,3.171898603
11.81,-0.749828458,-2.082500935,3.179453611
11.82,-0.44607842,-2.603662968,3.270332813
11.83,-0.278890908,-0.770807266,2.54606986
11.84,-0.428718209,0.380002022,2.034474373
11.85,-0.849527538,2.276644707,1.296655655
11.86,-2.028325796,4.487261772,1.327382326
11.87,-4.203029633,6.304291725,2.15238452
11.88,-5.080871105,6.626285553,2.667534351
11.89,-3.511580706,4.995145798,1.551041126
11.9,-2.29283905,3.110096931,0.430446476
11.91,-1.889564753,1.297036171,-0.145236373
11.92,-1.898228645,0.059283257,-0.212968886
11.93,-1.879187584,0.059680939,-0.245301127
11.94,-1.414962649,-1.144272804,-0.164085954
11.95,-0.49618721,-3.109710217,0.238316804
11.96,0.116588414,-3.806473732,0.113872737
11.97,0.491968721,-4.202104092,0.152846709
11.98,0.564950645,-4.543095589,0.380919278
11.99,0.703137815,-4.829276085,0.417789459
12,0.690344691,-4.830831528,0.390285373
12.01,0.825880706,-4.88061285,0.45158276
12.02,0.752592027,-4.834773064,0.610267997
12.03,0.958303452,-5.227211475,0.170379877
12.04,1.044286847,-5.344585419,0.242699936
12.05,1.301430225,-5.553045273,0.235918298
12.06,1.264902472,-5.555714607,0.212402985
12.07,0.720553875,-5.333171368,-0.069527566
12.08,0.450062335,-5.160524368,-0.494970381
12.09,0.421524525,-5.162313461,-0.498836398
12.1,0.434521914,-4.218104839,0.056034394
12.11,0.412010849,-4.219436169,0.064041175
12.12,0.105024904,-3.679482937,-0.060584307
12.13,-0.200573623,-2.552788734,-1.196936488
12.14,-0.117357701,-1.299213409,-0.55384779
12.15,-0.360128135,-0.203630447,-0.277832329
12.16,-0.647871614,0.647791863,-0.05835516
12.17,-1.1502707,1.460990906,0.262189657
12.18,-1.444428325,2.391548157,-0.005806932
12.19,-2.126787901,3.506515503,-0.841086507
12.2,-2.140985489,3.505960464,-0.845855594
12.21,-3.052047968,4.595194817,-1.644808173
12.22,-3.842896223,5.70885849,-2.402886391
12.23,-3.658733845,6.818189621,-2.479854822
12.24,-2.870477915,6.809780121,-2.608718872
12.25,-2.141104937,6.595947266,-2.673293114
12.26,-1.160496116,6.552039146,-2.404890537
12.27,-0.29891187,6.10072422,-1.297585249
12.28,0.423729867,5.41946888,0.119357988
12.29,0.724776149,4.716729164,0.824451089
12.3,0.717377305,4.7178936,0.86932075
12.31,0.693292439,4.331252098,1.221760154
12.32,0.857921481,3.894424438,1.687389374
12.33,1.441452742,4.003477097,2.749022245
12.34,1.904440641,3.813538551,3.985879898
12.35,2.338601589,3.102287292,4.482586384
12.36,2.525951624,1.577412605,3.834149837
12.37,2.231480598,0.205758095,2.994262218
12.38,1.969994545,-0.888812065,2.793154716
12.39,1.948490858,-1.673336983,2.636468887
12.4,1.963737488,-1.673741341,2.612138271
12.41,1.979808927,-1.55773735,1.276674032
12.42,1.593518972,-1.13816452,0.793601155
12.43,1.593640566,-1.140478134,0.740466952
12.44,1.138235927,0.221896172,0.54892844
12.45,0.925397813,1.009856224,0.136540949
12.46,0.64987284,1.628211021,-0.387895346
12.47,0.647983074,1.627081871,-0.436021388
12.48,-0.078190446,1.777335167,-0.591127098
12.49,-0.075553954,1.777017593,-0.629985511
12.5,-0.201067567,0.543924332,-0.772512853
12.51,0.066840351,-0.339574814,-0.557311356
12.52,0.188881159,-1.163264275,-0.705933452
12.53,0.21124801,-1.75955677,-1.023230433
12.54,0.158418596,-2.262516975,-0.97483331
12.55,0.378975213,-2.600386143,-0.117493294
12.56,0.508746505,-3.036694527,0.507537246
12.57,0.002287984,-3.908957958,0.083070576
12.58,-0.01298207,-3.909792423,0.06736505
12.59,-0.363030553,-4.420619011,0.032559335
12.6,-0.578278303,-4.787692547,-0.160381049
12.61,-0.754002392,-5.183249474,-0.484197468
12.62,-0.702680588,-5.439598083,-0.146441221
12.63,-0.879348457,-5.606934071,0.202672005
12.64,-0.875087857,-5.606125355,0.175948829
12.65,-1.285752773,-5.930351734,0.113968924
12.66,-1.342029572,-6.072392464,-0.085018203
12.67,-0.515493512,-5.893743038,-0.303347945
12.68,-0.069449782,-5.360931396,-0.368056715
12.69,0.311981857,-4.557592392,-0.620347321
12.7,0.463637531,-3.75166893,-0.92545116
12.71,0.492318809,-3.750030518,-0.912077308
12.72,0.247024328,-1.392359734,-1.250502706
12.73,0.12577194,-0.23199749,-1.738410354
12.74,0.145792663,-0.23080349,-1.71993947
12.75,-0.697574139,1.714193344,-2.958381414
12.76,-0.748278916,2.358761787,-3.010620356
12.77,-0.619796097,3.105800629,-2.528202772
12.78,-0.279109776,3.952695847,-2.065456629
12.79,-0.126781881,4.583879471,-1.970130682
12.8,-0.169150472,5.179331779,-1.784513712
12.81,-0.173016489,5.179040909,-1.762552619
12.82,-0.896361232,5.87858963,-0.721759319
12.83,-0.884754956,5.879766464,-0.677562416
12.84,1.059338808,6.712111473,1.271840334
12.85,1.657915831,5.8736763,3.029821396
12.86,1.514583349,4.937745094,3.82186079
12.87,1.070378661,3.676699638,2.960156918
12.88,0.739108801,2.295771599,2.128744841
12.89,0.735696375,2.296619415,2.157191753
12.9,0.236685753,0.092683792,2.609267235
12.91,-0.122974932,-0.353040695,2.259466887
12.92,-0.384761334,-0.045314789,2.20914793
12.93,-0.582678258,0.458745956,2.384775162
12.94,-0.710047245,1.042349815,2.449641228
12.95,-0.779788911,1.74426651,1.914934754
12.96,-0.835000336,2.324753761,1.155923128
12.97,-0.847692072,2.323830605,1.153119206
12.98,-0.630158842,2.421032906,0.593456268
12.99,-0.030701697,2.110938072,0.447511941
13,0.20284158,1.735766411,0.744011879
13.01,0.244999617,1.11626339,0.669292271
13.02,-0.084315836,0.13054657,-0.389074504
13.03,-0.339489818,-0.581910133,-0.625858545
13.04,-0.359060764,-0.583034515,-0.630836368
13.05,-0.199364841,-1.271261215,0.131134272
13.06,0.229765251,-2.651272297,-0.726962328
13.07,0.115178734,-3.142977238,-0.458913267
13.08,0.098222911,-3.143934727,-0.468307734
13.09,0.497696221,-4.006961346,0.077680334
13.1,0.724119246,-4.518162727,-0.016577914
13.11,0.957372367,-4.804249763,0.076197326
13.12,0.855559945,-4.910615444,0.31411323
13.13,0.949223816,-5.040640354,0.287503749
13.14,0.983095408,-5.261472702,0.074061699
13.15,0.970958352,-5.261885643,0.071393944
13.16,0.852463722,-5.446564198,-0.196397826
13.17,0.944669962,-5.365426064,-0.443719149
13.18,0.860814929,-5.054430485,-0.53787297
13.19,0.847849011,-5.054689884,-0.528484941
13.2,0.255445272,-3.745238304,-0.424306303
13.21,-0.119101092,-2.799649239,-0.551427722
13.22,-0.129753411,-2.799613953,-0.530943155
13.23,-0.776711762,-0.934060097,-0.077665657
13.24,-0.97245425,0.01964283,0.064998969
13.25,-0.964756966,0.020782471,0.105402291
13.26,-1.647382975,1.492422104,-0.783581734
13.27,-1.572612286,2.104870796,-1.165697336
13.28,-1.296874523,2.832465172,-1.0529598
13.29,-1.23759985,3.1889925,-1.021083832
13.3,-1.229315758,3.191157341,-0.979785562
13.31,-1.897829533,3.188197136,-1.954235554
13.32,-2.274559736,2.928455353,-2.494321108
13.33,-2.690965891,2.658616066,-2.560559034
13.34,-2.981657982,2.747810364,-1.567801476
13.35,-2.324316263,4.226225853,0.391312212
13.36,-0.308833093,5.660027504,1.817422986
13.37,2.133174896,6.288146019,2.047534943
13.38,3.38128376,5.304167747,2.097450256
13.39,3.385792255,5.310694695,2.180487394
13.4,3.17960453,4.256654739,2.866400003
13.41,2.583761692,1.244959831,3.775662422
13.42,3.018577814,0.273180962,4.027148247
13.43,3.017222166,-0.171608925,2.849355221
13.44,2.422350168,-0.191839218,1.041500092
13.45,1.929177761,0.397081375,-0.114554226
13.46,1.317846775,1.204124451,0.176366031
13.47,0.410659969,2.341111183,0.645440817
13.48,0.383842975,2.336468697,0.597526908
13.49,0.08905147,3.271316528,0.2478109
13.5,-0.075770333,3.809187889,0.678656399
13.51,0.560547352,2.752539635,1.510596275
13.52,0.541933,2.750336647,1.481836081
13.53,-0.601957083,0.323429108,-0.089942813
13.54,-0.944163024,-0.968363762,0.128648132
13.55,-1.09905076,-2.382201195,0.421501994
13.56,-1.063777089,-3.412874222,0.740666449
13.57,-1.265488386,-4.508112431,0.866291642
13.58,-1.251495481,-4.508835316,0.851351261
13.59,-1.418015838,-5.131868362,0.825609148
13.6,-1.359910607,-5.47945118,0.975901187
13.61,-0.603316069,-5.561074734,0.429102123
13.62,-0.5670228,-5.561139584,0.413508236
13.63,-0.471293896,-5.051162243,0.200593144
13.64,-0.433568269,-5.051317692,0.174864233
13.65,0.155159369,-4.658857822,0.241641134
13.66,0.485286444,-4.077227116,0.390563369
13.67,0.303648442,-3.373288631,-0.119884133
13.68,0.19882226,-2.870293617,-0.506790459
13.69,-0.004276961,-2.549133301,-0.513602853
13.7,0.111136377,-2.180121422,-0.81437093
13.71,0.124647021,-2.179859161,-0.824652076
13.72,0.371886283,-1.523534775,-1.009969115
13.73,0.594733059,-1.097090721,-0.562464714
13.74,0.509865284,-0.957892418,-0.649864554
13.75,0.286146998,-0.834831238,-0.736946106
13.76,0.05639261,-0.629904747,-0.760016263
13.77,-0.257121444,-0.355175972,-0.964705229
13.78,-0.303766787,-0.022646904,-1.407331944
13.79,-0.114649415,0.374641419,-1.47663188
13.8,0.165105343,1.276970863,-1.584928036
13.81,0.454978645,2.164451599,-1.438716054
13.82,0.423170984,2.960595131,-1.227645636
13.83,0.150773823,3.476264954,-1.261772633
13.84,-0.252451241,3.436306,-1.108420014
13.85,-0.243283033,3.437094688,-1.104154706
13.86,-0.768802881,3.031463623,0.383578777
13.87,0.20132184,3.92668438,1.525179148
13.88,0.218092322,3.929421425,1.553688049
13.89,1.115523577,4.284878731,1.576913357
13.9,0.084502816,5.208478928,2.455673218
13.91,-0.823133946,4.849003792,2.758734703
13.92,-0.800821006,4.853815079,2.801173925
13.93,-1.923792839,1.874774933,3.603176117
13.94,-2.02066493,0.147118568,2.742125034
13.95,-1.604260683,-0.731412888,2.156103134
13.96,-0.910816789,-0.976945877,2.004951477
13.97,-0.76020807,-0.173171997,1.690343618
13.98,-0.749843299,0.707942963,1.59348774
13.99,-0.776953697,2.409939766,1.921829224
14,-0.972863376,3.932600975,1.966191053
14.01,-1.578454733,5.139865875,2.133446693
14.02,-1.973984361,5.119429588,2.351080656
14.03,-1.967675924,5.118386269,2.329797029
14.04,-0.465879679,2.162686348,0.98557204
14.05,-0.080634952,0.811097145,0.632706404
14.06,0.118140578,-0.330130577,0.583624244
14.07,0.178166032,-1.127054214,0.599326193
14.08,0.323258281,-1.840522289,0.617681444
14.09,0.569869399,-2.322009087,0.613543034
14.1,0.681703568,-2.726965427,0.615520656
14.11,0.659762085,-2.729591846,0.595926285
14.12,1.049104571,-3.091311932,0.646622717
14.13,1.224148512,-3.191940308,0.543886185
14.14,1.070722103,-3.225332737,0.480294257
14.15,1.060597658,-3.251188755,0.498901933
14.16,0.982237637,-3.327214718,0.437491924
14.17,0.94879365,-3.328900814,0.439215094
14.18,0.741062045,-3.356667995,0.189158201
14.19,0.467615008,-3.326695442,0.106233478
14.2,0.228815407,-3.162371635,0.076296002
14.21,0.200766832,-3.162717819,0.090779871
14.22,-0.091602832,-3.064425945,0.12602064
14.23,-0.511419296,-2.905814171,0.14179197
14.24,-0.763523161,-2.952577591,0.125770688
14.25,-0.754469514,-2.927065849,0.10117352
14.26,-0.65702951,-2.846003532,0.053631842
14.27,-0.656902075,-2.843370438,0.091348708
14.28,-0.640038014,-2.749547005,0.200028122
14.29,-0.449888349,-2.497581005,0.163279414
14.3,-0.348128378,-2.082856178,-0.064922988
14.31,-0.181130588,-1.419318199,-0.125952184
14.32,-0.138960749,-0.725147247,-0.316327632
14.33,-0.161553174,0.062185287,-0.420066655
14.34,-0.163774341,0.064015388,-0.39923954
14.35,-0.743197203,1.959586143,-0.490341246
14.36,-0.746424079,1.961181641,-0.472526193
14.37,-1.942372203,2.728575706,-1.454636931
14.38,-2.034648895,2.573145866,-1.030012846
14.39,-1.893812656,2.838303566,0.504201412
14.4,-1.511965394,3.395401955,0.025062561
14.41,-1.358730316,3.74765873,-0.668523789
14.42,-1.355240464,3.748958588,-0.656345844
14.43,0.061805367,5.711444855,0.320538342
14.44,0.364842564,6.037563324,0.222808361
14.45,0.372196138,6.041539192,0.258515
14.46,1.516479731,5.181847572,1.687798262
14.47,1.372215509,3.888896942,1.386213064
14.48,1.373958111,3.893047333,1.421476126
14.49,1.085207701,0.998474121,1.387777925
14.5,1.078172445,-0.331088066,1.733134747
14.51,0.909020066,-1.238455772,2.103914022
14.52,1.002207875,-1.402094841,2.205381393
14.53,1.345345259,-0.967431068,1.963629603
14.54,1.373819828,-0.472849846,1.863100767
14.55,1.365384579,-0.476133347,1.835119605
14.56,1.703760147,0.219552994,1.595424175
14.57,1.354181051,1.738650322,1.444709778
14.58,1.089388728,1.974218369,1.303363204
14.59,0.686235309,1.869476318,0.992622435
14.6,0.23948966,1.386192322,0.816279769
14.61,-0.082089603,0.7492342,0.706055284
14.62,-0.329522133,0.048043251,0.632335186
14.63,-0.448717803,-0.800875664,0.766795933
14.64,-0.404662579,-1.639457703,0.943485379
14.65,-0.442535669,-2.36236763,1.060834408
14.66,-0.359670728,-2.98850441,0.982119143
14.67,-0.180362731,-3.405868053,0.93385756
14.68,0.033604898,-3.684110641,0.917318881
14.69,0.153379127,-3.619991302,0.950379014
14.7,0.357144415,-3.273528576,1.111561537
14.71,0.473438054,-2.831702232,0.997560024
14.72,0.365027666,-2.239189625,0.660190105
14.73,0.255129635,-1.689814568,0.464817822
14.74,0.148342595,-1.29847908,0.248865679
14.75,0.184959605,-0.998126984,0.010428101
14.76,0.234587133,-0.791163445,-0.118105501
14.77,0.226229042,-0.792478561,-0.146129817
14.78,0.829271317,-0.302969933,0.452251554
14.79,1.10557878,-0.100682259,0.648675323
14.8,1.087257862,-0.101758003,0.622411549
14.81,0.771989524,0.112888336,1.014553666
14.82,0.671875358,0.066725731,0.725005984
14.83,0.650776327,0.020739555,0.805639029
14.84,0.813665152,0.156813622,0.985614538
14.85,0.869104326,0.441414833,1.391692281
14.86,0.683130324,0.527362824,0.608565569
14.87,0.524868667,0.563214302,0.232651115
14.88,0.449423909,0.963015556,0.436768442
14.89,0.262702853,1.240668297,0.212846056
14.9,0.042112544,1.257352829,0.079272419
14.91,0.014288418,1.18547821,0.122944027
14.92,-0.016464006,1.092079163,0.352465928
14.93,-0.01073686,1.092050552,0.352862209
14.94,-0.321330249,0.66584301,0.235916257
14.95,-0.200906307,0.498203278,0.020581156
14.96,-0.092176691,0.388051987,-0.007300839
14.97,-0.081654422,0.388022423,-0.006718069
14.98,0.021785133,0.524524689,0.159597501
14.99,0.09351401,0.768829346,-0.005998075
15,0.056246348,0.742630005,0.016888231
15.01,0.04192622,0.469889641,-0.003859669
15.02,0.112105675,0.235528946,0.188091189
15.03,0.124847964,0.235887528,0.200015426
15.04,0.109294996,-0.328677177,-0.05060178
15.05,0.098532051,-0.684861183,-0.098391324
15.06,0.13759324,-0.981142998,0.021515936
15.07,0.182812303,-1.150525093,0.200373516
15.08,0.203310892,-1.238492012,0.280148119
15.09,0.167781383,-1.192418098,0.344154209
15.1,0.108828254,-1.11524868,0.305988669
15.11,0.115896292,-1.11478138,0.31612429
15.12,-0.095930859,-1.092861176,0.160928741
15.13,-0.177608728,-1.09021759,0.191972926
15.14,-0.174778774,-1.090102196,0.193993017
15.15,-0.174213529,-0.963212967,0.576590061
15.16,-0.465259045,-0.728669167,0.428352624
15.17,-0.721438766,-0.386417389,0.325509936
15.18,-0.922316968,0.025200844,0.125826016
15.19,-0.929703236,0.024846077,0.119459406
15.2,-1.358301401,0.630076408,0.005638719
15.21,-1.409670472,0.777817726,0.114090055
15.22,-1.595733523,0.851220131,0.316100597
15.23,-1.684860229,0.783423424,0.246291459
15.24,-1.687468052,0.782793045,0.226115495
15.25,-1.605827212,0.545307159,-0.145879805
15.26,-1.545534134,0.360638619,-0.190056488
15.27,-1.545806408,0.173741341,-0.267540932
15.28,-1.424993753,0.020493507,-0.42140609
15.29,-1.404912829,0.020636559,-0.428656519
15.3,-1.213495612,0.020906448,-0.476257801
15.31,-0.359425545,0.212785721,0.361214161
15.32,-0.341860056,0.021547318,0.467885733
15.33,-0.309769034,-0.176712036,0.32232064
15.34,-0.129205346,-0.304655075,0.703700006
15.35,-0.092135847,-0.303549767,0.702055156
15.36,-0.226054817,-0.869988442,-0.084247291
15.37,-0.201965481,-0.868989945,-0.079515591
15.38,-0.212024808,-0.748446465,0.303444892
15.39,-0.198098868,-0.747735977,0.309616864
15.4,-0.418333948,-0.62739563,0.58557266
15.41,-0.406444192,-0.626808167,0.589223564
15.42,-0.351766974,-0.453821182,0.505696893
15.43,-0.379091024,-0.335957527,0.381205618
15.44,-0.470044524,-0.031351089,0.121431947
15.45,-0.557334662,0.213367462,-0.130458638
15.46,-0.505554617,0.462780953,-0.258402228
15.47,-0.77198875,0.673291206,-0.240973234
15.48,-1.060089469,0.823877335,0.033954367
15.49,-1.05140996,0.768589973,0.114246696
15.5,-1.05489552,0.768507958,0.117717594
15.51,-0.73472321,0.265872955,0.064782053
15.52,-0.501030147,0.055542946,-0.092099965
15.53,-0.199424088,0.046520233,-0.199572712
15.54,0.043975055,0.068673134,-0.242305458
15.55,0.046217561,0.069478035,-0.221355021
15.56,-0.008081615,0.12788868,-0.213132948
15.57,-0.01616767,0.169700623,-0.214805514
15.58,-0.123796493,0.036916733,-0.289237559
15.59,-0.107836366,-0.088645935,-0.133748978
15.6,-0.187748879,-0.27891922,-0.155502766
15.61,-0.238757998,-0.47636795,-0.269586325
15.62,-0.24652341,-0.640304565,-0.356660545
15.63,-0.241749913,-0.639092445,-0.337951779
15.64,-0.184303254,-0.712208748,-0.242839515
15.65,-0.081318676,-0.675296783,-0.159836412
15.66,-0.096192122,-0.427854538,-0.087088466
15.67,-0.070252657,-0.144605637,0.022313714
15.68,0.005438089,0.037995338,-0.118789077
15.69,0.008710861,0.088949203,-0.220575273
15.7,0.011877477,0.089582443,-0.212802887
15.71,0.019668102,0.135678291,-0.217560113
15.72,0.101670504,0.11233139,-0.277451038
15.73,-0.036061823,0.050872803,-0.454690874
15.74,-0.032900155,0.051673889,-0.444740593
15.75,-0.097180247,-0.031254768,-0.522320986
15.76,-0.130007267,0.005696297,-0.528359115
15.77,-0.131204844,0.05473423,-0.116692722
15.78,-0.038330615,0.142100334,0.253556639
15.79,-0.034452021,0.143218994,0.266367048
15.8,-0.164188147,0.058344841,-0.364928186
15.81,0.238926739,-0.155984879,0.395111084
15.82,0.275188059,-0.153291702,-0.020132661
15.83,0.132745445,-0.074000359,-0.647443891
15.84,0.205209374,0.091563225,-0.24642235
15.85,0.105671197,0.31665802,0.391395181
15.86,0.109123021,0.206328392,0.279164732
15.87,0.104793161,0.206168175,0.280302227
15.88,-0.170474112,-0.01899147,-0.043303728
15.89,-0.195698321,-0.119797707,-0.051217794
15.9,-0.206641674,-0.22541523,-0.10446471
15.91,-0.078209996,-0.266213417,-0.163386881
15.92,-0.086134195,-0.206363678,-0.127628326
15.93,-0.023681641,-0.211101532,-0.180560827
15.94,-0.025367677,-0.211050987,-0.17877686
15.95,0.185852289,-0.031517982,0.111728251
15.96,0.075452924,0.059620857,-0.173291624
15.97,0.077195108,0.060132027,-0.167918742
15.98,-0.062874496,0.060869217,-0.120093644
15.99,0.118041068,0.035411835,-0.240740597
16,0.161256552,-0.033126831,-0.432309151
16.01,0.144853473,-0.068356514,-0.347488046
16.02,0.202714264,0.022971153,-0.238976479
16.03,0.091154635,0.094874382,-0.130127728
16.04,-0.123433232,0.133229256,-0.062481999
16.05,-0.176258922,0.118977547,-0.10735482
16.06,-0.233074069,0.061828613,-0.191031933
16.07,-0.203193843,-0.007209778,-0.1399526
16.08,-0.20397073,-0.006798744,-0.134623528
16.09,-0.132904112,-0.035110474,-0.210544884
16.1,-0.133483052,-0.034653664,-0.204639435
16.11,-0.190560162,0.037682533,-0.170405448
16.12,-0.158572137,0.047728539,-0.03605032
16.13,-0.126231015,0.0314188,0.037728369
16.14,-0.124903858,0.031814575,0.04150027
16.15,-0.116472483,0.008308411,-0.006979227
16.16,-0.107824862,0.04464817,0.023480415
16.17,-0.144205213,0.05222702,0.017094851
16.18,-0.141840816,0.052627563,0.020217359
16.19,-0.122717679,0.053031921,0.056881368
16.2,-0.057627201,-0.02553463,-0.002141476
16.21,-0.117330134,-0.152021408,0.067985654
16.22,-0.114915788,-0.151754379,0.069380879
16.23,-0.179224253,-0.062930107,-0.267236829
16.24,-0.177311719,-0.062874794,-0.267879784
16.25,0.222890496,0.01343441,0.940181613
16.26,-0.025957346,-0.061392784,0.166109622
16.27,-0.211857617,-0.013543129,-0.149379909
16.28,-0.123425245,0.012907982,0.302094579
16.29,0.044482917,0.048744202,0.440072268
16.3,-0.120302677,0.015228271,-0.295421362
16.31,-0.119342327,0.015615463,-0.291626096
16.32,-0.030534625,0.085296631,0.194673598
16.33,-0.024753213,0.070908546,0.149845779
16.34,-0.153862774,0.082948685,0.235696495
16.35,-0.334737718,0.070968628,0.293831825
16.36,-0.240866542,-0.075051308,0.128680646
16.37,-0.098348141,-0.120365143,-0.004027426
16.38,-0.099706948,-0.076964378,0.130150676
16.39,-0.098024368,-0.076645851,0.132794499
16.4,-0.058365166,-0.057172775,0.125932455
16.41,-0.055093229,-0.023351669,0.183672071
16.42,-0.08072859,-0.011229515,0.050992012
16.43,-0.135117352,-0.022990227,0.024148703
16.44,-0.134459496,-0.02275753,0.026265264
16.45,-0.016533852,-0.077528954,0.175221682
16.46,-0.016399443,-0.077241898,0.178115666
16.47,0.09513548,-0.036313057,0.188314021
16.48,-0.087832212,0.021402359,0.079038322
16.49,-0.184476137,-0.038292885,0.038295805
16.5,-0.2645607,-0.090849876,-0.065185905
16.51,-0.244853795,-0.11236763,0.06796813
16.52,-0.222744048,-0.119585991,0.099584103
16.53,-0.190959632,-0.057407379,0.126223922
16.54,-0.079689264,0.05989933,0.179478347
16.55,-0.162438452,0.074321747,0.11390233
16.56,-0.234583497,0.127251625,0.200652599
16.57,-0.225748241,0.074925423,0.141144633
16.58,-0.175296664,0.027518272,0.082538545
16.59,-0.149040997,0.025618553,0.07439816
16.6,-0.022779286,-0.007472992,0.015508592
16.61,-0.043793797,0.069538116,0.119906068
16.62,-0.117508948,0.077085495,0.166514874
16.63,-0.147559822,0.067955017,0.177649617
16.64,-0.146091521,0.068454742,0.181991458
16.65,-0.137225568,-0.021865845,-0.03251487
16.66,-0.156952381,-0.078668594,0.009239197
16.67,-0.095695615,-0.109231949,-0.041019738
16.68,-0.095016956,-0.10869503,-0.035966575
16.69,-0.095019877,-0.093828201,-0.145881772
16.7,-0.056917846,0.038346291,-0.021142364
16.71,-0.067208052,0.060300827,0.043028355
16.72,0.013650179,0.082221031,0.525892496
16.73,0.065076888,0.02731514,0.20493865
16.74,-0.190380096,-0.123121262,-0.491664589
16.75,-0.356050372,-0.127188683,-0.21857667
16.76,-0.168651044,-0.035727501,0.125715375
16.77,-0.141917408,-0.040109634,-0.22750628
16.78,-0.109966219,0.042029381,-0.357228637
16.79,-0.109736204,0.042728424,-0.350838661
16.8,-0.057840765,0.234646797,0.120210767
16.81,-0.058934391,0.235054016,0.124586463
16.82,-0.189089716,0.240344048,0.072317362
16.83,-0.305873752,0.173851013,0.280603409
16.84,-0.121720135,0.088279724,0.170508087
16.85,-0.133782446,0.053239822,0.177333534
16.86,-0.13514483,-0.063080788,0.17040354
16.87,0.03091377,-0.110084534,0.188776135
16.88,0.047171235,-0.140497208,0.115277052
16.89,0.048897922,-0.139792442,0.12067163
16.9,-0.055051744,-0.028964043,-0.019895196
16.91,-0.041101217,-0.081106186,-0.042420506
16.92,-0.018014789,-0.083018303,-0.065299511
16.93,-0.01733619,-0.082732201,-0.063009977
16.94,0.00934571,-0.029842377,0.058363795
16.95,0.119118452,0.059071541,0.078155637
16.96,0.008445561,0.081108093,-0.022553563
16.97,-0.058571994,0.014674187,-0.096142054
16.98,-0.058430493,0.015250206,-0.091277123
16.99,-0.106770754,-0.161679268,-0.026635885
17,-0.18670857,-0.116208077,-0.043108225
17.01,-0.168477655,-0.008644104,0.085101843
17.02,-0.264767647,0.074966431,0.098043084
17.03,-0.281130433,0.110869408,0.045134068
17.04,-0.276925325,0.149512291,0.051846743
17.05,-0.220663726,0.104597092,0.00247705
17.06,-0.21646452,0.105257988,0.006125569
17.07,-0.121216834,0.098763466,0.060174346
17.08,0.052320898,0.0443573,0.114367604
17.09,0.055277407,0.045079231,0.119020939
17.1,-0.009153008,-0.06206131,0.300023496
17.11,-0.04265219,-0.133356094,0.312828898
17.12,-0.052351475,-0.1497612,0.228541195
17.13,-0.050566375,-0.149542809,0.229540765
17.14,-0.135296583,-0.13973999,-0.08534503
17.15,-0.236690044,-0.12036705,-0.175333142
17.16,-0.261885762,-0.127491951,-0.321473956
17.17,-0.260399044,-0.127380371,-0.321256518
17.18,-0.26331389,0.102614403,0.179353297
17.19,-0.261409223,0.102674484,0.178859294
17.2,-0.06142211,0.102683067,0.518255353
17.21,-0.139532745,-0.040863037,0.097327709
17.22,-0.135466754,-0.186465263,0.152899265
17.23,-0.05421406,-0.131165505,0.180053413
17.24,-0.075815201,-0.109579086,-0.086580396
17.25,-0.002926052,-0.095056534,0.033864141
17.26,0.070917666,-0.004066467,0.280827463
17.27,-0.036762655,0.03867054,0.410609365
17.28,-0.027441204,0.054801941,0.337275446
17.29,-0.03086853,0.05399704,0.332202971
17.3,-0.177941859,-0.023402214,0.040033817
17.31,-0.180888712,-0.024058342,0.035988331
17.32,-0.142784536,0.006545067,0.047152042
17.33,-0.058398902,0.042167664,0.167726755
17.34,-0.061765492,0.066030502,0.179376721
17.35,-0.00998956,0.089949608,0.232429504
17.36,0.04177177,0.094802856,0.283714056
17.37,0.002848983,0.099913597,0.162266552
17.38,0.002986968,0.100523949,0.167532504
17.39,-0.063383758,0.010278702,0.003503919
17.4,-0.029368758,-0.075202942,0.035548806
17.41,-0.008060575,-0.084326744,0.109016657
17.42,-0.028194726,-0.029051781,0.182954371
17.43,-0.156165898,-0.029028893,0.109504581
17.44,-0.211657703,-0.00500679,-0.040416479
17.45,-0.261374056,0.019132614,-0.0940485
17.46,-0.243544996,0.033684731,-0.006889701
17.47,-0.242317796,0.033802032,-0.006479979
17.48,-0.093238831,0.062569618,0.144254804
17.49,0.010122061,0.103342056,0.223752737
17.5,-0.08919096,0.108516693,0.156784892
17.51,-0.075246572,0.104234695,0.136166334
17.52,-0.042323232,0.056783676,0.241790235
17.53,0.03345114,-0.021913528,0.260391951
17.54,0.034502447,-0.021626472,0.262160778
17.55,0.137799352,-0.050122261,0.213809967
17.56,0.065311432,-0.035648346,0.294053793
17.57,0.064292908,-0.035736084,0.29372406
17.58,0.051178217,-0.031173706,0.297273397
17.59,-0.005220711,-0.021863937,0.209580779
17.6,-0.00189352,-0.010258675,0.25031513
17.61,-0.029791832,-0.041742325,0.257679224
17.62,-0.01488775,-0.037260056,0.124356866
17.63,-0.016801775,-0.047109604,0.094417334
17.64,-0.18317163,0.072472572,0.01479435
17.65,-0.145079255,0.101143837,0.189177752
17.66,-0.061495245,0.105854034,0.205494583
17.67,-0.06215167,0.105899811,0.206092536
17.68,-0.065083206,0.103459358,0.352111697
17.69,0.094448566,-0.081050873,0.322576106
17.7,0.08668682,-0.035823822,0.308636725
17.71,-0.006617188,-0.045805931,0.041818976
17.72,-0.025663793,-0.029168129,0.078991055
17.73,0.03011328,-0.024477959,0.184472978
17.74,0.008096099,0.102204323,0.545578897
17.75,0.00709784,0.051223755,0.369097054
17.76,-0.104782105,-0.102753639,0.1636011
17.77,-0.179773748,-0.110510826,0.193774521
17.78,-0.143342793,-0.144574165,0.218772531
17.79,-0.143928528,-0.144902229,0.216279507
17.8,-0.074266613,-0.087508202,0.277912796
17.81,0.032209337,-0.027485847,0.214038432
17.82,0.074136883,0.027942657,0.364988625
17.83,0.014996648,0.033057213,0.288405716
17.84,0.020669222,-0.057638168,0.106037498
17.85,0.021067321,-0.057370186,0.108066917
17.86,-0.060032308,-0.100276947,0.128792882
17.87,-0.074584126,-0.016361237,0.175351381
17.88,-0.096520483,0.060260773,0.094139576
17.89,-0.125425637,0.079476357,0.106652856
17.9,-0.125195324,0.079557419,0.107339025
17.91,-0.167715669,0.094070435,0.122691393
17.92,-0.030563891,-0.006299973,0.207737744
17.93,-0.029918313,-0.006093025,0.209176838
17.94,0.015798271,-0.034669876,0.255751193
17.95,0.008589983,-0.044135094,0.211323798
17.96,0.008570671,-0.044079781,0.211704314
17.97,-0.082164168,-0.06315136,0.186031878
17.98,-0.048549712,0.006381035,0.107749701
17.99,-0.03929168,0.018520355,0.056567431
18,-0.135696352,0.047416687,0.142265558
18.01,-0.116817713,0.023649216,0.186864078
18.02,-0.078395665,0.004703522,0.222094238
18.03,-0.035135031,-0.002230644,0.178482354
18.04,-0.049454808,-0.023478508,0.109223008
18.05,-0.042118847,-0.01591301,0.102735758
18.06,-0.063518524,0.010774612,0.163106918
18.07,-0.063452482,0.011055946,0.165374279
18.08,-0.05414921,-0.003178596,0.214402497
18.09,-0.109615624,-0.026938438,0.113092899
18.1,-0.26085943,-0.033889771,-0.073801517
18.11,-0.231349289,0.043188095,-0.094332337
18.12,-0.244225502,0.019806862,-0.047424912
18.13,-0.242886961,0.020335197,-0.043773413
18.14,0.008466899,-0.111077309,0.619359374
18.15,0.008086085,-0.111026764,0.620034456
18.16,0.215605825,-0.123293877,0.783121228
18.17,0.055675805,-0.176065445,0.319996774
18.18,-0.139576018,-0.075564384,-0.262872338
18.19,-0.160779893,-0.056303024,-0.21426785
18.2,-0.068559408,0.123244286,0.193157554
18.21,-0.071701765,0.1229105,0.191953421
18.22,-0.101504445,0.11532402,0.278850496
18.23,-0.238075972,0.076827049,0.113396049
18.24,-0.23896265,0.076795578,0.113424063
18.25,-0.177097023,-0.045288086,0.116195917
18.26,-0.035962522,-0.059563637,0.143325448
18.27,-0.052838445,-0.025830269,0.090169787
18.28,-0.053150892,-0.025517464,0.092814207
18.29,0.072298408,0.046566963,0.322991252
18.3,0.027157664,0.085137367,0.326050639
18.31,0.025555789,0.085541725,0.330128193
18.32,-0.118914366,-0.040699005,0.022085547
18.33,-0.075998902,-0.068688393,0.049734712
18.34,-0.04023093,-0.058365822,0.053352237
18.35,-0.040826559,-0.057671547,0.059074044
18.36,-0.104081333,0.031480789,0.013692617
18.37,-0.172233641,0.04159832,0.006567001
18.38,-0.177962124,0.032571793,0.056616902
18.39,-0.178585768,0.033064842,0.060892701
18.4,-0.066670358,-0.009625435,0.207932949
18.41,-0.067112505,-0.009202957,0.211519599
18.42,-0.11694169,-0.025384903,0.220422506
18.43,-0.151921153,-0.053602219,0.039650559
18.44,-0.150377989,-0.053062439,0.04314363
18.45,-0.122816682,-0.086206436,-0.026418447
18.46,-0.047900677,-0.07162571,0.109092593
18.47,0.062023848,-0.016535759,0.18824923
18.48,0.060927242,-0.016504288,0.189000845
18.49,0.081283033,0.11295414,0.243479371
18.5,-0.09839952,0.120398521,0.085132599
18.51,-0.078938782,0.116009712,0.109584451
18.52,-0.073682249,0.087722778,0.170284748
18.53,-0.072844327,0.088175774,0.173362851
18.54,-0.031795084,0.045464516,0.223988056
18.55,-0.062363565,0.029155731,0.2056427
18.56,-0.135822713,-0.011034012,0.194795251
18.57,-0.134737253,-0.010410309,0.199037075
18.58,-0.19968909,-0.114683151,-0.287142277
18.59,-0.204442024,-0.042016029,-0.313080788
18.6,0.11851877,0.083049774,0.750891924
18.61,-0.015040696,-0.046080589,0.165249705
18.62,0.013557911,-0.129283905,0.131344438
18.63,-0.051313162,-0.150380135,0.498776674
18.64,-0.040709913,-0.066567421,0.208730936
18.65,-0.037970245,-0.06639576,0.208900452
18.66,-0.114131212,0.029816628,-0.093269229
18.67,-0.112842083,0.029969215,-0.092687011
18.68,0.052896082,0.130336762,0.289769769
18.69,-0.138254762,0.123056412,0.081594706
18.7,-0.178308845,0.108595848,0.12001586
18.71,-0.179970324,0.108291626,0.118440628
18.72,-0.104678392,0.005216599,0.075018168
18.73,-0.021408081,0.093777657,0.359940291
18.74,-0.021355152,0.0938797,0.360729933
18.75,-0.070437789,0.123065949,0.392303228
18.76,-0.037432432,0.107156754,0.160678029
18.77,-0.011762738,0.050623894,0.104377389
18.78,-0.010501325,0.051551819,0.110613585
18.79,0.057264626,-0.021580696,0.154172063
18.8,0.057420969,-0.020524025,0.161624074
18.81,0.022132874,-0.048144341,0.102185607
18.82,-0.011219144,-0.047021866,-0.014460683
18.83,-0.010962844,-0.046061516,-0.007663846
18.84,-0.020670295,-0.023721695,-0.026103377
18.85,-0.16216135,-0.025530815,0.107363224
18.86,-0.06434387,-0.037034988,0.050966859
18.87,-0.065425813,-0.036533356,0.054948568
18.88,-0.155190349,-0.002605438,0.120505691
18.89,-0.115128875,0.016870499,0.158844471
18.9,-0.093815386,0.033901215,0.088984966
18.91,-0.093428433,0.034273148,0.091400146
18.92,-0.026110291,-0.001302719,0.131937385
18.93,-0.050289392,0.010920525,0.164926887
18.94,-0.050522625,0.011148453,0.166497588
18.95,-0.084041893,0.013741493,0.079274893
18.96,-0.105571926,0.021042824,0.135267854
18.97,-0.105493605,0.021174431,0.136025906
18.98,-0.076524735,0.050064087,0.134716511
18.99,-0.038635135,0.040718079,0.0933007
19,0.015863836,0.074390411,0.338833094
19.01,0.01496017,0.074436188,0.339471459
19.02,-0.019518912,0.062612534,0.163708448
19.03,-0.10646385,0.062923431,0.158896446
19.04,-0.142658293,-0.051686287,0.101335526
19.05,-0.170900047,-0.020094872,-0.223712564
19.06,-0.169247568,-0.019406319,-0.219745398
19.07,-0.141522884,0.0769701,-0.055749893
19.08,0.209344953,-0.023246765,0.870231152
19.09,-0.076534688,-0.07381916,0.13111043
19.1,-0.225336313,-0.097521782,-0.077815771
19.11,-0.224108219,-0.097517967,-0.078234911
19.12,-0.018099785,-0.054824829,0.423303843
19.13,-0.015646577,-0.055190086,0.419854641
19.14,0.026774883,-0.009578705,0.01058507
19.15,0.108588547,0.121982575,0.213053942
19.16,-0.087274313,0.133535385,0.165547252
19.17,-0.127964616,0.109041214,0.234550357
19.18,-0.132778287,0.062747002,0.270690918
19.19,-0.034301043,-0.002781868,0.188910484
19.2,-0.035937428,-0.003472328,0.184796572
19.21,0.027966797,0.058425903,0.273637891
19.22,0.027099073,0.058346748,0.273390651
19.23,0.040209472,0.036932945,0.167209029
19.24,0.038950384,0.037250519,0.16984582
19.25,-0.000732481,0.027914047,0.241377592
19.26,0.018719852,-0.041100502,0.063159466
19.27,0.016422093,-0.040751457,0.066466689
19.28,0.054097831,-0.074206352,0.113569498
19.29,0.067493856,-0.059818268,0.18923974
19.3,-0.01298666,-0.028867722,0.22304368
19.31,-0.081323624,-0.005213737,0.198473215
19.32,-0.084512174,-0.005475998,0.197976351
19.33,-0.11564672,0.001582146,0.047119498
19.34,-0.189111948,-0.000894547,0.056838751
19.35,-0.139736116,-0.000943184,0.095109105
19.36,-0.140672505,-0.001184464,0.093851209
19.37,-0.003314674,-0.025352478,0.143234253
19.38,-0.00950259,0.015185356,0.166466236
19.39,-0.046791196,0.041422844,0.118385553
19.4,-0.047728181,0.041197777,0.117173314
19.41,-0.075133145,0.055290222,0.098950744
19.42,-0.009106398,0.054906845,0.149450421
19.43,0.05209434,0.133522034,0.216589689
19.44,-0.001549721,0.130801201,0.236234784
19.45,0.024234056,0.085355759,0.174422741
19.46,0.023737192,0.08551693,0.175714493
19.47,-0.033535719,-0.024375916,0.107911825
19.48,0.004876137,-0.048027992,0.162541747
19.49,0.03344053,-0.062169075,0.161699414
19.5,0.035084039,-0.050006866,0.148890972
19.51,-0.028052986,-0.049868584,0.078383088
19.52,-0.028961658,-0.049732208,0.079724073
19.53,-0.084567726,0.043789864,0.116740465
19.54,-0.080019653,0.048506737,0.279156208
19.55,-0.080209076,0.048295975,0.277826905
19.56,-0.039714813,-0.004580498,0.300405383
19.57,0.085787982,0.011960983,0.433561266
19.58,-0.183595896,-0.047867775,0.010392904
19.59,-0.190545499,-0.060009956,0.270035625
19.6,-0.088852882,0.008871078,0.241980791
19.61,-0.087291658,0.008444786,0.238480091
19.62,0.0764727,0.006084442,0.09230423
19.63,0.110009491,0.132871628,0.345275521
19.64,-0.067694962,0.154115677,0.247738719
19.65,-0.116058588,0.149014473,0.190630436
19.66,-0.095029175,0.13666153,0.094832063
19.67,-0.143413246,0.131516457,0.068515539
19.68,-0.159570575,0.131387711,0.103369355
19.69,-0.158453822,0.131415367,0.103194594
19.7,-0.137936235,0.13161087,0.242913008
19.71,-0.092526317,0.124895096,0.367381334
19.72,-0.018028557,0.08944416,0.331237912
19.73,0.009174347,0.018154144,0.094365478
19.74,0.012598217,0.018850327,0.097825885
19.75,0.087613553,-0.12185669,0.189083457
19.76,0.063530117,-0.154983521,0.27942276
19.77,0.079682082,-0.06863308,0.224840879
19.78,0.080620259,-0.068572998,0.224844337
19.79,0.044766933,-0.03520298,0.140015483
19.8,-0.037581265,0.064785004,0.169981957
19.81,-0.091494203,0.06654644,0.132504344
19.82,-0.185892105,0.070783615,0.026088357
19.83,-0.18623054,0.070439339,0.023936152
19.84,-0.221597552,0.094182968,0.086951375
19.85,-0.220271528,0.094089508,0.085821509
19.86,-0.093531966,0.125300407,0.236386538
19.87,-0.059881568,0.108681679,0.358556628
19.88,-0.057063937,0.108822823,0.358406425
19.89,0.003610969,-0.020368576,0.314819574
19.9,0.056949824,-0.094462395,0.31204021
19.91,-0.046110451,-0.183122635,0.195612073
19.92,-0.044301033,-0.183328629,0.193610668
19.93,-0.112548471,-0.178870201,0.025546908
19.94,-0.138262391,-0.129066467,0.029225588
19.95,-0.049274683,0.131430626,0.301036
19.96,-0.113280654,0.241085053,0.266314983
19.97,-0.144386113,0.233864784,0.16215241
19.98,-0.133809567,0.186167717,0.106967688
19.99,-0.079728961,0.131438255,0.150878429
20,-0.042397141,0.016945839,0.094873667
20.01,-0.010158122,0.026957512,0.010273695
20.02,-0.006492913,0.027451515,0.012202024
20.03,-0.02239567,0.070719719,0.409494996
20.04,-0.02244395,0.00597477,0.568318605
20.05,-0.076038122,-0.154702187,0.314422727
20.06,-0.228509486,-0.272330284,-0.066345811
20.07,-0.22683686,-0.272420883,-0.06771946
20.08,-0.171311796,-0.105092049,0.06320107
20.09,-0.103921473,0.045852661,-0.121594787
20.1,-0.014027476,0.130161285,0.104132175
20.11,-0.013518095,0.130584717,0.106882453
20.12,0.009895921,0.164254189,0.349954486
20.13,0.042052686,0.161593437,0.494802356
20.14,-0.09345293,0.056012154,0.213571549
20.15,-0.094547451,0.055911064,0.213379741
20.16,-0.154460728,0.036904335,0.197702885
20.17,-0.113369346,-0.094586372,0.261101008
20.18,-0.035687268,-0.094230652,0.265452147
20.19,0.046377957,-0.11071682,0.274449348
20.2,0.070117354,-0.112870216,0.216311693
20.21,-0.045481265,-0.086192131,0.010592103
20.22,-0.091208875,-0.025852203,-0.095986009
20.23,-0.146437645,-0.039589882,-0.098722935
20.24,-0.153529048,-0.000553131,-0.088972926
20.25,-0.172495008,0.019368172,0.023916125
20.26,-0.023697197,0.125341415,0.200483322
20.27,-0.057512224,0.137925148,0.142622948
20.28,-0.124460697,0.138731957,0.14804554
20.29,-0.169112086,0.125172615,0.213030458
20.3,-0.141247034,0.053971291,0.257262588
20.31,-0.072348833,-0.060559273,0.261599779
20.32,-0.005951166,-0.093862534,0.288747549
20.33,-0.007020593,-0.127325058,0.317188859
20.34,-0.013022423,-0.115398407,0.220648646
20.35,-0.007208169,-0.069971085,0.148021936
20.36,-0.003790379,-0.058152199,0.084249854
20.37,-0.039131284,-0.070279121,0.051920772
20.38,-0.038268805,-0.070401192,0.05064714
20.39,0.043537259,-0.029746056,0.016657233
20.4,0.026582956,-0.01785183,0.107213616
20.41,0.031038344,0.046962738,0.163570881
20.42,0.013667464,0.044725418,0.157707334
20.43,0.01322031,0.04486084,0.158818483
20.44,0.101159453,0.049748421,0.181309223
20.45,0.063838363,0.018555641,0.226958871
20.46,0.01869756,-0.029471397,0.131085515
20.47,0.016110897,-0.02955246,0.131685138
20.48,-0.230286837,0.003933907,-0.119171143
20.49,-0.207339287,0.00871563,-0.011049509
20.5,-0.10747242,-0.027407646,0.186583996
20.51,-0.053658426,-0.003772736,0.07727921
20.52,-0.055645227,-0.004187584,0.075374246
20.53,0.060796916,0.002173424,0.571341813
20.54,-0.039947689,-0.077716827,0.281592012
20.55,-0.040702164,-0.078417778,0.277074814
20.56,-0.016546786,0.002333641,0.05467689
20.57,0.069357038,0.045109749,0.078972816
20.58,0.067891479,0.044988632,0.078737259
20.59,-0.004705071,0.161880493,0.436173976
20.6,-0.078019202,0.134805679,0.236272574
20.61,-0.170374036,0.081329346,0.186916471
20.62,-0.156275272,0.011091232,0.160764337
20.63,-0.165213287,-0.013533592,0.274062872
20.64,-0.09092766,-0.018683434,0.338518381
20.65,-0.089873195,-0.018742561,0.337743282
20.66,-0.014077127,-0.123902321,0.2259202
20.67,-0.012321115,-0.123677254,0.226674914
20.68,0.048952818,-0.159646034,0.297592998
20.69,0.049950719,-0.159669876,0.297018409
20.7,-0.025282025,-0.176548004,0.230963707
20.71,0.05022043,-0.068986893,0.291472316
20.72,-0.102337897,0.024128914,0.234174728
20.73,-0.132498264,0.090885162,0.179089546
20.74,-0.152967274,0.128863335,0.135722518
20.75,-0.152150869,0.128471375,0.132572532
20.76,-0.141408503,0.082555771,0.136238933
20.77,-0.157088518,0.053380966,0.202184439
20.78,-0.079067409,0.009961128,0.271034002
20.79,-0.108914971,-0.009490967,0.265870333
20.8,-0.078530014,0.019016266,0.254040361
20.81,-0.081754982,0.073861122,0.170377135
20.82,-0.084817171,0.066542625,0.216602445
20.83,-0.013328016,0.083237648,0.260676861
20.84,-0.011795819,0.08318615,0.259690762
20.85,-0.045985758,0.052186966,0.290994644
20.86,-0.084884405,0.007009506,0.199049473
20.87,-0.05984354,-0.028739929,0.166200638
20.88,0.002862215,0.009667397,0.185846329
20.89,0.000380456,0.004875183,0.298375011
20.9,-6.28829E-05,0.004831314,0.298251629
20.91,-0.127326131,0.088655472,0.16936183
20.92,-0.127330184,0.088786125,0.170241475
20.93,-0.127181292,0.060153008,0.127770543
20.94,-0.100797653,0.053120613,0.116937757
20.95,-0.129215956,-0.047254562,0.01260674
20.96,-0.131049395,0.005755425,-0.009044647
20.97,-0.129917204,0.006336212,-0.005393744
20.98,-0.150317609,-0.014499664,0.032649159
20.99,-0.07849741,-0.093067169,0.425980568
21,0.100625157,-0.100180626,0.663756788
21.01,0.126359493,-0.145999908,0.34565258
21.02,0.126317114,-0.146327019,0.343379974
21.03,0.040629268,-0.055662155,-0.039775133
21.04,0.047292054,0.023217201,-0.018986583
21.05,0.045279384,0.02304554,-0.019297004
21.06,-0.0153023,0.194994927,0.354826689
21.07,-0.019091487,0.194277763,0.351467371
21.08,-0.099213243,0.143327713,0.238036871
21.09,-0.068656325,-0.000878334,0.278383732
21.1,-0.020552456,-0.044337273,0.298380375
21.11,-0.012554884,0.00349617,0.243536472
21.12,-0.006540537,0.032400131,0.166265488
21.13,0.02611059,0.051913261,0.152473211
21.14,0.024794698,0.052272797,0.155622602
21.15,0.11662069,0.042917252,0.272730947
21.16,0.033080161,0.026424408,0.048116207
21.17,-0.064572513,-0.021020889,0.109405041
21.18,0.03670752,-0.022971153,0.101280451
21.19,0.034548581,-0.022496223,0.105529308
21.2,-0.089197576,0.001978874,0.035745025
21.21,-0.083659589,-0.038433075,0.040820003
21.22,-0.054287076,0.012034416,0.037977338
21.23,-0.05629009,0.012166023,0.039830923
21.24,-0.105876923,0.019564629,0.037240028
21.25,-0.063749969,0.029477119,0.130872846
21.26,-0.118617773,-0.005804062,0.092130423
21.27,-0.11774379,-0.005105972,0.096580386
21.28,-0.025709331,-0.102531433,0.01990509
21.29,-0.003547549,-0.099584579,0.047401667
21.3,-0.003693819,-0.099210739,0.050043702
21.31,0.019365728,-0.000828743,0.15007484
21.32,0.020319521,0.092674255,0.151486993
21.33,0.018591404,0.092948914,0.154042602
21.34,-0.008916199,0.088578224,0.198029041
21.35,-0.010062575,0.088967323,0.201183796
21.36,-0.001663625,0.065526962,0.118815541
21.37,0.00451231,0.054142952,0.187860608
21.38,-0.006084919,0.028346062,0.158366442
21.39,-0.007386923,0.028846741,0.162085056
21.4,0.002799094,0.074700356,0.138933182
21.41,0.012943923,0.060613632,0.110420942
21.42,0.027474523,0.029727936,0.175092578
21.43,0.02565515,0.030021667,0.177663326
21.44,-0.07787329,0.042473793,-0.048721313
21.45,-0.137564063,0.031212807,0.247958779
21.46,0.068918973,0.019763947,0.653549075
21.47,-0.020119369,-0.080634117,-0.020371437
21.48,-0.020583212,-0.079946518,-0.015673041
21.49,0.064940661,-0.175580978,0.227355123
21.5,0.129664987,-0.190142632,0.556318402
21.51,-0.02806592,-0.024803162,-0.21624279
21.52,-0.022410452,0.143274307,0.196042419
21.53,0.013623595,0.157749176,0.333178401
21.54,0.012449622,0.157681465,0.333135724
21.55,-0.090131283,0.064264297,0.213898301
21.56,-0.087622046,-0.029427528,0.24860251
21.57,-0.089748204,-0.029755592,0.2472049
21.58,-0.08177346,-0.061040878,0.172562122
21.59,-0.158636868,-0.010602951,0.159308195
21.6,-0.193588615,0.013745308,0.19026947
21.61,0.0115152,0.052688599,0.157971144
21.62,0.012997866,0.053302765,0.161475301
21.63,0.078836471,0.034770966,0.265719175
21.64,0.077650368,0.042844772,0.105840325
21.65,-0.045132995,-0.046940804,-0.013830304
21.66,-0.034330904,-0.038700104,0.093102813
21.67,0.05275017,-0.040057182,0.044259667
21.68,0.06038788,-0.008069992,0.14780438
21.69,0.029414296,-0.005055428,0.108690262
21.7,-0.061621189,0.048199654,0.059678793
21.71,-0.111706793,0.060770035,0.06092906
21.72,-0.120380759,0.030145645,0.025632739
21.73,-0.119401395,0.030675888,0.028537273
21.74,-0.084960043,-0.004777908,0.055059433
21.75,-0.069603205,-0.004339218,0.162782431
21.76,-0.068589211,-0.004000664,0.164546013
21.77,-0.14149946,0.065796852,0.147231817
21.78,-0.139666259,0.066145897,0.148743987
21.79,-0.120792866,0.057010651,0.035844088
21.8,-0.099635959,-0.002343178,-0.043100953
21.81,-0.049714804,0.029315948,0.016925931
21.82,-0.031296015,0.07046032,0.162791371
21.83,-0.044561744,0.092310905,0.219367862
21.84,-0.042793155,0.092866898,0.222155929
21.85,-0.154864848,0.055303574,0.077399135
21.86,-0.142523587,-0.03015995,0.147815108
21.87,-0.140335441,-0.029535294,0.150982618
21.88,-0.035921991,-0.069816589,0.160125375
21.89,-0.089978218,-0.060105324,0.088733792
21.9,-0.122422159,-0.012184143,0.225053072
21.91,-0.231422603,-0.055326462,-0.04134202
21.92,-0.248216927,0.038536072,-0.156582952
21.93,-0.244435489,0.039176941,-0.153970718
21.94,-0.022660375,-0.003346443,0.52084291
21.95,-0.020476341,-0.003060341,0.521851301
21.96,0.174295932,-0.076931953,0.418274283
21.97,-0.107197106,-0.095662117,-0.252250195
21.98,-0.032789171,-0.083992958,0.310908794
21.99,-0.005926192,-0.019883156,0.448731184
22,-0.055289984,0.092494965,0.150487304
22.01,-0.110428929,0.087799072,-0.150615573
22.02,-0.148118556,0.070757866,0.066184998
22.03,-0.074577451,0.070221901,0.205303192
22.04,-0.119663537,0.066889763,0.335197449
22.05,-0.085433424,0.065862656,0.339995384
22.06,-0.162742674,0.098519325,0.235168934
22.07,-0.168038607,0.112687111,0.112083554
22.08,-0.098116696,0.053048134,0.161060929
22.09,-0.023292124,0.010192871,0.23428154
22.1,-0.023266852,0.010411263,0.235504985
22.11,0.078640729,-0.01108551,0.322467446
22.12,0.058000207,0.07042408,0.103436947
22.13,0.01772505,0.039463997,0.198491693
22.14,0.015379071,0.039383888,0.19888103
22.15,0.017386258,-0.094936371,0.203157067
22.16,0.014330685,-0.095350266,0.201729655
22.17,-0.046367526,-0.062400818,0.165806174
22.18,-0.018815219,-0.072850227,0.243015766
22.19,-0.063528359,0.036439896,0.260756135
22.2,-0.099972844,0.076497078,0.212309599
22.21,-0.071062565,0.056830406,0.209885597
22.22,-0.005883873,0.025234222,0.197968006
22.23,0.001805365,-0.015874863,0.208127499
22.24,-3.35574E-05,-0.016322136,0.205939055
22.25,0.003132403,0.055037498,0.222622991
22.26,0.001359522,0.054449081,0.219658256
22.27,-0.010011733,0.135264397,0.293148518
22.28,-0.011698544,0.134638786,0.289814353
22.29,0.001521289,0.131929398,0.257108212
22.3,-0.032597244,0.115145683,0.132653952
22.31,-0.049396634,0.103396416,0.107726097
22.32,-0.032474637,0.087008476,0.133966088
22.33,-0.03426075,0.020513535,0.146699548
22.34,0.076477975,-0.012513161,0.247794509
22.35,0.088394403,0.01426506,0.231430054
22.36,-0.024292886,0.060225487,0.244001746
22.37,-0.064474285,0.022354126,0.138830185
22.38,-0.063684344,0.022835732,0.141578555
22.39,-0.096491516,-0.082099915,0.026577353
22.4,-0.066996813,-0.053019524,-0.079261899
22.41,-0.067941606,0.090925217,0.02977705
22.42,-0.113964498,0.076860428,0.23209548
22.43,0.024339557,0.043599129,0.498860717
22.44,0.045333982,0.113080025,0.544074893
22.45,-0.135225833,-0.011618614,-0.185536385
22.46,-0.109491706,-0.078363419,0.009635448
22.47,-0.009364784,-0.040158272,0.408163667
22.48,-0.009620905,0.095999718,0.367099762
22.49,-0.038389921,0.110351563,-0.076875091
22.5,-0.024282455,0.137062073,0.121173263
22.51,0.024950206,0.134731293,0.159405112
22.52,-0.023471534,0.115175247,0.185742259
22.53,-0.024527192,0.114404678,0.181330919
22.54,-0.014607549,0.096542358,0.424136043
22.55,-0.11360997,0.038212776,0.189120174
22.56,-0.163333714,0.03763485,0.08475709
22.57,-0.152132213,0.032666206,0.020736098
22.58,-0.104438245,0.023277283,0.066642284
22.59,-0.102262795,0.023599625,0.067885041
22.6,0.081093133,0.069433212,0.316147208
22.61,0.044100046,0.112970352,0.057511687
22.62,0.045360267,0.113817215,0.062430382
22.63,0.016387343,0.045255661,0.198756099
22.64,0.018148959,0.046159744,0.203719854
22.65,0.026286423,-0.034452438,0.064760566
22.66,0.026276648,-0.034006119,0.06747973
22.67,-0.034400105,-0.012331009,0.228986859
22.68,-0.183471799,0.057193756,0.210576773
22.69,-0.238376916,0.011681557,0.174483776
22.7,-0.235143423,-0.072134972,0.123814225
22.71,-0.216868818,-0.12246418,0.111023188
22.72,-0.195593715,-0.077067375,0.049806237
22.73,-0.245614886,-0.019727707,0.012219787
22.74,-0.242858887,-0.019742012,0.010993958
22.75,-0.19216162,0.102438927,0.106158257
22.76,-0.102900386,0.176931381,0.128194213
22.77,0.014934301,0.213155747,0.306324482
22.78,0.079208791,0.191877365,0.338360786
22.79,0.037523448,0.158666611,0.310914278
22.8,0.000106573,0.149435043,0.322362423
22.81,-0.003681839,0.044393539,0.304744959
22.82,-0.014462531,-0.053443909,0.256043434
22.83,0.000887632,-0.122506142,0.169412136
22.84,-0.050610244,-0.155493736,0.172216058
22.85,-0.049602687,-0.155035019,0.174713731
22.86,-0.158939838,0.03222847,0.127232075
22.87,-0.152984023,0.059059143,0.007749796
22.88,-0.18086338,0.061964035,0.127933383
22.89,-0.180370152,0.062318802,0.129864693
22.9,-0.155782104,0.048471451,0.001129627
22.91,-0.154088557,0.049070358,0.004162192
22.92,-0.09705776,0.083229065,0.340070725
22.93,-0.150273979,0.047861099,0.280551553
22.94,-0.071696877,-0.164732933,0.282785654
22.95,-0.084887922,-0.272144318,0.19339478
22.96,0.029067636,-0.223986626,0.263831377
22.97,-0.00030756,-0.130835533,0.089534402
22.98,-0.020282149,-0.075746536,0.014784813
22.99,-0.014311373,0.048995972,0.157076836
23,-0.042515755,0.159298897,0.272753716
23.01,-0.05480653,0.154445648,0.250935316
23.02,-0.11292845,0.036895752,0.103756309
23.03,-0.121656895,0.026981354,0.126207352
23.04,-0.159091234,0.017163277,0.063047886
23.05,-0.160291433,0.017254829,0.064070225
23.06,-0.136506736,0.058241844,0.132945895
23.07,-0.059255064,0.056376457,0.06414783
23.08,-0.019814014,0.014129639,0.178960681
23.09,0.108139098,0.000597,0.272120357
23.1,0.12055254,-0.029729843,0.16905129
23.11,0.120670736,-0.028721809,0.175050855
23.12,-0.046499014,-0.077831268,-0.007238746
23.13,-0.045874774,-0.076726913,-0.000891447
23.14,-0.098078728,-0.090345383,0.012905955
23.15,-0.078656018,0.003605843,-0.003082514
23.16,-0.078643143,0.003984451,-0.000750303
23.17,-0.098321319,0.054633141,0.073472142
23.18,-0.158187032,-0.040704727,0.013731599
23.19,-0.157510579,-0.040189743,0.016489387
23.2,-0.163924336,-0.102033615,0.059252381
23.21,-0.110219777,-0.02507019,0.08494997
23.22,-0.080118537,-0.034188271,0.110984683
23.23,-0.00397867,0.071716309,0.113574147
23.24,-0.001852453,0.072415352,0.116768479
23.25,-0.035207212,0.006260872,0.006148934
23.26,-0.008403063,-0.066856384,0.018681288
23.27,0.005771339,-0.068229675,0.064454675
23.28,0.017390013,-0.065050125,0.202279687
23.29,0.085631669,-0.098129272,0.290503621
23.3,0.17201671,-0.141202927,0.321760774
23.31,0.09606266,-0.127122879,0.296809793
23.32,0.053308487,-0.051071167,0.212870479
23.33,-0.001651943,-0.047045708,0.10394156
23.34,-0.037666261,-0.043160439,0.109216571
23.35,-0.02119267,-0.025092125,0.113607764
23.36,-0.024576187,-0.0262537,0.108035564
23.37,-0.023619592,-0.044236183,0.221966624
23.38,-0.161354542,-0.081253052,0.037317634
23.39,-0.197113752,0.006545067,0.043062091
23.4,-0.198201835,0.00581646,0.039277911
23.41,-0.208425522,-0.004297256,0.105684519
23.42,-0.109003365,-0.033455849,0.438750744
23.43,0.183575094,-0.067900658,0.673506737
23.44,0.199857652,-0.092974663,0.418775559
23.45,0.116211414,-0.058273315,0.230420709
23.46,0.114804924,-0.05967617,0.222509742
23.47,0.034263849,0.03238678,0.124245882
23.48,0.031755686,0.165202141,0.354578853
23.49,0.031847775,0.178111076,0.486237884
23.5,-0.071872652,0.150109291,0.267469406
23.51,-0.222610831,0.033665657,0.094615936
23.52,-0.134811401,-0.08975029,0.216996551
23.53,-0.117931485,-0.148554802,0.271840692
23.54,-0.118915081,-0.149539948,0.266000748
23.55,0.02167666,-0.143164635,0.333086729
23.56,0.02181083,-0.076538086,0.248982072
23.57,0.012658536,0.107579231,0.242513537
23.58,0.053699374,0.136006355,0.192656994
23.59,0.015461862,0.09263134,0.080699086
23.6,0.041512907,0.058791161,0.143393874
23.61,0.057591081,0.056070328,0.175182939
23.62,0.056469083,0.055909157,0.174552321
23.63,-0.107141495,0.060704231,0.03116703
23.64,-0.114071071,0.044093132,0.017700315
23.65,-0.159205973,0.013105392,-0.062936902
23.66,-0.158309937,0.013188362,-0.062752724
23.67,-0.178396106,-0.056274414,0.07054913
23.68,-0.207301915,-0.089831352,0.081491351
23.69,-0.197449803,-0.104203224,0.109159231
23.7,-0.193963707,-0.104105949,0.108487606
23.71,-0.15926975,-0.07039547,0.105930805
23.72,-0.14125371,-0.055854797,0.139218688
23.73,-0.042434931,-0.019852638,0.203267813
23.74,-0.039901316,-0.019818306,0.202512622
23.75,-0.014463604,0.04010582,0.065888762
23.76,-0.008887768,0.107229233,0.058839202
23.77,-0.008669436,0.107051849,0.057664871
23.78,-0.063896,0.116430283,0.075650215
23.79,-0.064227462,0.116188049,0.074202895
23.8,-0.090774,0.058449745,0.070167184
23.81,-0.091456294,0.058110237,0.068264604
23.82,0.041143954,0.036222458,0.100196958
23.83,-0.012910724,0.076835632,0.116941571
23.84,-0.130806088,0.067329407,0.0481354
23.85,-0.143163681,-0.004528999,0.072064757
23.86,-0.143192291,-0.004589081,0.071730375
23.87,-0.157198489,-0.105362892,0.170839787
23.88,-0.055909455,-0.009778976,-0.113187552
23.89,-0.055079103,-0.009963989,-0.114809036
23.9,-0.064655423,-0.012639046,-0.013618708
23.91,-0.000179291,0.044178963,0.269700885
23.92,-0.063501,-0.087879181,-0.012455821
23.93,-0.064305127,-0.088224411,-0.014246225
23.94,-0.061910629,-0.23774147,0.290067077
23.95,-0.004606426,-0.047343254,-0.042907596
23.96,-0.00460875,0.07630825,-0.01742959
23.97,0.042147458,0.209449768,0.328935504
23.98,-0.047284245,0.203364372,0.137411833
23.99,-0.268870592,0.142220497,0.096822858
24,-0.2008816,0.052023888,0.154759765
24.01,-0.205232799,0.050250053,0.144587398
24.02,-0.077212036,-0.040070534,0.268504143
24.03,-0.129122078,-0.082134247,0.291099787
24.04,-0.135924518,-0.066398621,0.29364872
24.05,-0.020262241,-0.07923317,0.153202176
24.06,-0.019663095,-0.079904556,0.148420692
24.07,0.050143957,-0.078295708,0.355913758
24.08,0.049583375,-0.079295158,0.349250197
24.09,0.009725094,-0.072950363,0.042500854
24.1,-0.082531452,-0.095164299,0.126883388
24.11,-0.083548784,-0.095902443,0.122126579
24.12,-0.062679648,-0.151776314,0.054509521
24.13,-0.063573837,-0.152684212,0.048443913
24.14,0.011799514,-0.11067009,0.098781109
24.15,0.009820461,-0.111805916,0.091508508
24.16,-0.121009111,-0.081620216,0.011210561
24.17,-0.207606375,-0.103827477,-0.026886702
24.18,-0.274305105,-0.099589348,-0.02149713
24.19,-0.273237646,-0.100197792,-0.026296735
24.2,-0.188336194,-0.136807442,0.044924498
24.21,-0.106185138,-0.077713013,0.046099544
24.22,-0.145723581,-0.073647499,0.073943615
24.23,-0.143993378,-0.074254036,0.068760633
24.24,-0.144600213,-0.165755272,-0.014864564
24.25,-0.178525686,-0.235744476,-0.074955702
24.26,-0.224119246,-0.267542839,-0.016376972
24.27,-0.195657909,-0.323415756,-0.061480999
24.28,-0.120269418,-0.295715332,-0.036244392
24.29,-0.176882267,-0.138710976,-0.068317413
24.3,-0.176325798,-0.139725685,-0.076367974
24.31,-0.199767172,-0.078485489,-0.120324493
24.32,-0.213745415,0.04974556,-0.138209462
24.33,-0.191720724,0.113360405,-0.218335629
24.34,-0.215182245,0.059742928,-0.276072621
24.35,-0.21472019,0.05902195,-0.282040596
24.36,-0.287864149,-0.003767967,-0.293918967
24.37,-0.360294342,-0.083070755,-0.299562454
24.38,-0.433160782,-0.15476799,-0.604354978
24.39,-0.358020008,-0.161801338,-0.441928983
24.4,-0.217716754,-0.241019249,-0.056401491
24.41,0.084335744,-0.251390457,0.3189556
24.42,-0.188892603,-0.328140259,-0.54630518
24.43,-0.295547724,-0.270821571,-0.373167396
24.44,-0.221814573,-0.259324074,-0.083423734
24.45,-0.22055912,-0.259857178,-0.088421464
24.46,-0.260115683,-0.319946289,-0.576807857
24.47,-0.259544313,-0.320261002,-0.579639912
24.48,-0.383013845,-0.280382156,-0.13323772
24.49,-0.384363055,-0.281467438,-0.141425133
24.5,-0.377711713,-0.246852875,-0.053669095
24.51,-0.372023642,-0.161887169,-0.083560944
24.52,-0.328875423,-0.071949959,-0.122386932
24.53,-0.294582188,0.001349449,-0.186804652
24.54,-0.092749715,0.100953102,0.030857801
24.55,-0.186463535,0.099954605,-0.057811379
24.56,-0.236775398,0.096579552,0.025821447
24.57,-0.227603436,0.03791523,-0.00265944
24.58,-0.166493237,0.084395409,-0.257780194
24.59,-0.166270495,0.082868576,-0.271532893
24.6,-0.193474054,0.093044281,-0.270740867
24.61,-0.033464551,0.294240952,-0.003377557
24.62,-0.210509658,0.358505249,-0.005239844
24.63,-0.438622177,0.498724937,-0.05324316
24.64,-0.62781322,0.653318405,-0.19352591
24.65,-0.733036995,0.805520058,-0.282103717
24.66,-0.739443839,0.802147865,-0.314272881
24.67,-0.766627431,0.973649979,-0.275340974
24.68,-0.51074338,1.169206619,-0.136320591
24.69,-0.515774787,1.166171074,-0.169455409
24.7,-0.242386818,1.326097488,-0.451661944
24.71,-0.079853892,1.406956673,-0.436195195
24.72,0.016394436,1.532989502,-0.569530428
24.73,-0.023107886,1.666134834,-0.571185112
24.74,-0.032721996,1.662755013,-0.616210282
24.75,-0.027333796,1.764684677,-0.585356772
24.76,-0.096712768,1.677654266,-0.620090365
24.77,-0.129844248,1.296420097,-0.706779599
24.78,-0.27838701,0.075219154,-0.552170396
24.79,-0.16181162,-0.568601608,-0.449042767
24.8,0.165544033,-1.422866821,-0.390641153
24.81,0.156664997,-1.424627304,-0.43570137
24.82,0.560145974,-2.958632946,-0.465704948
24.83,0.738594055,-3.724000454,-0.475240231
24.84,0.71806699,-3.72576189,-0.535714865
24.85,1.012763023,-4.359443188,-0.466647089
24.86,1.464559078,-5.371071339,-0.458275408
24.87,1.428108335,-5.371790409,-0.532855153
24.88,1.027249575,-5.070257664,-1.00349915
24.89,0.983455181,-5.069832325,-1.074198842
24.9,0.80124253,-4.695333004,-1.025505781
24.91,0.622477412,-4.028180599,-1.009087563
24.92,0.576184213,-3.370278835,-1.715851665
24.93,0.317950398,-2.046305656,-1.155916452
24.94,0.250637949,-1.430293083,-1.121330261
24.95,0.197213978,-1.426633835,-1.179241776
24.96,0.151860476,-1.206962585,-1.503413558
24.97,0.143278822,-1.089550972,-1.435281992
24.98,-0.035239801,-1.119744301,-1.542006016
24.99,-0.153606206,-1.204183578,-1.743788481
25,-0.209450275,-1.196843147,-1.805528045
25.01,-0.352118611,-1.08279705,-2.014662027
25.02,-0.251806617,-0.778465271,-1.679087162
25.03,-0.058779508,-0.130456924,-1.01543653
25.04,-0.046686351,0.679160118,-0.461086392
25.05,-0.227768838,1.434481621,-0.494678557
25.06,-0.264841378,1.447612762,-0.573516548
25.07,-0.443994939,2.472921371,-0.499857545
25.08,-0.562900484,3.3852911,-1.009305716
25.09,-0.466072559,3.567071915,-1.132302999
25.1,-0.667240083,3.612423897,-1.06749022
25.11,-0.684482992,3.567083359,-0.866839647
25.12,-0.674260736,3.23206234,-0.642138124
25.13,-0.733172298,2.738617897,-0.47465384
25.14,-1.031506181,2.284929276,-0.606832147
25.15,-1.43962121,1.772165298,-0.548175573
25.16,-1.548658371,1.281591415,-0.21263659
25.17,-1.784199953,0.820863724,0.493912458
25.18,-1.883188963,0.461921692,0.919652224
25.19,-1.822340608,0.467078209,0.881455421
25.2,-1.568361282,-0.281171799,2.214231253
25.21,-1.759300232,-0.78205967,2.670105219
25.22,-2.297400236,-0.990071297,3.294906855
25.23,-2.292369843,-1.739894867,3.845257044
25.24,-2.328606606,-1.976643085,3.997561693
25.25,-2.213733196,-1.689212799,3.775284052
25.26,-2.153394938,-1.673501015,3.711698532
25.27,-1.900066376,-1.057627678,3.350775719
25.28,-1.965251088,2.497560501,2.125483274
25.29,-2.908716917,5.010246277,1.698010206
25.3,-3.681721687,7.691821098,2.631162405
25.31,-4.495640755,9.983608246,4.351771355
25.32,-4.540863991,11.27526093,6.082219124
25.33,-4.483605862,11.29744816,6.01877594
25.34,-3.371792316,11.8439846,5.709320545
25.35,-2.61003089,12.47072887,1.565648317
25.36,-2.555631638,12.47563839,1.560020685
25.37,-0.456059933,9.930636406,1.212239265
25.38,-0.434934437,9.933973312,1.206273794
25.39,-0.140033245,7.676893234,-0.53502965
25.4,0.522414506,6.007975578,0.455978394
25.41,1.426334977,4.409121513,2.664788008
25.42,1.847701907,2.539424896,2.660554409
25.43,1.735025167,0.500789642,1.205818892
25.44,1.665870547,-1.580526829,0.021240711
25.45,1.974559546,-3.272099018,-0.023035049
25.46,2.562473536,-5.2085042,0.011554003
25.47,2.39739275,-7.004087448,-0.293394804
25.48,1.794284105,-8.467057228,-0.13709116
25.49,1.37824142,-9.779705048,0.563122749
25.5,1.154968262,-11.06928635,0.016777277
25.51,0.998610497,-12.20650482,-1.250997663
25.52,0.954961598,-12.22437286,-1.179040313
25.53,1.219193101,-13.92361546,-3.375274181
25.54,1.17315352,-13.93494797,-3.326073885
25.55,1.791409969,-13.87798786,-2.794989109
25.56,2.059252739,-13.41674423,-2.12963295
25.57,2.226628542,-12.48554802,-1.646857262
25.58,2.202893972,-11.47444153,-1.389970303
25.59,1.895345926,-9.731593132,-1.667307854
25.6,1.920001984,-6.946712494,-2.022543192
25.61,2.143747091,-4.33330822,-2.01452589
25.62,2.536871433,-1.010826111,-1.748806
25.63,3.746921062,2.392883301,-1.327670574
25.64,4.846353531,5.784723282,-0.388708234
25.65,5.427865028,8.770241737,2.49618125
25.66,4.709824085,11.60964394,4.723246574
25.67,1.276681423,13.51997185,5.255694866
25.68,-0.893267155,14.36882782,5.398912907
25.69,-0.371715009,14.24037838,3.990582228
25.7,0.382045567,13.23077774,1.77328074
25.71,0.187289774,11.99019814,1.247104645
25.72,-0.283271194,11.21893883,1.287067413
25.73,-0.810803175,11.12572479,0.464561105
25.74,-1.109648824,10.29693127,0.641207695
25.75,-1.298180342,9.413830757,1.064198613
25.76,-1.142127037,7.30095005,2.025101185
25.77,-1.673943639,5.583522797,2.075744629
25.78,-1.629379034,5.58378315,2.065123796
25.79,-2.07540226,1.139062881,6.473114014
25.8,1.282726407,-1.815844059,2.306132793
25.81,-1.575435877,-5.303875923,4.737676144
25.82,-1.566363215,-7.928404808,3.58795929
25.83,-2.217124462,-10.29955101,-0.620627046
25.84,-2.187136173,-11.70981026,-2.842395544
25.85,-2.520016432,-12.33599091,-3.520003796
25.86,-2.898136616,-12.4516058,-3.103536606
25.87,-2.885942221,-12.45589066,-3.071490288
25.88,-3.338605404,-12.94713211,-0.46176362
25.89,-3.564357042,-13.06001282,0.455301881
25.9,-3.795742512,-13.45269108,0.997641802
25.91,-3.905972481,-13.33874989,1.025089025
25.92,-3.54746294,-12.62770271,0.29268074
25.93,-3.273068666,-10.95193672,-1.017557502
25.94,-3.176433802,-8.452588081,-1.465901971
25.95,-2.598865032,-4.851023197,-0.969100356
25.96,-1.627476931,-1.295565605,0.137495637
25.97,-1.670287132,4.139007568,2.363231421
25.98,-2.525578737,7.784013748,4.631462097
25.99,-4.288217545,11.21392632,7.259054661
26,-4.572216034,12.89695454,8.322793961
26.01,-2.524480104,13.52824879,6.592749596
26.02,-0.129110396,14.15554523,4.616430283
26.03,1.087444544,15.21553612,4.509945869
26.04,1.206480026,15.50773716,3.316494703
26.05,-1.015780568,16.45029831,0.483488083
26.06,-2.75410223,15.66477489,-1.155200958
26.07,-2.707880735,13.07588291,-1.110720754
26.08,-2.239317179,10.63759899,-0.089329958
26.09,-1.213610649,7.456806183,-0.036076069
26.1,-0.154374421,4.059077263,0.652692795
26.11,0.757195652,0.928114891,1.388036728
26.12,1.670173168,-2.157167912,1.635041714
26.13,1.605253458,-2.177141666,1.727900624
26.14,1.599483252,-4.827699184,0.888493896
26.15,1.389635205,-9.276479721,-0.927739978
26.16,1.596321583,-11.14849091,-0.135070324
26.17,1.761917949,-12.669981,0.093993545
26.18,1.329339862,-13.80037022,-0.833227694
26.19,1.276057839,-13.80854511,-0.774872005
26.2,1.292406559,-14.13821602,-1.578867555
26.21,1.1179533,-13.31944942,-1.545173168
26.22,1.046649218,-13.31774902,-1.544786215
26.23,1.375791788,-13.01962948,-1.371414423
26.24,1.897245646,-11.18304634,-2.178260326
26.25,1.812619925,-11.17058372,-2.235639334
26.26,2.165167809,-7.098024368,-1.974546194
26.27,2.100192547,-7.084364891,-2.034315825
26.28,7.019322872,2.018844604,3.881180525
26.29,6.974123001,2.026293755,3.857614517
26.3,6.840946674,9.999382019,1.883003831
26.31,6.755677223,10.00331783,1.909579754
26.32,0.708870292,16.12625504,3.155594349
26.33,-2.79034996,17.732687,5.801410198
26.34,-2.401413202,17.12755966,2.375072956
26.35,-0.811572075,15.0389204,-1.138520122
26.36,-1.108142853,12.12933159,-0.455907047
26.37,-0.554341555,9.99068737,1.146662116
26.38,-0.294477582,7.768640518,0.685796261
26.39,-1.136921763,6.330817223,1.709749103
26.4,-1.70117259,4.742391586,3.851662159
26.41,-1.411118388,3.025788307,6.225540161
26.42,-0.902870417,1.406970978,8.877542496
26.43,-0.708648086,-0.192267418,9.347045898
26.44,-0.726903439,-2.34050703,7.243862629
26.45,-2.039940119,-6.051491737,2.872543812
26.46,-2.74104166,-8.631148338,-1.268616199
26.47,-2.845370293,-10.34358597,-3.013290882
26.48,-2.982196808,-11.66261482,-2.915102005
26.49,-3.433460474,-12.45340919,-2.332195759
26.5,-3.765986443,-12.97407722,-1.521753311
26.51,-3.743956804,-13.01642609,-0.671575964
26.52,-3.747803688,-13.02229691,-0.628161252
26.53,-3.668551922,-13.23812103,0.086754799
26.54,-4.547454834,-14.9737606,-0.438948572
26.55,-3.968145847,-14.21632195,-0.889332175
26.56,-3.013474226,-12.97220325,-1.439972639
26.57,-2.459641933,-10.88256454,-1.795209885
26.58,-1.734701395,-8.166017532,-1.883235693
26.59,0.07092303,-3.271810055,-0.308721304
26.6,2.584878206,1.367875099,2.719445705
26.61,3.812004089,7.045422554,4.668791771
26.62,0.231794506,13.52289677,3.217431545
26.63,-5.686870098,18.74887848,4.797674656
26.64,-7.720121384,21.65502167,11.738657
26.65,-7.65211153,21.67222595,11.65490627
26.66,-6.421572208,20.56578827,15.20981598
26.67,-5.715661526,18.34533882,9.662250519
26.68,-4.968503475,15.13574696,-3.175672054
26.69,-3.379430294,12.73799801,-1.557732582
26.7,-3.371937752,12.72696304,-1.493731499
26.71,0.257657349,7.754540443,2.397153378
26.72,1.251590967,4.92063427,3.05441165
26.73,0.930514634,2.684514046,2.075011492
26.74,0.894719362,0.207690239,1.783195615
26.75,2.139068127,-1.898262501,3.429545164
26.76,3.274442196,-3.881034374,3.987957478
26.77,3.496600151,-5.588275433,3.397481918
26.78,2.891604185,-7.614909172,2.198701382
26.79,2.61407733,-9.71163559,0.922204137
26.8,1.609273791,-11.76076508,-1.598172426
26.81,1.265336037,-13.1009779,-3.479594231
26.82,1.209126115,-13.10625172,-3.420141459
26.83,1.661514997,-14.40854645,-1.987199783
26.84,1.630475163,-14.41259766,-1.933946371
26.85,2.215468884,-14.74660492,-0.228411496
26.86,1.961905599,-14.54437637,1.003220081
26.87,2.584550381,-15.817029,-1.325644374
26.88,1.716056943,-14.46592522,-3.872900963
26.89,1.291162729,-11.62895012,-5.723380089
26.9,1.720314264,-8.326793671,-5.615004063
26.91,2.926203251,-2.271437168,-3.123462439
26.92,4.876762867,3.956994057,0.400674343
26.93,5.833826542,8.223079681,3.128947973
26.94,5.719072342,8.231702805,3.124478817
26.95,5.552738667,10.48948479,5.426733017
26.96,5.488745213,13.1443119,7.73404026
26.97,4.206664085,15.17920208,6.139025211
26.98,4.279884338,15.16221523,6.253250122
26.99,2.6113379,16.69260406,2.125197649
27,0.684384286,17.46476936,-2.911202431
27.01,-1.831752539,16.59222794,-3.204933167
27.02,-1.95674777,13.4944706,3.099870682
27.03,-1.906715155,13.50225639,2.993412971
27.04,-1.943021774,11.97544193,4.168148041
27.05,-2.470616579,9.412257195,6.104872704
27.06,-2.276284218,2.756920815,8.593345642
27.07,-2.02192688,-0.523674011,8.273620605
27.08,-2.953919172,-4.63227129,5.274548054
27.09,-2.903851986,-4.646242619,5.415466309
27.1,-3.847688913,-11.48974609,-0.360731065
27.11,-3.51627779,-13.90781403,-0.816908181
27.12,-3.421842575,-14.80924034,-1.424157619
27.13,-3.326419592,-14.8100605,-1.389304876
27.14,-4.591989517,-14.6280117,-2.260594606
27.15,-4.56870842,-14.62958431,-2.21354866
27.16,-4.352331161,-14.94318199,-0.312116563
27.17,-3.746192217,-15.08773136,0.864468694
27.18,-3.387762547,-14.93461227,0.833119035
27.19,-3.023947477,-13.23416805,0.037372708
27.2,-1.84905076,-12.08896065,-0.666320264
27.21,-1.253623605,-10.46993828,-1.499660969
27.22,-1.629014969,-8.539956093,-1.569749713
27.23,-1.60133028,-8.53670311,-1.602683425
27.24,-1.915308595,-6.823383331,-1.472756147
27.25,1.220789552,-0.014712334,3.805938005
27.26,1.247429967,-0.010825157,3.772298813
27.27,2.600056171,9.092921257,-0.560232282
27.28,1.5350703,15.48463821,-1.144129515
27.29,-0.009481758,18.88167953,4.552303791
27.3,-3.787569761,20.73744202,14.31486702
27.31,-3.798058271,20.76234627,14.12647247
27.32,-11.54117107,21.83992004,9.600218773
27.33,-9.510180473,18.979496,-1.634461761
27.34,-9.522227287,18.96583176,-1.55241704
27.35,-1.355967879,10.43470287,-2.322901726
27.36,0.618485808,6.880455971,0.1431669
27.37,2.340059519,4.279490471,1.08391583
27.38,3.489847183,1.586607933,2.22535634
27.39,3.240339041,0.097496986,2.604406118
27.4,2.554498911,-1.61995697,4.249013424
27.41,2.506426096,-3.41298008,5.372763634
27.42,3.08891201,-4.98686552,4.42320776
27.43,3.013811111,-4.988036633,4.426232338
27.44,2.048188925,-9.081458092,-0.931553721
27.45,2.064166069,-10.71404076,-1.683166265
27.46,1.788931727,-12.12084293,-1.495806217
27.47,1.727478623,-12.12533665,-1.441779971
27.48,0.861279309,-14.0197401,-1.740666628
27.49,1.267838597,-13.81379318,-1.249782801
27.5,1.23192668,-13.81833267,-1.177747011
27.51,2.578506947,-14.37112427,1.608551025
27.52,2.476020336,-14.28326321,1.533302069
27.53,2.392111778,-14.27658939,1.496578932
27.54,1.041986465,-13.10962868,-3.640503407
27.55,0.317761838,-11.10371017,-4.92035675
27.56,0.139759362,-8.500328064,-4.989150047
27.57,0.747403204,-5.207115173,-3.631378889
27.58,4.64417696,1.103010178,-0.46193254
27.59,7.906513214,6.72979641,3.872061491
27.6,11.05412579,11.56145763,5.377611637
27.61,10.92599773,11.57210159,5.392911434
27.62,3.912672043,19.48354721,3.772612572
27.63,-4.169021606,23.35656357,4.459447384
27.64,-4.102203369,23.34442902,4.527203083
27.65,-2.02704978,21.78498459,1.558228016
27.66,-0.024833679,14.09024429,-0.576350093
27.67,-1.343245864,10.64916134,1.068641186
27.68,-2.54823637,8.685409546,1.639206886
27.69,-3.31574893,7.166257858,2.820134163
27.7,-3.612339973,5.155632973,3.480407238
27.71,-3.981265545,1.050075531,6.50601244
27.72,-2.955588341,0.119444847,8.773272514
27.73,-2.867260695,0.109451294,8.812605858
27.74,-4.363001823,-4.824967384,6.601707458
27.75,-4.895286083,-7.79959631,1.673290968
27.76,-4.387456417,-10.29637814,-0.753687203
27.77,-3.611099243,-11.78466129,-2.673237801
27.78,-3.025566101,-12.38943291,-3.884147167
27.79,-2.900546551,-12.39069653,-3.852281332
27.8,-3.070953608,-12.69942474,-2.344703436
27.81,-3.25408864,-12.9783411,-0.612749577
27.82,-3.435719013,-13.10480309,1.279154658
27.83,-3.351343155,-13.77343559,2.515020132
27.84,-2.995425224,-14.24970627,1.880620003
27.85,-3.013275862,-14.24638176,1.822062016
27.86,-2.7324512,-14.13722038,0.263787925
27.87,-1.304474473,-11.55679798,-1.782191634
27.88,-1.939131975,-8.784564018,-1.035101891
27.89,-2.137116671,-5.281756878,-0.830200374
27.9,-2.130742311,-5.277166843,-0.876572251
27.91,4.462024689,6.564858437,3.816311359
27.92,4.617910385,10.56006813,3.165957928
27.93,2.675283194,17.773489,2.227208138
27.94,-1.466836929,22.41675568,6.572097778
27.95,-1.480285168,22.44130325,6.402442932
27.96,-10.84854984,24.26895142,18.59194565
27.97,-10.74050045,20.49245071,8.437182426
27.98,-7.666015625,16.45441437,-3.688094854
27.99,-5.242410183,13.41585255,-7.529162884
28,-5.219198227,13.39292908,-7.373752117
28.01,-0.797637463,7.277159691,-2.695652008
28.02,-0.816008687,7.269088745,-2.636353493
28.03,1.275699735,2.894342422,1.391434789
28.04,1.430785418,0.692470551,3.606194496
28.05,1.720426083,-1.465722084,5.098554134
28.06,1.662372828,-1.469332695,5.124895096
28.07,2.609280348,-5.022990227,2.374335289
28.08,2.539205074,-5.027482986,2.419035435
28.09,2.840744972,-7.112700462,1.059570193
28.1,2.850600004,-9.061805725,-0.268638194
