Time (s),Linear Acceleration x (m/s^2),Linear Acceleration y (m/s^2),Linear Acceleration z (m/s^2)
0,-0.014639616,-0.050973892,0.098209679
0.01,-0.090778589,-0.036582947,0.090939045
0.02,-0.107511401,-0.072518349,0.155402601
0.03,-0.09579885,-0.06549263,0.101696849
0.04,-0.098626018,-0.065831184,0.101743579
0.05,-0.201621294,0.005560875,0.234285772
0.06,-0.023717642,0.007501602,0.274927139
0.07,0.017121077,0.011779785,0.27487284
0.08,-0.016314268,0.092699051,0.234456599
0.09,-0.058567524,0.116418839,0.229146123
0.1,-0.059573412,0.116333962,0.229441881
0.11,-0.02935791,0.077967644,0.244267583
0.12,0.017536283,0.104184151,0.31363368
0.13,0.019096732,0.099348068,0.191971064
0.14,-0.044105172,0.068229675,0.051831186
0.15,-0.105017304,0.025191307,0.098874271
0.16,-0.170501709,0.006098747,-0.138962746
0.17,-0.10330081,0.02793026,0.114871204
0.18,-0.1297189,-0.058176041,0.249841452
0.19,0.305111885,-0.079850197,0.836225987
0.2,0.202535749,-0.123722076,0.467164099
0.21,-0.071950555,-0.131556511,-0.217113257
0.22,-0.033630252,-0.131943703,0.253446519
0.23,0.079133749,-0.022665024,0.417652071
0.24,0.03466773,-0.004368782,0.039801061
0.25,-0.005066752,0.014320374,-0.037232399
0.26,-0.007411122,0.01376915,-0.040076613
0.27,-0.001396298,0.096784592,0.334368467
0.28,-0.005359888,0.095858574,0.329796433
0.29,-0.028433084,0.111710548,0.270039618
0.3,-0.096645355,0.058168411,0.279806793
0.31,-0.042479396,-0.035969734,0.299798191
0.32,0.019304514,-0.015030861,0.280171216
0.33,0.016467929,-0.015563011,0.277796865
0.34,0.054338276,0.019824028,0.280351996
0.35,0.039348364,0.007199287,0.373078764
0.36,0.01970911,0.0234375,0.220064461
0.37,-0.064144135,0.025477409,0.05393064
0.38,-0.044798255,-0.01080513,0.256154001
0.39,0.092162013,-0.051774979,0.272353411
0.4,0.090147257,-0.052054405,0.271660745
0.41,0.052227914,-0.014068604,0.23219198
0.42,0.028675437,0.014334679,0.226154387
0.43,-0.03801477,0.016301155,0.133189261
0.44,-0.039509535,0.016021729,0.13180685
0.45,-0.093576789,-0.012924194,0.107274294
0.46,-0.094410896,-0.013046265,0.107023537
0.47,-0.077882648,-0.056235313,0.199699938
0.48,-0.0453161,0.005764961,0.231777787
0.49,-0.013020515,0.103595734,0.244019926
0.5,-0.107756972,0.117572784,0.207947433
0.51,-0.108431697,0.117318153,0.206065297
0.52,-0.085135102,0.112300873,0.127924085
0.53,-0.085780382,0.112211227,0.127626598
0.54,-0.004925728,0.033198357,0.135430694
0.55,-0.005742431,0.033198357,0.136171877
0.56,0.0076195,0.03079319,0.13975513
0.57,-0.072265506,0.042853355,0.067209542
0.58,-0.147093773,0.062232018,0.014933467
0.59,-0.130481362,-0.018852234,-0.06775856
0.6,-0.128333807,-0.085543633,-0.109577835
0.61,-0.030403852,-0.020560265,-0.022245944
0.62,0.005244493,-0.044184685,0.086563766
0.63,0.00502336,-0.043927193,0.089415073
0.64,0.023862243,-0.041330338,0.153962195
0.65,-0.015273929,-0.091579437,0.059339166
0.66,-0.168793559,-0.117663384,-0.028876185
0.67,-0.168231249,-0.117465973,-0.027590811
0.68,0.062292099,0.023757935,0.158266604
0.69,0.06270957,0.023981094,0.159796298
0.7,0.058063269,0.045973778,0.034816265
0.71,0.056899548,0.105905533,0.175577521
0.72,-0.064926147,0.124876022,0.10396266
0.73,-0.066965461,0.124622345,0.103656948
0.74,-0.130974293,0.119626045,0.021947622
0.75,-0.112748742,0.119633675,0.185936689
0.76,-0.184271932,0.110338211,0.192986131
0.77,-0.203815341,0.072831154,0.040936172
0.78,-0.201096177,0.073928833,0.048548877
0.79,-0.104780436,0.063028336,0.173264921
0.8,-0.08027029,0.068817139,0.105552137
0.81,-0.024701357,0.041080475,0.193381429
0.82,0.059577227,0.046818733,0.304921389
0.83,0.057441175,0.043045044,0.244576871
0.84,-0.006812811,0.000982285,0.167557001
0.85,-0.003366232,0.002016068,0.173651815
0.86,0.002152205,-0.049781799,0.051821947
0.87,-0.036372185,-0.058671951,0.053544402
0.88,-0.070746899,-0.051075935,0.065335751
0.89,-0.186833859,-0.077083588,0.081495821
0.9,-0.250281453,-0.036162376,0.101463735
0.91,-0.33938086,0.023950577,0.015832782
0.92,-0.336165547,0.024400711,0.016721845
0.93,-0.324788928,0.053640366,0.000549316
0.94,-0.124088287,0.099544525,0.222669125
0.95,-0.026801109,0.032797813,0.183188796
0.96,0.019559383,0.059389114,0.230053723
0.97,0.062950969,0.04990387,0.297694922
0.98,0.120625556,0.095454216,0.353223324
0.99,0.122870505,0.09545517,0.350974083
1,0.069965839,0.07879734,0.296953917
1.01,-0.011896133,0.045302391,0.242536843
1.02,-0.010514736,0.045311928,0.241417468
1.03,-0.098274112,-4.673E-05,0.007108212
1.04,-0.135858536,-0.107548714,-0.068161845
1.05,-0.135155797,-0.107278824,-0.066330552
1.06,-0.212969065,-0.039914131,0.004827738
1.07,-0.171334028,-0.013456345,0.179882228
1.08,-0.019845366,0.077586174,0.349724352
1.09,-0.084893703,-0.006316185,0.514267564
1.1,-0.276593924,-0.154893875,0.149459362
1.11,-0.328590155,-0.164147377,0.252144814
1.12,-0.251636744,-0.096932411,0.236729503
1.13,-0.166874647,-0.125404358,-0.058927059
1.14,-0.061609507,-0.103335381,0.020045996
1.15,-0.010544181,0.045521736,0.281394184
1.16,-0.01864481,0.136572838,0.321150005
1.17,-0.045151353,0.145801544,0.322977364
1.18,-0.153642297,0.13567543,0.256383836
1.19,-0.14163208,0.08735466,0.202115774
1.2,-0.189043164,0.084643364,0.284964562
1.21,-0.206860662,0.062937737,0.322710693
1.22,-0.089533091,0.005558968,0.208347917
1.23,-0.086702824,0.005847931,0.208076596
1.24,0.140895367,-0.058559418,0.193284273
1.25,0.142581582,-0.058276176,0.194156408
1.26,0.115298212,-0.053153992,0.107138813
1.27,0.018625736,-0.138973236,0.300520301
1.28,0.019988418,-0.138652802,0.302139998
1.29,-0.036328077,-0.099973679,0.036243916
1.3,-0.035211325,-0.099626541,0.038120151
1.31,-0.026914954,-0.051542282,0.072427988
1.32,-0.115098357,-0.037046433,0.166404486
1.33,-0.136036515,-0.029769897,0.188345134
1.34,-0.13517797,-0.029702187,0.187921345
1.35,-0.15345335,-0.087136269,0.098670959
1.36,-0.13553524,-0.103914261,0.06614542
1.37,-0.105517387,-0.017814636,0.123745978
1.38,-0.128496409,0.039390564,0.156253576
1.39,-0.127213478,0.039130211,0.152403832
1.4,-0.141759515,0.074975967,0.187835872
1.41,-0.062319398,0.04146862,0.16799438
1.42,0.002226353,0.015158653,0.09645313
1.43,0.04503572,0.034450531,0.181498468
1.44,0.0800035,0.065567017,0.268479824
1.45,0.068890691,0.098989487,0.209182441
1.46,0.069358468,0.098941803,0.208169401
1.47,-0.005410671,0.110824585,0.085793674
1.48,-0.096982718,0.0365448,0.006968498
1.49,-0.130834699,-0.039999008,-0.147660494
1.5,-0.087725997,0.000921249,-0.061810374
1.51,-0.087181449,0.001229286,-0.059610248
1.52,-0.017807126,-0.022415161,0.015235305
1.53,-0.037765145,-0.038954735,0.192920148
1.54,0.027762055,-0.098871231,0.25874573
1.55,0.025083184,-0.099153519,0.259004653
1.56,-0.044160247,-0.235996246,0.173950732
1.57,0.030546665,-0.097807884,0.296702981
1.58,0.066741705,0.047904968,-0.070486188
1.59,0.066059589,0.112232208,0.166858077
1.6,0.025970936,0.135641098,0.434494853
1.61,-0.010227323,0.082042694,0.237415016
1.62,-0.1572752,-0.024311066,0.138404608
1.63,-0.159632206,-0.049186707,0.18494457
1.64,-0.108070254,-0.04278183,0.274745822
1.65,-0.110270143,-0.043284416,0.272356272
1.66,-0.063421726,-0.055431366,0.269327819
1.67,-0.011326075,-0.086544991,0.159886777
1.68,0.121414602,-0.043560982,0.38770932
1.69,0.069362998,-0.05341053,0.176280737
1.7,0.067632079,-0.053607941,0.176374316
1.71,0.042279005,-0.103998184,0.097806811
1.72,-0.044985056,-0.070505142,0.139406204
1.73,-0.059781313,-0.075211525,0.111800075
1.74,-0.038759589,0.03497982,0.144141495
1.75,-0.071114421,0.046818733,0.112925291
1.76,-0.079714298,0.051321983,0.114232421
1.77,-0.112404108,0.084475517,0.1602754
1.78,-0.11362195,0.08405304,0.157494247
1.79,-0.102270246,-0.014426231,0.121704757
1.8,-0.16030848,-0.031403542,0.156192064
1.81,-0.095965266,-0.050777435,0.142344356
1.82,-0.09616375,-0.091769218,0.096770823
1.83,-0.036528707,-0.060915947,0.096763849
1.84,-0.082821608,-0.042043686,0.181073308
1.85,-0.088072658,-0.039803505,0.242280424
1.86,-0.08842361,-0.039921761,0.24160713
1.87,-0.021800995,-0.02082634,0.179081202
1.88,0.018009424,0.005375862,0.166746259
1.89,0.006598949,0.067347527,0.221134186
1.9,-0.038789392,0.057451248,0.222895443
1.91,-0.072010279,0.045268059,0.108195841
1.92,-0.07395792,0.045133591,0.108918309
1.93,-0.274108768,-0.081757545,-0.028387785
1.94,-0.209799409,-0.031271935,-0.016519427
1.95,-0.205022812,0.074296951,0.062270701
1.96,-0.130683422,0.093683243,0.006921649
1.97,-0.131253362,0.093828201,0.008948803
1.98,0.065916061,0.029033661,0.768112779
1.99,0.066804111,-0.059997559,0.487663567
2,-0.01819694,-0.113256455,0.346865594
2.01,-0.018650532,-0.114001274,0.340146005
2.02,-0.091491342,0.01473999,-0.059091628
2.03,-0.026220441,0.124428749,0.201713204
2.04,-0.014387012,0.195635796,0.449703634
2.05,-0.067525983,0.12305069,0.445211589
2.06,-0.177753449,0.06487751,0.292330027
2.07,-0.179241061,0.064288139,0.288280487
2.08,-0.053420067,-0.072611809,0.306567907
2.09,-0.034962893,-0.001103401,0.332910895
2.1,-0.015860558,0.037010193,0.266400814
2.11,-0.015433192,0.036972046,0.265502989
2.12,0.08277148,0.12078476,0.373227775
2.13,0.089487731,0.101587296,0.246647477
2.14,0.08852464,0.10167408,0.248344898
2.15,-0.089434624,-0.051362991,0.136278093
2.16,-0.070308566,-0.098916054,0.170872152
2.17,-0.024721265,-0.103352547,0.138419569
2.18,-0.032183528,-0.098399162,0.073270857
2.19,0.002672076,-0.055335045,0.145893455
2.2,-0.07277298,-0.01716423,0.138589025
2.21,-0.18133831,-0.041155815,0.155740619
2.22,-0.188261628,-0.024292946,0.154210806
2.23,-0.153809071,-0.052819252,0.107240677
2.24,-0.150042415,-0.086055756,0.096656978
2.25,-0.160195351,-0.090530396,0.083356917
2.26,-0.105923295,-0.00174427,0.117222786
2.27,-0.107272744,0.010326386,0.150582492
2.28,-0.117959619,0.063167572,0.19397223
2.29,-0.085489511,0.120770454,0.198636293
2.3,-0.057608128,0.070612907,0.226958454
2.31,-0.039097905,0.05160141,0.233670712
2.32,-0.037268281,0.051761627,0.233298957
2.33,0.007390857,-0.007915497,0.171127319
2.34,0.056150436,-0.038957596,0.166095018
2.35,0.014770031,-0.022251129,0.216747701
2.36,-0.072434783,-0.000811577,0.243046761
2.37,-0.113277555,-0.041513443,0.049247265
2.38,-0.158213854,-0.014953613,-0.087842643
2.39,-0.144913316,0.011816025,0.001166403
2.4,-0.016866803,0.040953636,0.276678622
2.41,0.150298715,0.1248312,0.649127424
2.42,-0.02888453,0.052728653,-0.028942227
2.43,-0.083578348,-0.093308449,0.176706433
2.44,-0.075579762,-0.105426788,0.39719075
2.45,-0.104702234,-0.019525528,0.090665162
2.46,-0.178179264,0.045096397,-0.075324833
2.47,-0.042857885,0.097949982,0.174085975
2.48,0.043141961,0.095599175,0.248863876
2.49,-0.015758753,0.045306206,0.161644638
2.5,-0.109006763,0.026041985,0.12221092
2.51,-0.113792181,0.016262054,0.163506329
2.52,-0.07261014,-0.00795269,0.251441598
2.53,0.010035872,0.020586014,0.291491926
2.54,0.066846609,0.054063797,0.337242663
2.55,0.090370655,0.051746368,0.240166962
2.56,0.089701772,0.051907539,0.242557049
2.57,0.074309647,0.054393768,0.25168401
2.58,0.120190978,0.061469078,0.010918438
2.59,0.117437124,0.047050476,0.173572421
2.6,0.063108861,0.037232399,0.211473405
2.61,-0.036762595,0.039422989,0.228118718
2.62,-0.040558934,0.03923893,0.230108917
2.63,-0.089283347,0.039090157,0.117009759
2.64,-0.154674768,-0.018572807,0.173437655
2.65,-0.119163871,-0.071438789,0.159974515
2.66,-0.121457815,-0.071552277,0.161342919
2.67,-0.070678353,-0.126651764,0.134063005
2.68,-0.072517753,-0.126677513,0.135585666
2.69,-0.162396193,-0.026210785,0.265334189
2.7,-0.162893295,-0.026345253,0.264534652
2.71,-0.167484641,-0.009708405,0.234507382
2.72,-0.090569019,-0.024237633,0.1105178
2.73,-0.001729488,0.006731033,0.130154848
2.74,0.007395387,0.068785667,0.164890587
2.75,0.014035046,0.078278542,0.15733546
2.76,0.075313926,0.07344532,0.131505251
2.77,0.073549151,0.073331833,0.132262826
2.78,0.042408347,0.082671165,0.295048356
2.79,0.03981328,0.082385063,0.29488647
2.8,0.044256747,0.051149368,0.114476264
2.81,0.024454832,0.031824112,0.1159814
2.82,-0.079298377,0.024494171,-0.073903441
2.83,-0.097910881,0.120409012,-0.123373747
2.84,-0.168397069,0.070420265,0.134158015
2.85,-0.16927886,0.070583344,0.136592627
2.86,0.017637074,0.053799629,0.313295424
2.87,-0.046077728,-0.12607193,-0.17439723
2.88,-0.048601568,-0.125910759,-0.170286298
2.89,-0.117601514,-0.161931038,0.101004481
2.9,-0.023517311,-0.126490593,0.45258528
2.91,-0.075213373,0.00975132,-0.328804612
2.92,-0.076969385,0.009634972,-0.328249335
2.93,0.025315166,0.119334221,0.333743751
2.94,-0.036387742,0.11865902,0.331363499
2.95,-0.165243566,0.106085777,0.224187076
2.96,-0.180833519,0.045742035,0.170407713
2.97,-0.183606803,0.045466423,0.170459688
2.98,-0.087923706,0.040568352,0.150096655
2.99,-0.046957254,0.040541649,0.223760247
3,0.022838414,0.011872292,0.209466994
3.01,-0.0250054,-0.038339615,0.240927458
3.02,-0.015142798,-0.045473099,0.118783772
3.03,-0.105622113,-0.014205933,-0.038527727
3.04,-0.070978522,-0.033099175,0.082442164
3.05,-0.089083672,-0.076002121,0.205159128
3.06,0.019607246,-0.047161102,0.26486975
3.07,0.051299334,-0.006492615,0.201534808
3.08,0.048994839,-0.00658989,0.202646673
3.09,-0.04858762,0.060391426,0.187032342
3.1,-0.10506779,0.086808205,0.086031437
3.11,-0.16586107,0.053404808,0.076034665
3.12,-0.233107269,0.058423996,0.087752759
3.13,-0.213710547,-0.032326698,0.113698065
3.14,-0.224672258,-0.010402679,0.123500764
3.15,-0.189414024,-0.0698452,0.166364491
3.16,-0.120362103,-0.09341526,0.086744189
3.17,-0.147319675,-0.042769432,0.145893693
3.18,-0.114394844,-0.006556511,0.113500238
3.19,-0.139351547,-0.020710945,0.090187669
3.2,-0.07085067,-0.044435501,0.203478396
3.21,-0.069899201,-0.044313431,0.203716338
3.22,-0.021221697,0.051528931,0.184593141
3.23,-0.099470496,0.056397438,0.146302283
3.24,-0.098645449,0.075741768,0.118493915
3.25,-0.11981827,0.025683403,0.077125371
3.26,-0.119615436,0.025965691,0.07963413
3.27,-0.224563301,-0.002418518,-0.037344575
3.28,-0.16843617,0.026803017,-0.048310041
3.29,-0.148070455,-0.011033058,0.093712509
3.3,-0.027348578,0.030187607,0.320202291
3.31,0.035138309,0.071291924,0.500737846
3.32,0.035296261,0.071619034,0.503573954
3.33,-0.174110353,-0.037817955,-0.077924609
3.34,-0.207906127,-0.104393959,0.16840744
3.35,-0.03517735,-0.080115318,0.025437713
3.36,-0.093055606,-0.055617332,-0.301827431
3.37,-0.016157389,-0.023978233,0.004032254
3.38,-0.018056333,-0.02395153,0.00596118
3.39,0.021287382,0.064352036,0.131088853
3.4,-0.186754048,0.126104355,0.116494119
3.41,-0.183595657,0.125596046,0.086627126
3.42,-0.170319855,0.06285286,0.123620868
3.43,-0.077208877,0.064990044,0.15953213
3.44,-0.038736582,0.024143219,0.105117917
3.45,0.038466573,0.019365311,0.156916142
3.46,0.036349118,0.019389153,0.158872604
3.47,0.010264695,0.04336071,0.105957151
3.48,-0.030097723,0.026866913,0.064326048
3.49,-0.072185099,0.00084877,0.018046737
3.5,-0.078567684,-0.006039619,0.000343323
3.51,0.020392895,-0.056058884,-0.003317237
3.52,0.082894444,-0.017654419,0.087864399
3.53,0.042178869,-0.000870705,0.099645853
3.54,-0.005663276,-0.0319767,0.053796172
3.55,-0.134683788,-0.077414513,-0.059007764
3.56,-0.212663531,-0.146770477,-0.064509511
3.57,-0.115552008,-0.139647484,-0.009012818
3.58,-0.093276322,-0.094474792,0.075685382
3.59,-0.068535566,-0.020747185,0.072831154
3.6,-0.088769078,-0.014101028,-0.017069221
3.61,-0.0652228,0.042960167,-0.02989161
3.62,-0.127684712,0.068874359,0.084001422
3.63,-0.072143435,0.123509407,0.089558125
3.64,-0.004818082,0.123114586,0.131341159
3.65,0.054849982,0.122698784,0.194942117
3.66,0.114349961,0.100865364,0.250263572
3.67,0.118856251,0.076688766,0.296262264
3.68,0.087180614,0.081140518,0.310583651
3.69,0.098564982,0.054447174,0.279180467
3.7,0.092968464,0.037231445,0.30458051
3.71,0.053180695,-0.051911354,0.24814862
3.72,-0.158847094,-0.124261856,0.014796972
3.73,-0.168268085,-0.067073822,0.048091769
3.74,-0.148672879,-0.024374962,0.326717496
3.75,-0.069385946,0.078029633,0.369583666
3.76,-0.069670618,0.077444077,0.364364445
3.77,-0.028206527,-0.066991806,0.196010172
3.78,-0.053563178,-0.117857933,0.191940725
3.79,0.005437493,-0.003652573,0.32728523
3.8,0.002419114,0.091188431,0.031973124
3.81,0.008821905,0.114463806,-0.028535366
3.82,0.033607483,0.138004303,0.289959908
3.83,0.03081274,0.137540817,0.287950397
3.84,-0.094323874,0.211136818,0.447434545
3.85,-0.121906042,0.114609718,0.216122985
3.86,-0.125644207,0.11389637,0.212619305
3.87,-0.057734132,0.029427528,0.168867111
3.88,-0.061134577,-0.059736252,0.264522553
3.89,-0.124728024,-7.24792E-05,0.223172844
3.9,-0.026321709,-0.059857368,0.264264107
3.91,0.048523784,-0.088490486,0.374802947
3.92,0.048780978,-0.088479042,0.374797702
3.93,0.067682803,-0.141201973,0.333857715
3.94,0.062200546,-0.155580521,0.17616874
3.95,0.00639075,-0.114868164,0.107587636
3.96,-0.034876227,-0.057247162,-0.017475247
3.97,-0.052338004,-0.013936043,0.028306246
3.98,-0.036480308,0.02687645,0.075609565
3.99,-0.076458991,0.017213821,0.198315561
4,-0.078829408,0.016935349,0.197667301
4.01,-0.210335434,0.011898041,0.065407574
4.02,-0.307754934,0.054758072,0.117179096
4.03,-0.255766213,0.068922043,0.101528764
4.04,-0.188522458,0.090319633,0.073705316
4.05,-0.101869941,0.075924873,0.065959573
4.06,-0.041490316,0.047255516,0.104317069
4.07,-0.024676323,0.092802048,0.162200511
4.08,0.004135609,0.035452843,0.232667863
4.09,0.001481235,0.002057076,0.155111194
4.1,0.011045635,-0.024027824,0.162154794
4.11,0.010589302,-0.071696281,0.214903534
4.12,0.009510815,-0.07159996,0.21658355
4.13,0.027042806,-0.021309853,0.175086379
4.14,0.005576551,0.028924942,0.159737527
4.15,0.000641465,0.00493145,0.14946121
4.16,-0.111800671,-0.03575325,0.024562597
4.17,-0.226154983,-0.078651428,-0.147011638
4.18,-0.190858901,-0.011292458,-0.002219558
4.19,-0.176667988,-0.025324821,0.204528511
4.2,-0.107470572,-0.068126678,0.154705882
4.21,-0.108412683,-0.067925453,0.15727365
4.22,-0.047716677,-0.199778557,0.264752448
4.23,-0.035418272,-0.259930611,0.002735972
4.24,-0.036760807,-0.260286331,0.000665545
4.25,-0.042956293,-0.088526726,-0.142868519
4.26,-0.044248402,-0.088774681,-0.144264936
4.27,-0.0391168,0.035481453,0.14717257
4.28,-0.049979329,0.099637985,0.334792852
4.29,-0.124379575,0.058208466,0.176409543
4.3,-0.237378776,-0.043128014,0.003277183
4.31,-0.256301403,-0.122869492,0.007276177
4.32,-0.152363956,-0.104439735,0.092097044
4.33,-0.071786702,-0.081061363,0.132288277
4.34,-0.124641299,-0.069517136,0.116022408
4.35,-0.088339686,-0.065095901,0.080606937
4.36,-0.075984836,-0.161198616,0.124449849
4.37,-0.161726773,-0.190271378,0.039081872
4.38,-0.163425088,-0.190509796,0.038088262
4.39,-0.200667441,-0.176300049,-0.070093751
4.4,-0.256590307,-0.188399315,-0.09688139
4.41,-0.270948827,-0.121312141,0.023322821
4.42,-0.28956759,-0.111632347,-0.033784986
4.43,-0.288244367,-0.111458778,-0.032977223
4.44,-0.427182198,-0.11833477,-0.168456554
4.45,-0.423617482,-0.117943764,-0.167534709
4.46,-0.392628551,-0.218092918,-0.306183577
4.47,-0.3343454,-0.148044586,-0.146911621
4.48,-0.398267567,-0.159534454,-0.034103751
4.49,-0.354018688,-0.082396507,-0.091485143
4.5,-0.405817509,-0.101052284,-0.203789234
4.51,-0.425947666,-0.107631683,-0.172095418
4.52,-0.381506741,-0.076219559,-0.047524214
4.53,-0.268442988,-0.085785866,0.022413254
4.54,-0.341553509,-0.122041702,0.102542102
4.55,-0.364079893,-0.093724251,0.090500891
4.56,-0.336530089,-0.14452076,-0.05164206
4.57,-0.362293541,-0.102040291,-0.096158028
4.58,-0.395445705,-0.105122566,-0.093373477
4.59,-0.435391426,-0.09386158,-0.067153692
4.6,-0.432071209,-0.094569206,-0.077400386
4.61,-0.400304616,-0.049900055,-0.045266211
4.62,-0.510380268,-0.043539047,-0.070376396
4.63,-0.505482972,-0.044001579,-0.079746902
4.64,-0.509022474,0.029909134,0.059657335
4.65,-0.44180429,0.025133133,0.0048365
4.66,-0.231787205,-0.044446945,0.633662939
4.67,-0.228033245,-0.04521656,0.621804714
4.68,-0.234947801,-0.307063103,0.24089855
4.69,-0.317695797,-0.236272812,-0.054359019
4.7,-0.314283073,-0.237305641,-0.069641352
4.71,-0.39041394,-0.190216065,-0.443503797
4.72,-0.070654452,0.096151352,0.434724867
4.73,-0.072628081,0.094655991,0.419551253
4.74,-0.047352374,0.10505867,0.576926768
4.75,-0.207346261,0.01047039,0.047199726
4.76,-0.209112227,0.009296417,0.034714341
4.77,-0.113348067,-0.142692566,0.013272047
4.78,0.170399964,-0.222966194,0.137933672
4.79,0.230066419,-0.121432304,0.180569768
4.8,0.290901601,0.06380558,0.156084418
4.81,0.279081762,0.179591179,0.177747726
4.82,0.271504641,0.178088188,0.166467071
4.83,0.224874973,0.296257973,-0.11757797
4.84,0.290256143,0.175016403,-0.001237273
4.85,0.280283511,0.173354149,-0.012345552
4.86,0.377444863,0.052052498,-0.103562653
4.87,0.428707719,-0.03341198,-0.186011672
4.88,0.482079595,-0.478123665,-0.147907496
4.89,0.567570508,-0.678776741,-0.190103889
4.9,0.593704045,-0.747895241,-0.266052663
4.91,0.618823469,-0.749975205,-0.210014224
4.92,0.642868459,-0.574943543,-0.261906326
4.93,0.517336905,-0.311304092,-0.37041992
4.94,0.580453277,0.062582016,-0.422240734
4.95,0.58330524,0.419680595,-0.675047517
4.96,0.468768179,0.700327873,-0.906165659
4.97,0.367589414,0.935850143,-1.008327484
4.98,0.343895674,0.934877396,-0.997750044
4.99,0.250842512,1.070838928,-0.866195142
5,0.256881505,0.826406479,-0.508983851
5.01,0.240992576,0.826455116,-0.492669821
5.02,0.424327523,0.146743774,-0.491116762
5.03,0.325447977,-0.010936737,-0.453410327
5.04,0.312009931,-0.010572433,-0.436986446
5.05,0.174827874,-0.355051041,-0.489036679
5.06,0.1648857,-0.354784012,-0.477596402
5.07,0.098810494,-0.376179695,-0.512180328
5.08,-0.008902252,-0.347198486,-0.843680084
5.09,-0.016140401,-0.347175598,-0.838075101
5.1,0.023358375,-0.464608192,-0.824472368
5.11,0.435144782,-0.381834984,-0.028300464
5.12,0.102931887,-0.69228363,-0.361411631
5.13,0.094442159,-0.693406105,-0.371711493
5.14,-0.162717134,-0.809376717,-0.514682531
5.15,0.034292489,-0.923261643,-0.93731606
5.16,-0.078313768,-1.0222826,-1.184856653
5.17,-0.152628988,-0.902949333,-0.907934487
5.18,-0.37956813,-0.706903458,-0.421944559
5.19,-0.24211365,-0.522806168,-0.258810699
5.2,-0.447219551,-0.475022316,-0.558131516
5.21,-0.183754891,-0.474710465,-0.753024936
5.22,-0.192594916,-0.476541519,-0.780121028
5.23,-0.284781486,-0.456493378,-0.744664431
5.24,-0.379858196,-0.479218483,-0.825268924
5.25,-0.174325764,-0.575891495,-0.866038263
5.26,-0.103443801,-0.591035843,-0.848933697
5.27,0.187824577,-0.630002022,-0.636220336
5.28,0.272699833,-0.451133728,-0.316258162
5.29,-0.011954725,-0.399082184,-0.164126575
5.3,-0.011083633,-0.399525642,-0.175698936
5.31,-0.00457409,-0.565028191,-0.869632185
5.32,-0.003220946,-0.565390587,-0.880099773
5.33,-0.096472621,-0.563407898,-1.027277112
5.34,-0.329512835,-0.02275753,-1.236050844
5.35,-0.325307488,-0.023238182,-1.254332304
5.36,-0.231761843,0.280415535,-1.304321527
5.37,-0.623175502,1.264258385,-1.292789817
5.38,-0.533781767,1.748095512,-1.299175024
5.39,-0.540558755,2.100429535,-1.321536899
5.4,-0.577632308,2.285413742,-1.080621004
5.41,-0.449174792,2.630976677,-0.970419884
5.42,-0.338375658,3.043810844,-0.854512632
5.43,-0.368989915,3.662853241,-0.39728111
5.44,-0.293841004,4.195928574,-0.043241918
5.45,0.030309558,4.470528603,0.546429932
5.46,0.169034272,4.244790077,1.567054272
5.47,-0.132207871,3.652991295,2.649009705
5.48,-0.183475733,2.951452255,2.629628658
5.49,0.434803635,2.192359924,2.494367599
5.5,0.454447538,2.193840981,2.498019695
5.51,0.412554056,1.294052124,3.46188879
5.52,0.416054219,1.293574333,3.436043024
5.53,-0.696538985,1.278352737,3.411396265
5.54,-1.344528913,1.330230713,3.424635649
5.55,-1.339737654,1.329939842,3.386868477
5.56,-1.75117588,0.918240547,3.510503292
5.57,-1.961978674,0.430202484,2.753657818
5.58,-2.250173092,0.404696465,1.768720388
5.59,-2.468978405,0.473049164,1.385233879
5.6,-2.191796303,0.678171158,1.309387207
5.61,-1.836602688,0.869059563,1.221739173
5.62,-1.494267464,0.995458603,1.067912459
5.63,-1.106033087,0.944771767,1.058809638
5.64,-1.091154099,0.946949005,1.005840898
5.65,-1.031915069,0.666881561,0.968659997
5.66,-0.878312349,0.200305939,0.907112658
5.67,-0.719973564,-0.32837677,0.869997025
5.68,-0.126260519,-1.83398819,0.443091482
5.69,0.048105061,-2.602502823,0.097477496
5.7,0.05945313,-2.600553513,0.077843398
5.71,0.2394979,-3.319817066,-0.058633447
5.72,0.715903282,-4.413330078,-0.024572939
5.73,1.108916521,-4.834708214,-0.014496207
5.74,1.10808754,-4.835206032,-0.005386442
5.75,1.145855784,-5.190320015,0.048205018
5.76,1.32530582,-5.045444965,-0.077389538
5.77,1.313508749,-5.046966076,-0.06841597
5.78,1.045374513,-4.392772675,-0.320683032
5.79,0.861748874,-3.918336391,-0.418515176
5.8,0.594955027,-3.475213051,-0.469433248
5.81,0.253963053,-3.015467644,-0.55651021
5.82,-0.138235986,-2.428734303,-0.599770606
5.83,-0.48284626,-2.043005943,-0.761265814
5.84,-0.513637126,-2.045063972,-0.768770516
5.85,-0.779750109,-1.264072418,-0.692261696
5.86,-1.166232586,-0.688732147,-0.165330052
5.87,-1.103061795,-0.148941994,0.258364677
5.88,-1.113275528,-0.150161743,0.270464271
5.89,-1.145533562,0.047439575,0.231285453
5.9,-1.101920485,0.25713253,-0.027512699
5.91,-1.042256594,0.48855114,-0.463487804
5.92,-1.119143963,0.751340866,-0.574291468
5.93,-1.316305876,1.31359005,-0.364933759
5.94,-1.541873693,2.093889236,-0.355869651
5.95,-1.944367647,2.840738297,-0.405594409
5.96,-2.108508348,3.518265724,-0.635059893
5.97,-2.170772314,3.913200378,-0.701729298
5.98,-2.169626713,3.913005829,-0.691677809
5.99,-1.785177946,3.958406448,-0.290212274
6,-1.780881882,3.958240509,-0.271409959
6.01,0.319995731,5.150243759,2.302307844
6.02,0.317353517,5.149305344,2.342543364
6.03,1.556369543,5.595849991,3.406803846
6.04,2.920156956,5.441414833,4.167546272
6.05,3.007172108,4.867975235,4.33850956
6.06,2.702602148,3.528406143,3.647590399
6.07,2.679341316,3.527180672,3.683289528
6.08,2.291598082,2.019412994,2.875979424
6.09,1.526992917,0.066196442,2.289428234
6.1,1.307502031,-0.165332794,2.077364445
6.11,1.141905785,0.041570663,1.381261826
6.12,1.163233042,0.445157051,0.638863087
6.13,0.771877646,1.33518219,0.275368065
6.14,0.582470775,1.871257782,0.25048393
6.15,0.228381753,2.247292519,0.267001003
6.16,0.112647533,2.063240051,0.358389974
6.17,0.338041663,1.541545868,0.739319086
6.18,0.339393795,1.54167366,0.723386765
6.19,0.381655455,-0.237215996,1.353162289
6.2,0.379517138,-0.237178803,1.334581494
6.21,0.251694918,-2.262573242,1.154623628
6.22,0.25840652,-2.262256622,1.154647589
6.23,0.020516574,-3.228949547,0.691935659
6.24,-0.052760303,-4.705309391,0.316444397
6.25,0.019166529,-5.22607851,0.34111318
6.26,0.044764876,-5.531060219,0.251461178
6.27,0.143443584,-5.725561619,0.082426354
6.28,0.312975287,-5.807304859,0.007407208
6.29,0.247405618,-5.673466206,0.225275919
6.3,0.299221724,-5.362340927,0.210988447
6.31,0.608139515,-4.98418808,-0.060147449
6.32,0.7247805,-4.476881981,-0.37786296
6.33,0.606999457,-3.998398304,-0.541135311
6.34,0.352187872,-3.460053444,-0.599488616
6.35,0.242488146,-3.012684822,-1.045220971
6.36,0.264287591,-3.01082325,-1.052329302
6.37,0.207824945,-1.89113903,-1.648981214
6.38,0.248705328,-1.305825233,-1.283215046
6.39,0.409633458,-0.720913887,-0.636589348
6.4,0.405173659,-0.186498642,-0.029535746
6.41,0.310452342,0.077441216,0.34734717
6.42,0.318628967,0.078243256,0.339874655
6.43,0.03089112,0.582107544,-0.676711857
6.44,0.068493783,0.825156212,-1.556453466
6.45,0.050410569,1.286055565,-1.539012551
6.46,0.053393483,1.921743393,-0.918427706
6.47,0.065196931,1.922906876,-0.905255497
6.48,-0.410630882,2.601780891,-1.254079342
6.49,-0.783807099,2.99116993,-1.307042956
6.5,-1.08852756,3.318707466,-0.92216289
6.51,-0.95707047,3.759104729,-0.764856815
6.52,-0.936169505,3.761342049,-0.764932275
6.53,-0.448827624,4.337913513,-0.273655027
6.54,-0.088842273,4.952787399,0.606925845
6.55,0.206281245,4.473469734,2.205489874
6.56,0.000320435,3.850781441,3.58402586
6.57,-0.450586081,3.194830894,4.522696495
6.58,-0.850587487,2.488480568,5.419909477
6.59,-0.73679781,1.702512741,5.209784508
6.6,-0.662052274,1.13333416,4.446893692
6.61,-0.662075639,1.379146576,3.960419416
6.62,-0.674823761,1.378027916,3.933571815
6.63,-2.297621012,2.57199955,1.946695328
6.64,-2.303327084,2.571382523,1.943143129
6.65,-3.371315479,3.351519585,1.006760716
6.66,-3.36948061,3.351664543,1.011373162
6.67,-3.897033453,2.8784132,2.169449806
6.68,-3.08378768,1.993368149,1.879791975
6.69,-2.068060398,0.859214783,1.350227714
6.7,-1.548258424,0.10813427,1.062263727
6.71,-1.074320674,-0.623528481,0.722396195
6.72,-1.063785434,-0.6220541,0.713338435
6.73,-0.207722545,-2.222281456,0.043073848
6.74,0.322722256,-2.975190639,0.025471359
6.75,0.954927206,-3.704859734,0.155089304
6.76,1.168764353,-4.351507664,0.318087369
6.77,1.243967414,-4.849972725,0.469235152
6.78,1.35300231,-5.16676712,0.491390616
6.79,1.225273252,-5.419270515,0.5118047
6.8,1.433243752,-5.494861603,0.232478946
6.81,1.416150808,-5.496864319,0.231485277
6.82,1.261767745,-5.848826885,0.201117277
6.83,1.465307355,-5.736571789,0.358602315
6.84,1.643677473,-5.579202652,0.127498686
6.85,1.127696991,-5.273467064,-0.306671262
6.86,0.474516511,-4.797327518,-0.637060344
6.87,-0.046362519,-4.373448849,-1.205531836
6.88,-0.066851139,-4.375648022,-1.202063322
6.89,-0.182734788,-3.214435577,-2.025808334
6.9,0.108963788,-2.39087677,-1.080286503
6.91,-0.193780124,-1.732516289,-0.16058673
6.92,-0.190162003,-1.148075104,-0.295061678
6.93,-0.213848949,-1.150150299,-0.296317816
6.94,-0.385761738,0.069125175,0.435358197
6.95,-0.365054607,0.57497406,0.075563401
6.96,-0.510065734,1.099761963,-0.504657447
6.97,-0.767865181,1.751384735,-0.631436288
6.98,-1.334201336,2.52281189,-0.4852947
6.99,-1.650189519,3.062161446,-0.868340492
7,-1.616524935,3.405015945,-1.031296492
7.01,-1.721167088,3.587430954,-0.959407926
7.02,-1.744815588,3.585571289,-0.949790776
7.03,-2.307974815,3.586283684,-1.801927328
7.04,-2.325300455,3.584925652,-1.79025209
7.05,-2.631436348,3.320662498,-1.531903505
7.06,-2.021361828,3.961915016,-0.101603285
7.07,-0.575231493,4.943294525,1.537873626
7.08,1.249283552,5.608212471,2.658852339
7.09,3.05102396,5.839421272,3.007922173
7.1,3.032545328,5.838470459,3.076835394
7.11,3.634737015,4.865888596,3.738276243
7.12,2.915955544,3.316670418,3.562073708
7.13,2.398043633,1.86527729,3.528345585
7.14,1.975507259,0.252615929,3.106610775
7.15,1.790258646,-1.001350403,2.279369116
7.16,1.403324366,-1.197276115,1.38475728
7.17,0.921311855,-0.579042435,0.34526366
7.18,0.584058166,0.458607674,-0.424882889
7.19,0.493167132,1.80082798,-0.688252449
7.2,0.325698137,2.793984413,-0.381268621
7.21,-0.047594339,3.607867241,0.718738675
7.22,-0.044833213,3.607761383,0.698507786
7.23,0.281652391,3.693646431,1.765358925
7.24,0.057711303,2.675769806,1.259730816
7.25,-0.211554408,1.138397217,0.274259269
7.26,-0.402693093,-0.245667458,-0.028561858
7.27,-0.595594406,-1.828341007,0.22404775
7.28,-0.680734992,-3.176203251,0.627161086
7.29,-0.669011951,-4.219704628,0.633555353
7.3,-0.507989943,-5.174395561,0.457491189
7.31,-0.485908479,-5.173552513,0.466195315
7.32,-0.416087896,-6.328895569,-0.2385436
7.33,-0.336454511,-6.440135956,-0.478806019
7.34,-0.30584237,-6.438724518,-0.477417767
7.35,-0.095337689,-6.178667545,0.106111698
7.36,0.182322443,-5.559371948,0.369230509
7.37,-0.033255875,-5.15302515,-0.756982029
7.38,0.29045707,-4.566976547,-0.482092023
7.39,0.386895657,-4.086284637,-0.32883054
7.4,0.388805121,-3.763571262,-0.746481895
7.41,0.416088849,-3.761677265,-0.761839628
7.42,0.357868493,-2.957703114,-0.95533824
7.43,0.381619215,-2.95590353,-0.966309726
7.44,0.1853773,-2.554356575,-1.038790107
7.45,0.539809823,-1.494767189,-0.919538558
7.46,0.551891029,-1.493796349,-0.920967698
7.47,0.813274086,-0.887261391,-0.350748062
7.48,0.852885068,-0.275862694,0.052557372
7.49,0.079993069,0.546496391,-0.981945634
7.5,-0.022737503,0.980971336,-1.894150138
7.51,-0.010160923,0.981936455,-1.872437477
7.52,0.116579235,2.811723709,-2.000135422
7.53,0.012411177,3.53748703,-1.725420952
7.54,-0.449955583,4.265524864,-1.778742313
7.55,-0.869905293,4.347272873,-2.142306328
7.56,-1.017195225,4.053499222,-2.237412214
7.57,-1.06229949,3.824744225,-1.671854019
7.58,-0.827740431,4.393704414,-0.324304581
7.59,-0.808756352,4.395442963,-0.328755707
7.6,-0.234247685,4.976662636,0.545286834
7.61,-0.066826999,5.282780647,1.754846931
7.62,-0.034133971,5.286029816,1.757463813
7.63,-0.538463593,4.839684486,2.807586432
7.64,-1.242683172,2.097238541,4.852827549
7.65,-0.942169666,0.429327011,5.157767296
7.66,-0.2848773,-0.782268524,4.420537472
7.67,-0.255199075,-1.071525574,3.223782778
7.68,-0.257745624,-1.071639061,3.193665266
7.69,-2.064365149,0.661700249,1.398956418
7.7,-2.584182739,1.849364281,0.147241578
7.71,-2.586328983,1.849531174,0.121329725
7.72,-2.9896698,3.008408546,-0.398948491
7.73,-3.279131889,4.062289238,0.999723971
7.74,-2.746424437,3.775542259,2.150437832
7.75,-1.952430367,2.785203934,2.606607437
7.76,-1.956355453,2.786110878,2.56629777
7.77,-0.041427374,0.282142639,0.78582567
7.78,-0.045928121,0.281926155,0.778329194
7.79,0.303317666,-0.8201437,-0.232700646
7.8,1.054173827,-3.143736839,0.687228322
7.81,1.29868865,-4.203505516,0.226759911
7.82,1.425523996,-4.923800945,-0.551241756
7.83,1.509261847,-5.412147522,-0.366571873
7.84,1.482024431,-5.414189339,-0.381472528
7.85,1.249505281,-5.643532276,0.525317431
7.86,1.385397077,-5.82036829,0.282877594
7.87,1.407950521,-5.805960178,-0.02986744
7.88,1.379623294,-5.808456898,-0.029712558
7.89,1.231411457,-5.755698204,-0.315158576
7.9,0.88248539,-5.56381464,-0.611758769
7.91,0.712121725,-5.304663658,-0.909650207
7.92,0.503401995,-4.722106934,-1.1220994
7.93,0.324646294,-4.211221695,-0.936029077
7.94,0.126164675,-3.535003662,-0.852957606
7.95,-0.112126768,-2.992762089,-0.786136866
7.96,-0.133216322,-2.993931293,-0.7920084
7.97,-0.520853818,-1.596746445,-0.781137586
7.98,-0.697633982,-0.920142174,-0.773339212
7.99,-0.833939433,-0.157286644,-0.629479289
8,-0.958489776,0.440453529,-0.54409039
8.01,-0.81379056,1.069226265,-0.541155577
8.02,-0.825087786,1.068125725,-0.532578886
8.03,-1.29604125,2.324104309,-1.027383924
8.04,-1.302729845,2.323137283,-1.015139341
8.05,-1.728926182,3.655842781,-1.396297693
8.06,-1.867332697,4.270253181,-1.139510393
8.07,-1.889944077,4.702729225,-1.159842253
8.08,-1.896973133,4.701835632,-1.147743225
8.09,-2.101222515,4.842309952,-1.392355919
8.1,-2.504556179,4.51617527,-1.373281598
8.11,-2.500784874,4.5157938,-1.357872963
8.12,-0.920099437,5.719599724,0.758904696
8.13,0.738934875,6.338793755,2.239276409
8.14,0.731650114,6.337310791,2.276441574
8.15,1.853937387,6.40500164,2.633009434
8.16,2.998513699,5.184775352,3.871212006
8.17,2.991217136,5.183651924,3.922725916
8.18,3.018141747,2.08712101,5.04803896
8.19,3.002625704,0.499009132,4.049472809
8.2,2.980485916,0.497909546,4.051872253
8.21,2.731050014,-0.587721825,2.846485138
8.22,2.190467834,-0.562245369,1.015384316
8.23,2.172694206,-0.562868118,0.99718225
8.24,1.00769043,0.986023903,0.017737389
8.25,1.006541014,0.986117363,0.004838161
8.26,0.548001945,1.929779053,0.67997855
8.27,-0.403785497,2.607784271,-0.13918227
8.28,-0.397212118,2.608208656,-0.150159001
8.29,-0.266446054,2.199152946,-0.096839637
8.3,-0.014972448,0.281644821,0.599132478
8.31,-0.189331979,-0.86733532,-0.221614897
8.32,-0.147188753,-2.09777832,-0.31498766
8.33,0.018738955,-3.189399242,0.060173616
8.34,-0.08777532,-4.154081821,0.121499375
8.35,-0.115102023,-4.893529415,0.116566107
8.36,-0.077974856,-5.546591282,0.349122465
8.37,0.213982731,-5.988744736,0.435615182
8.38,0.42163676,-6.167318344,0.494811684
8.39,0.540458798,-6.237904072,0.388879299
8.4,0.59953922,-6.133434296,0.253785461
8.41,0.722509742,-5.940130711,0.03449285
8.42,0.83417064,-5.57908392,-0.183996022
8.43,0.950575888,-5.045557976,-0.485994577
8.44,0.941494346,-4.478428364,-0.681023598
8.45,0.765071094,-3.961619377,-0.948625982
8.46,0.631156266,-3.358696461,-1.268583775
8.47,0.651590467,-3.357117176,-1.269515991
8.48,0.515214562,-2.719098568,-1.388763428
8.49,0.356913,-1.411157608,-1.60599494
8.5,0.36433056,-1.410692215,-1.596957564
8.51,0.217437208,-0.24909687,-1.143347383
8.52,0.257344782,0.14155674,-0.831300616
8.53,0.342322409,0.491463661,-0.921860874
8.54,0.292856395,1.011334419,-1.391388297
8.55,-0.104315579,1.56948185,-1.991000652
8.56,-0.314497471,2.304898262,-2.348776579
8.57,0.104928553,3.167047501,-1.960531831
8.58,0.145465791,3.849017143,-1.364586949
8.59,0.13987881,3.848546982,-1.358400345
8.6,-0.600689173,4.566572189,-1.300465465
8.61,-0.724089623,4.365539551,-1.420669556
8.62,-0.937582851,4.162590027,-0.906180859
8.63,-1.043106079,4.211659431,-0.066857032
8.64,-0.405847848,4.726161003,0.620363653
8.65,0.071318865,4.843494415,0.97953701
8.66,0.404500186,5.069087982,1.850188971
8.67,-0.023655415,4.641624451,3.260094404
8.68,-0.322734892,3.915230751,3.93439579
8.69,-0.28595233,2.506465912,4.307799339
8.7,-0.261081457,2.509147644,4.315657616
8.71,0.052871943,0.025203705,4.458995819
8.72,-0.362329006,-0.654662132,2.833171129
8.73,-0.744660616,-0.279493332,2.155710697
8.74,-0.757197499,-0.280816078,2.126945734
8.75,-1.874495268,1.759926796,1.097208023
8.76,-2.222295761,3.030078888,0.277904153
8.77,-2.835838318,4.233392715,0.553489089
8.78,-3.514854908,4.661351204,1.329463482
8.79,-3.294184208,4.03393364,2.016813993
8.8,-1.890652299,2.513549805,1.885871887
8.81,-0.750909627,1.128923416,1.2369771
8.82,-0.329063535,-0.13855648,0.732881784
8.83,0.10704869,-1.262325287,0.63945657
8.84,0.306713343,-2.170688629,0.543600261
8.85,0.597818077,-3.093476295,0.3857916
8.86,0.936437011,-3.860839844,0.259102702
8.87,1.018804073,-4.53740263,0.479453832
8.88,0.997107208,-4.538899899,0.461910576
8.89,1.427509069,-5.297049999,1.006023884
8.9,1.40381217,-5.298905849,0.999076247
8.91,1.587081075,-5.758333206,0.468633384
8.92,1.55055666,-6.131816864,-0.10781534
8.93,1.513881326,-6.069602966,-0.264414251
8.94,1.307754517,-5.8230896,-0.343500286
8.95,1.160535216,-5.408820152,-0.375663608
8.96,0.851984739,-4.984786987,-0.399844468
8.97,0.632156909,-4.59408474,-0.432153404
8.98,0.328224152,-4.057155609,-0.663889229
8.99,0.306556672,-4.0587883,-0.651979625
9,-0.490151167,-2.884603024,-1.043534517
9.01,-0.759896159,-2.402198315,-1.24270761
9.02,-0.577161312,-1.730489731,-1.370896459
9.03,-0.786103487,-1.120932579,-1.137739182
9.04,-0.988940239,-0.561423302,-0.875833094
9.05,-0.959128022,-0.028074265,-0.515356064
9.06,-0.707995057,0.306640625,-0.176903367
9.07,-0.64941597,0.66529274,-0.096057259
9.08,-0.864286304,1.24420166,-0.551858366
9.09,-0.868838847,1.243816376,-0.536899328
9.1,-1.094694734,1.851675987,-1.085522532
9.11,-1.335733175,2.557776451,-1.52428031
9.12,-1.3261199,3.417108536,-1.670842052
9.13,-1.896121025,4.293257713,-1.55721271
9.14,-1.872279763,4.261852264,-1.805115819
9.15,-1.877867699,4.261580467,-1.792654395
9.16,-1.894669175,3.413783073,-1.156172633
9.17,-1.846698761,3.332316399,-1.319700003
9.18,-1.844926715,3.332504272,-1.293626189
9.19,0.485028893,4.917752266,1.235163808
9.2,0.47720772,4.917815208,1.275883913
9.21,1.998026967,5.059258461,1.715582609
9.22,2.789580345,4.671782494,3.157095432
9.23,3.196698666,3.482410431,3.784770727
9.24,3.178009987,3.483009338,3.830942631
9.25,3.265662432,1.041153908,3.23212862
9.26,3.323450089,0.030414581,2.62079215
9.27,3.376791477,-0.497187614,1.895686865
9.28,3.116973877,-0.32612896,1.114863992
9.29,2.574886799,0.167879105,0.371507496
9.3,2.232104301,0.932442665,0.000382066
9.31,1.624565482,1.740293503,0.280748427
9.32,1.585927129,1.73897934,0.254311681
9.33,1.062848091,2.884693146,1.932956457
9.34,1.027928472,2.883804321,1.905354738
9.35,0.282608509,1.942296028,0.715061724
9.36,0.255197644,1.942077637,0.702441871
9.37,-0.289653122,-0.026087761,-0.613512278
9.38,-0.529060364,-1.292628288,-0.646365583
9.39,-0.570111156,-2.427461624,-0.50015682
9.4,-0.421396315,-3.380306721,-0.263385415
9.41,-0.377015829,-4.290091991,0.127692163
9.42,-0.376314104,-4.290111065,0.126998931
9.43,-0.49220261,-4.874416828,0.462154746
9.44,-0.037358254,-5.609592915,0.303415954
9.45,0.080089949,-5.547554493,0.133749932
9.46,0.105789915,-5.437733173,0.122455224
9.47,0.225925475,-5.179591179,0.102795407
9.48,0.352715999,-4.737068176,0.154207617
9.49,0.369025648,-4.737434387,0.125991583
9.5,0.254333735,-4.263603687,0.159889251
9.51,0.164067999,-3.768113613,0.003500994
9.52,-0.249289244,-2.987598896,-0.699329734
9.53,-0.284956902,-2.858277798,-0.967731834
9.54,-0.051950112,-2.582859993,-1.057799816
9.55,-0.063814238,-2.28830862,-1.136632919
9.56,-0.055216797,-2.288229465,-1.139364362
9.57,-0.265175521,-1.474101067,-0.703573644
9.58,-0.065143943,-1.069391251,-0.529957175
9.59,-0.05671367,-1.069299698,-0.526484549
9.6,0.076919138,-0.18329525,0.068031408
9.61,0.146169066,-0.116171837,-0.038945381
9.62,-0.364513397,-0.044242859,-1.359798551
9.63,-0.44883126,0.475478172,-1.502776146
9.64,-0.438318014,0.475675583,-1.494238019
9.65,-0.588425279,1.687393188,-1.170310736
9.66,-0.977092922,2.592730522,-1.791192055
9.67,-0.962967217,3.392752647,-2.123128176
9.68,-1.445056319,4.317299843,-1.475680709
9.69,-1.576141357,3.958623886,-1.403530121
9.7,-1.410949945,3.375068665,-1.420741439
9.71,-1.268048406,2.841991425,-1.149538755
9.72,-0.720277488,3.020471573,-0.379532129
9.73,-0.026758969,3.867294312,0.671550751
9.74,0.000980675,4.467826843,1.383561254
9.75,-0.122848213,4.249897957,1.473325372
9.76,-0.305738211,3.706720352,1.887365222
9.77,-0.256390214,3.709781647,1.914988637
9.78,-0.079067707,1.186889648,2.953930616
9.79,0.687247098,-0.486713409,3.562766314
9.8,1.113781929,-1.696994781,4.03748703
9.81,1.491000414,-1.842998981,3.720586777
9.82,0.589896679,-0.962697029,2.696982861
9.83,-0.815544725,0.367641449,1.485620379
9.84,-2.103366852,2.215521812,-0.30049175
9.85,-3.24849844,4.272046089,-1.016734123
9.86,-4.231672764,5.826015472,0.034798272
9.87,-4.474924088,6.317315102,2.101738214
9.88,-3.066152811,5.492160797,3.102120399
9.89,-1.416114569,3.972401619,2.289429665
9.9,-0.241270721,2.315961838,0.741087854
9.91,0.48951143,0.637625694,-0.396183968
9.92,0.782651186,-0.784805298,-0.40278542
9.93,1.094149351,-1.865151405,-0.063428588
9.94,1.52406621,-2.969820023,0.273620755
9.95,1.854505181,-3.90982914,0.359793037
9.96,1.828450203,-3.911509514,0.355316162
9.97,1.878476143,-4.535792828,0.309333026
9.98,1.319797754,-5.08594799,0.292215645
9.99,0.576361477,-5.106860638,0.477558941
10,0.731584311,-5.1707201,0.283192098
10.01,0.699200332,-5.172297478,0.283184499
10.02,0.755700827,-5.300565243,-0.151787475
10.03,-0.13402167,-5.270568848,-0.298003316
10.04,-0.310827047,-5.230731964,-0.60407722
10.05,-0.118675321,-5.080695629,-0.864742994
10.06,-0.143388033,-5.081591129,-0.865756512
10.07,-0.226782948,-4.816671848,-0.584685683
10.08,-0.582121611,-4.573205948,-1.120095134
10.09,-0.725917101,-4.128467083,-0.541503608
10.1,-0.82855618,-3.681203842,-0.279180586
10.11,-0.822505534,-2.886591911,-0.722337484
10.12,-0.955172122,-2.125372887,-0.694110751
10.13,-0.865076423,-1.306585312,-0.848783195
10.14,-0.870501459,-0.380052567,-0.717439115
10.15,-0.718819559,0.584781647,-0.081341997
10.16,-0.812918842,1.523201942,0.531871736
10.17,-1.170285821,2.523866653,0.276141018
10.18,-1.176798224,2.523712158,0.279800117
10.19,-1.562624931,3.215526581,-0.645286977
10.2,-1.975257874,4.256904602,-1.42486465
10.21,-2.391963482,4.489016533,-1.456938624
10.22,-2.605614185,4.524785042,-1.600100636
10.23,-2.613523722,4.524634361,-1.601595879
10.24,-3.05228281,4.268358231,-1.624093533
10.25,-2.893387079,3.906790733,-1.459421635
10.26,-2.890435219,3.906846046,-1.453205824
10.27,-2.430101871,3.689222336,-1.03363955
10.28,-0.17708303,5.001712799,0.881951928
10.29,1.050489187,5.083546638,1.38934648
10.3,1.684299827,4.63147831,1.280616522
10.31,2.53426528,3.853930473,1.802802682
10.32,2.519088268,3.854484558,1.842601061
10.33,3.123306751,1.949087143,3.972367048
10.34,3.293076992,0.694731712,3.982916355
10.35,3.268538952,0.69472599,3.993760347
10.36,3.116255283,-0.703569412,2.045780659
10.37,3.056115627,-0.646095276,1.068765044
10.38,3.034771681,-0.64620018,1.069324493
10.39,2.512239933,-0.081315041,0.563500047
10.4,1.797893167,0.574543953,0.149723828
10.41,0.601105809,2.372480392,-0.138417304
10.42,0.451107502,2.815149307,0.136534736
10.43,0.196550757,2.896165848,0.542733669
10.44,0.182445362,2.895622253,0.518494666
10.45,-0.054147549,1.585422516,0.968751252
10.46,-0.205689892,0.213110924,0.819822967
10.47,-0.51958096,-1.135113716,0.425174445
10.48,-0.66283387,-2.344285488,0.110847205
10.49,-0.739506006,-3.656241417,-0.058985204
10.5,-0.761653006,-4.699971676,-0.27863878
10.51,-0.595556498,-5.336591244,-0.047058687
10.52,-0.201214001,-5.966063499,1.003393173
10.53,0.014752677,-6.325084209,1.086215734
10.54,0.117309526,-6.52370739,0.307146907
10.55,0.273852885,-6.502068996,0.713028431
10.56,0.353594691,-6.219594955,1.149930477
10.57,0.382042199,-6.219655991,1.140931249
10.58,0.597006083,-5.822096825,0.581184924
10.59,0.443179548,-4.869012356,-0.168703318
10.6,0.46912384,-4.868892193,-0.181137264
10.61,0.218901038,-3.434772015,-1.163811684
10.62,0.235979021,-3.434876919,-1.18914783
10.63,-0.195205122,-1.761366844,-1.2906183
10.64,-0.308159292,-0.949719429,-1.15427196
10.65,-0.296774864,-0.949664116,-1.176018
10.66,-0.64937377,-0.245558739,-1.035208225
10.67,-0.61346674,0.611884117,-0.697885037
10.68,-0.31888926,0.66251564,-0.510203004
10.69,-0.179967731,0.792197228,-0.671498358
10.7,0.265905023,0.876434326,-1.565024018
10.71,0.279538691,0.876882553,-1.557027102
10.72,0.326432407,1.870984077,-1.990218163
10.73,0.212997377,2.793294907,-1.518077016
10.74,-0.000915676,3.667743683,-1.270089865
10.75,-0.498893112,4.302827835,-1.085754395
10.76,-0.994308531,4.602815628,-1.201913238
10.77,-1.325591564,4.299661636,-1.538209677
10.78,-1.301189303,4.300780296,-1.529325008
10.79,-1.495392919,2.781798363,-1.192561388
10.8,-1.462384343,2.783511162,-1.182800531
10.81,-1.287748814,2.215716362,-0.758958757
10.82,-1.067658186,2.251685143,-0.110454604
10.83,0.394995749,3.664525986,1.025241494
10.84,-0.016449749,3.882998466,1.700663209
10.85,-0.447594225,3.505843163,3.956302404
10.86,-0.785788953,2.628594398,5.001263142
10.87,-1.065206409,1.284799576,4.524472713
10.88,-1.034389853,0.242616653,4.067233562
10.89,-1.062824965,-0.465210915,3.555426121
10.9,-1.03007257,-0.482207298,2.581267357
10.91,-1.287737131,0.057377815,1.772105217
10.92,-1.283007503,0.05701828,1.748158455
10.93,-1.465732217,1.75787735,0.612036884
10.94,-2.104686975,3.118193626,0.48832196
10.95,-3.203243017,4.526780128,0.958510518
10.96,-3.950654507,5.313510895,1.516566038
10.97,-3.34510088,5.049693108,2.522378922
10.98,-2.002086878,4.017325401,3.380539894
10.99,-0.77344203,2.307219505,2.350735426
11,-0.777325571,2.306864738,2.327418089
11.01,-0.60227865,-0.934949875,-0.220120862
11.02,-0.044957995,-2.275754452,0.368592501
11.03,0.472287059,-3.456401825,0.169962615
11.04,0.80803144,-4.280644417,-0.134185553
11.05,0.794896066,-4.281561852,-0.153702736
11.06,1.0187639,-4.965024948,0.510514438
11.07,0.834261119,-5.033212185,1.03306067
11.08,0.785915554,-5.099038124,0.941627443
11.09,0.768693209,-5.100204468,0.931542099
11.1,0.781762898,-5.465468407,-0.100446947
11.11,0.968179345,-5.541140556,-0.244220927
11.12,0.80757153,-5.535522938,-0.216268197
11.13,0.716748834,-5.316692352,-0.010683164
11.14,0.523425818,-5.148069382,-0.066019118
11.15,0.504743278,-5.149305344,-0.065385491
11.16,0.330303967,-4.623715878,-0.383010536
11.17,0.11514023,-4.210408688,-0.643864632
11.18,0.10691455,-4.211083889,-0.631544054
11.19,-0.30835551,-3.543619633,-0.77396524
11.2,-0.31416887,-3.544146061,-0.760624647
11.21,-0.534757078,-2.629992962,-1.0449512
11.22,-0.524091721,-1.998276234,-1.138949633
11.23,-0.642130613,-1.136769295,-0.743674934
11.24,-0.647500575,-1.13713932,-0.735149086
11.25,-0.958938837,0.186572075,-0.538069964
11.26,-1.119669557,1.041007996,-1.021180511
11.27,-1.457354426,2.05826664,-1.500226259
11.28,-1.7650249,3.104323387,-1.648293853
11.29,-2.073961258,4.270171165,-1.538548589
11.3,-2.349464417,5.040973663,-1.335771322
11.31,-2.339207649,5.268210411,-1.258907795
11.32,-2.346549511,5.267814636,-1.262319565
11.33,-2.097386837,4.465234756,-1.723184705
11.34,-2.31064868,3.985972404,-1.840129614
11.35,-2.187743187,3.413624763,-1.665948391
11.36,-1.764611006,3.167240143,-0.898183763
11.37,-0.745622516,3.862172127,0.248203859
11.38,1.027749538,4.542928696,1.304833174
11.39,2.392939091,4.962697029,2.025117397
11.4,2.378213882,4.96373558,2.106878042
11.41,3.11802578,4.529089928,3.861323118
11.42,3.088392019,4.529582977,3.914102554
11.43,1.86554122,1.88342762,4.22665596
11.44,1.580541849,0.658370018,4.803936005
11.45,1.541297555,0.655972481,4.781746387
11.46,0.55784595,-1.656962395,1.329246521
11.47,-0.095252454,-0.794942856,0.899153948
11.48,-0.650639474,0.041049004,0.233948082
11.49,-1.223968744,1.327841759,-0.512016773
11.5,-1.02831924,2.713644028,-0.23822397
11.51,-0.853857637,3.838977814,0.973632157
11.52,-1.061097503,4.313370705,1.895775557
11.53,-0.906514585,4.179816246,1.722859263
11.54,-0.887017846,4.180365562,1.715725183
11.55,-0.315855414,3.256588936,1.335808992
11.56,0.314032346,1.784414291,1.119002104
11.57,0.245322809,0.243001938,0.766308308
11.58,-0.539473176,-2.40187645,-0.127636805
11.59,-0.503413916,-3.640958786,-0.491861105
11.6,-0.44585526,-4.659540176,-0.363595009
11.61,-0.462421954,-5.340278625,0.148042083
11.62,-0.434219658,-5.338521004,0.166334108
11.63,0.012803674,-6.301579475,0.182672665
11.64,0.040220082,-6.299715996,0.197944477
11.65,0.411801517,-6.317058563,0.299033284
11.66,0.535254121,-6.097517967,0.213973224
11.67,0.559081256,-6.095910072,0.218219787
11.68,0.403972268,-5.751849651,0.125870004
11.69,0.143808365,-4.655905247,-0.431307524
11.7,-0.072745681,-4.022010803,-0.600161195
11.71,-0.307734966,-3.330559731,-0.875437915
11.72,-0.132935286,-2.679693222,-1.118672609
11.73,-0.148492992,-2.07186842,-0.889448881
11.74,0.096877337,-1.483057976,-0.639285445
11.75,0.119404793,-1.066817284,-0.446677387
11.76,0.449746937,-0.760972023,-0.501944661
11.77,0.463074595,-0.759727478,-0.49920848
11.78,0.355007529,-0.098059654,-0.581793428
11.79,0.360616863,-0.097579002,-0.582186222
11.8,-0.020910263,0.992214203,-1.138828278
11.81,-0.194148123,1.643959999,-1.502733588
11.82,-0.603943646,2.429965973,-1.582137227
11.83,-0.72229296,3.063027382,-1.608146667
11.84,-0.68391192,3.525986671,-1.50975728
11.85,-0.957289517,3.751847267,-1.60633707
11.86,-1.433997393,3.63080883,-1.795869708
11.87,-1.647277713,3.199007034,-2.080382824
11.88,-1.748194456,2.660031319,-2.10418272
11.89,-1.252983212,2.609846115,-0.897510111
11.9,-0.213580012,3.107460976,0.688533485
11.91,-0.206127346,3.108640671,0.698620021
11.92,0.429100275,3.634218216,0.191823006
11.93,-0.4523862,4.543264389,0.628065705
11.94,-0.564349055,4.186081886,1.793630123
11.95,-0.560336828,3.002955437,2.675062418
11.96,-0.54665339,3.004812241,2.683465004
11.97,-0.388329268,-0.113654137,3.731667519
11.98,-0.671538949,-1.305701256,2.977493286
11.99,-0.672058582,-1.30634594,2.96559763
12,-1.512096882,-1.082830429,1.669452667
12.01,-1.521929145,-1.085390091,1.635626316
12.02,-3.179744005,0.966892242,0.976622701
12.03,-3.178969622,0.96590519,0.948525846
12.04,-3.439258099,1.99767971,0.547252774
12.05,-3.65193224,2.974980354,0.772848845
12.06,-3.21365428,3.248498917,1.843489647
12.07,-2.015961885,2.544960022,1.631791115
12.08,-1.004488826,1.694992065,1.188723683
12.09,-0.502594113,0.909560204,0.740054965
12.1,-0.006151915,0.064294815,0.345901668
12.11,0.22766906,-0.898634911,0.280863345
12.12,0.224860966,-0.899251938,0.263911068
12.13,0.333498657,-1.786103725,0.354907453
12.14,0.482287228,-3.427422523,0.272078097
12.15,0.254753053,-4.094528198,0.349942744
12.16,0.223630846,-4.653842926,0.213097766
12.17,0.211494744,-4.655245781,0.20188722
12.18,0.502455592,-5.506608486,-0.297681361
12.19,0.489144027,-5.508002758,-0.298746377
12.2,0.645594716,-5.753603458,-0.3791866
12.21,0.663063526,-5.671215534,-0.280635983
12.22,0.619868219,-5.416494846,-0.340160608
12.23,0.605949283,-5.417915821,-0.348950654
12.24,0.353408635,-4.212524891,-0.211748391
12.25,0.428554595,-3.51230526,-0.360584825
12.26,0.414601147,-3.513623238,-0.366221368
12.27,0.133239448,-2.253081322,-0.837000787
12.28,0.137126446,-1.796930313,-0.80692035
12.29,-0.191161156,-1.319180489,-0.488698006
12.3,-0.713848174,-1.063915253,-0.3461532
12.31,-0.721261323,-1.064559937,-0.348643839
12.32,-1.189675927,-0.440196991,-0.782318533
12.33,-1.268735409,0.050214767,-0.935884237
12.34,-1.177419901,0.619906426,-1.163154125
12.35,-1.127194881,1.362168312,-1.230663538
12.36,-0.98253125,2.133296013,-0.509488463
12.37,-1.418646812,2.901877403,-0.900988936
12.38,-1.522272587,3.866343498,-1.075032949
12.39,-1.614833236,4.519328117,-0.737077236
12.4,-1.860532761,4.893909454,-0.641430318
12.41,-1.920538664,4.987983704,-1.69740653
12.42,-1.890776873,4.991509438,-1.673984051
12.43,-2.362141132,4.366358757,-1.214304209
12.44,-2.216151714,3.713586807,-0.832086384
12.45,-2.24787569,3.191048622,-0.434292495
12.46,-2.191175699,3.199557304,-0.385247588
12.47,-0.654680491,4.078733444,0.647656441
12.48,-0.644773126,4.082239151,0.698711455
12.49,1.420788407,4.932871819,1.575168371
12.5,2.779994011,4.985938072,2.079293251
12.51,3.215384245,3.785638809,3.951002598
12.52,3.19342494,3.785083771,3.982004404
12.53,3.111846447,1.167999268,4.918975353
12.54,2.766794682,-0.142982483,4.285599709
12.55,2.473212719,-1.169812202,2.705539227
12.56,2.157384872,-1.579371452,1.00071907
12.57,2.185424805,-1.182525635,0.413006723
12.58,1.97653985,-0.693353653,0.668250322
12.59,1.964836359,0.229458809,1.006668091
12.6,1.653158545,1.234401703,0.894682646
12.61,1.624937296,1.230238914,0.861682296
12.62,1.125718117,2.117712021,0.847502172
12.63,0.083591938,2.828474045,1.250048518
12.64,0.068548977,2.826298714,1.227471352
12.65,-0.878460288,0.794322968,0.511722922
12.66,-0.463333905,-0.545539856,0.230649203
12.67,-0.474393666,-0.546772003,0.221058369
12.68,-0.34184438,-2.228075027,-0.061819136
12.69,-0.445190489,-3.376582146,-0.115348101
12.7,0.196450532,-5.075136185,0.106794059
12.71,0.58067894,-5.540270805,0.268257439
12.72,0.737869084,-5.837615967,0.482318342
12.73,0.880244315,-5.842926025,0.929296851
12.74,0.899532378,-5.841275215,0.928580284
12.75,0.922868013,-5.231653214,0.807076931
12.76,0.749500155,-4.727223873,0.340825588
12.77,0.664837599,-4.263152599,-0.191056162
12.78,0.74847883,-3.830009937,-0.669266105
12.79,0.64147079,-3.396952629,-0.965906858
12.8,0.438836455,-2.882666588,-1.368348837
12.81,0.407442272,-2.31134367,-1.54395175
12.82,0.421972334,-2.310260296,-1.55673933
12.83,0.663795352,-1.689619064,-0.83440727
12.84,0.997812808,-0.971171379,0.287407368
12.85,0.768235803,-0.551805496,-0.436645478
12.86,0.436719775,-0.172933579,-0.676116705
12.87,0.499992609,-0.019523621,-0.352431119
12.88,0.502048373,-0.019392014,-0.355456591
12.89,0.495285153,-0.069560051,-1.239521623
12.9,0.65310055,0.234306335,-0.858383656
12.91,1.004848361,0.834774017,-0.837578178
12.92,0.820981562,1.70780468,-1.14059031
12.93,0.636327267,2.808254242,-1.531186819
12.94,0.624823809,2.807179451,-1.526532292
12.95,-0.048458815,4.618431091,-1.607340932
12.96,-0.609644175,5.077037811,-1.377575874
12.97,-0.821941733,4.774618149,-1.090922832
12.98,-0.891291618,3.962891579,-1.052861452
12.99,-1.017178655,3.319766998,-1.004495025
13,-0.999188423,3.321980476,-0.992813349
13.01,0.072182298,3.584136963,0.817680955
13.02,0.106267214,3.588850021,0.845707059
13.03,0.505544365,3.884606361,0.487018824
13.04,0.53326726,4.107666969,0.806143522
13.05,0.46115315,3.16261673,3.471727133
13.06,0.506272435,3.170048714,3.504337788
13.07,0.838097811,0.288456917,4.58170414
13.08,0.861156106,0.291987419,4.589179993
13.09,0.905280709,-1.012713432,3.684724331
13.1,0.900107145,-1.014714241,3.660431385
13.11,-0.259284854,0.135525703,1.374379039
13.12,-1.024736166,1.272976875,0.376902878
13.13,-1.047474384,1.268517494,0.342095166
13.14,-2.709300518,3.812675476,0.598529339
13.15,-2.72380352,3.810391426,0.587059796
13.16,-2.714475155,4.029225349,1.771582484
13.17,-1.515576243,2.771317482,1.198535919
13.18,-1.525621533,2.770375252,1.206899881
13.19,-0.646936655,1.397348404,0.656504512
13.2,0.316540778,-1.070124626,0.519837678
13.21,0.693043828,-2.001002789,0.657534123
13.22,1.086550117,-2.731061459,0.675821543
13.23,1.228990793,-3.461327553,0.686957002
13.24,1.385012984,-3.98810339,0.524461389
13.25,1.362190962,-3.990572453,0.526530623
13.26,1.331022024,-4.610796928,0.094111949
13.27,1.259228468,-4.594248295,0.039592952
13.28,1.341028571,-4.558695793,0.346598923
13.29,1.311111331,-4.561522484,0.351112604
13.3,1.377885461,-4.583627224,1.365152121
13.31,0.895680547,-4.694235802,0.488187492
13.32,0.949947834,-4.703640461,0.020685107
13.33,1.072750926,-4.53587389,-0.202978224
13.34,1.04104054,-4.538080692,-0.191530943
13.35,0.870249569,-4.212040901,-0.857447803
13.36,0.619477749,-3.823762417,-1.177688837
13.37,0.683783174,-3.261049271,-0.77941823
13.38,0.640901923,-2.636120319,-0.265570521
13.39,-0.161361933,-2.056144238,-0.17650193
13.4,-0.680301011,-1.586064339,-0.272955716
13.41,-1.325319052,-0.790079117,-0.766347766
13.42,-1.525615454,-0.553722382,-0.695646107
13.43,-1.534942985,-0.553781509,-0.685959399
13.44,-1.303900719,-0.380594254,-0.765048087
13.45,-1.074933529,-0.094182014,-0.62223345
13.46,-0.615591407,-0.001117706,-0.330003381
13.47,-0.401473761,0.096960068,0.042753279
13.48,-0.237893343,0.403432846,-0.22352463
13.49,-0.066378355,1.004419327,-0.841129065
13.5,-0.113103092,1.746321678,-1.021966577
13.51,-0.496629953,2.528185844,-1.117215633
13.52,-0.910201907,3.203839302,-1.549510837
13.53,-1.325700879,3.742195129,-1.817127347
13.54,-1.728937387,3.947022438,-1.947272539
13.55,-2.21245575,3.885645866,-2.015880823
13.56,-2.947363853,3.628508568,-1.927790642
13.57,-2.946582079,3.628735542,-1.925405741
13.58,-3.034960508,3.154081345,-1.776112318
13.59,-1.78793478,3.636612892,-0.352739155
13.6,-0.316938102,4.106086731,0.505379677
13.61,0.690111756,3.99745369,0.769434989
13.62,1.549917698,3.594429016,0.721693933
13.63,1.859059334,3.500175476,0.983825564
13.64,2.137120724,3.398517609,1.515103936
13.65,2.526175261,3.099781036,2.052900791
13.66,2.521989346,3.103520393,2.090375662
13.67,2.652853251,1.143451691,1.86315155
13.68,2.628443003,1.141931534,1.865579605
13.69,2.205207825,0.170995712,1.472249031
13.7,1.931621194,-0.713281632,1.541046381
13.71,2.621040821,-1.400114059,1.554963827
13.72,2.929861546,-1.101025581,1.323562384
13.73,2.875669003,-0.574548721,1.08181417
13.74,2.829317331,-0.581544876,1.02948606
13.75,2.217383862,0.87963295,1.494555593
13.76,1.916251898,1.555936813,2.394841433
13.77,0.889338732,1.71548748,1.8573277
13.78,-0.036532998,1.246711731,0.595064521
13.79,-0.073575616,1.243376732,0.558377028
13.8,-0.538560033,-0.37057972,-0.167589426
13.81,-0.562427521,-0.372536659,-0.193047106
13.82,-0.140989259,-2.404001713,-0.898594916
13.83,0.202629998,-3.027313232,0.130699813
13.84,0.301760376,-3.559752941,0.727176905
13.85,0.691150308,-3.843062401,0.829198122
13.86,1.160735011,-4.00176239,0.683875501
13.87,1.133063555,-3.992865562,0.987368941
13.88,1.260398984,-3.845256805,1.064411759
13.89,1.155483961,-3.48697567,0.889215231
13.9,1.15546298,-3.487570763,0.875840187
13.91,0.492173493,-2.805571556,0.162005216
13.92,0.501230061,-2.805803299,0.153940558
13.93,-0.02846767,-2.408417702,-0.263921559
13.94,0.043407977,-2.372454643,-0.386397094
13.95,0.078769811,-2.329249382,-0.754427254
13.96,0.231750369,-2.422403812,-0.970018387
13.97,0.247072145,-2.319204807,-0.600794315
13.98,0.642708361,-2.213697433,-0.123370826
13.99,0.849514604,-1.916687012,-0.202473491
14,0.869131982,-1.712965965,-0.45887357
14.01,0.685422182,-1.331941605,-0.709862769
14.02,0.78654778,-1.096885681,-0.830053508
14.03,0.540744364,-0.830729485,-0.701026321
14.04,0.257111311,-0.667571068,-0.707053542
14.05,0.044107288,-0.444478035,-1.177727938
14.06,0.024396271,-0.192647934,-1.530262828
14.07,0.032741487,-0.192406654,-1.531162977
14.08,-0.081893712,0.293758392,-1.409671545
14.09,0.385229677,1.747123718,-1.171486616
14.1,0.272888959,2.38160038,-1.703135252
14.11,-0.186141968,2.846088409,-1.955372334
14.12,-0.320468932,3.176374435,-1.838461518
14.13,-0.426057726,3.243009567,-1.54736042
14.14,-0.575908184,3.122891426,-1.671860576
14.15,-0.551660419,3.07253933,-1.911028981
14.16,-0.73319006,2.891000748,-1.937665939
14.17,-0.830878019,2.643106461,-1.788480997
14.18,-0.806372166,2.645290375,-1.757472634
14.19,-0.108526349,2.248275757,-1.085735321
14.2,0.543309391,2.706727982,-0.109867573
14.21,1.064395785,3.362050056,0.620418668
14.22,1.094967127,3.366689682,0.673842192
14.23,1.500191092,4.415761948,1.54957509
14.24,0.874714792,4.986305237,1.508338332
14.25,0.269114345,4.455751419,0.741628647
14.26,0.299276263,4.461066246,0.784348428
14.27,-0.136554182,1.670811653,2.222683907
14.28,-0.137210608,0.075984001,2.300112009
14.29,0.158675253,-1.108595848,2.666379929
14.3,0.06978339,-1.697092056,2.937284946
14.31,-0.309493065,-1.681341171,3.004749298
14.32,-0.655400515,-1.099211693,3.16859889
14.33,-0.676735222,-1.104129791,3.121076584
14.34,-2.243049383,0.464414597,3.014528751
14.35,-2.308015823,0.961222649,2.781408787
14.36,-1.94813776,0.989931107,2.5487988
14.37,-1.558872938,0.811033249,2.073276043
14.38,-1.55642271,0.809691429,2.045170546
14.39,-0.361453533,0.046974182,0.876289487
14.4,0.041151881,-0.517471314,1.27519381
14.41,0.336983085,-0.987027168,1.582158089
14.42,0.321635902,-0.989917755,1.529642344
14.43,0.670971394,-1.739747047,1.666294098
14.44,0.637157023,-1.878633976,1.566904545
14.45,0.639219523,-2.07938242,1.278398037
14.46,0.663121343,-2.124157906,0.929729462
14.47,0.610663652,-2.14948082,0.835531235
14.48,0.691812038,-2.179426193,0.598030567
14.49,0.508237958,-2.068002224,0.58691901
14.5,0.487202525,-2.069029331,0.57266897
14.51,0.391144007,-2.019725323,0.576889753
14.52,0.163063482,-1.922574997,0.83418113
14.53,-0.156953991,-1.751188278,0.83784622
14.54,-0.285369873,-1.598833084,0.527303577
14.55,-0.366743773,-1.386554718,0.286172152
14.56,-0.392918378,-1.387252808,0.267062664
14.57,-0.511468053,-1.028680801,0.181929737
14.58,-0.888762355,-0.377836227,0.285112172
14.59,-0.90696466,-0.243981361,0.504853547
14.6,-1.029310226,-0.208167076,0.610025942
14.61,-0.735126436,-0.428411484,0.59518218
14.62,-0.742621481,-0.428352356,0.581117392
14.63,-0.52319622,-0.658121109,0.823005855
14.64,-0.35186255,-0.847194672,1.122177601
14.65,-0.216497928,-0.959708214,1.27500248
14.66,-0.252491117,-0.928574562,1.332920551
14.67,-0.61740917,-0.662833214,1.228754878
14.68,-0.956070006,-0.203166962,0.706399918
14.69,-1.172385454,0.17743206,-0.053879112
14.7,-1.312443972,0.574636459,0.139353678
14.71,-1.522902012,0.643836975,-0.411251277
14.72,-1.578676343,0.61240387,-0.94606328
14.73,-1.580910444,0.612121582,-0.925747395
14.74,-1.057167649,0.497006416,0.589196801
14.75,-1.08295989,0.61178875,0.209298745
14.76,-1.29050374,0.592516899,-0.081666403
14.77,-1.288304448,0.592439652,-0.064536408
14.78,-1.5387609,0.448759079,-0.190623552
14.79,-1.886735439,0.230884552,-0.518584728
14.8,-1.944696665,0.326716423,-0.140948191
14.81,-1.887303472,0.350831032,0.02829108
14.82,-1.668626666,0.540293694,0.076441288
14.83,-1.352699876,0.626983643,0.109449096
14.84,-0.925570667,0.634851456,0.095242001
14.85,-0.546162307,0.654881477,0.202863962
14.86,-0.149636447,0.672631264,0.484425902
14.87,0.148854137,0.695106506,0.63139236
14.88,0.369300067,0.98567009,0.701586068
14.89,0.419053555,1.297717094,0.621070027
14.9,0.340242624,1.65759182,0.515246034
14.91,0.330552995,1.658301353,0.543642998
14.92,0.260400116,2.425059319,0.30979684
14.93,0.362757087,2.315271378,0.41238004
14.94,0.401512325,1.786346436,0.687866449
14.95,0.383993626,1.786520004,0.69934237
14.96,0.102105603,-0.064072609,1.362466455
14.97,0.177103192,-0.908969879,1.352771044
14.98,0.155255601,-1.602916718,1.320284367
14.99,0.367619216,-2.02145052,1.163319588
15,0.50558722,-2.116867065,0.922130644
15.01,0.573235512,-1.906060219,0.714491785
15.02,0.572332501,-1.492050171,0.823671341
15.03,0.53355664,-0.949090004,0.865821123
15.04,0.526964963,-0.9498806,0.849707007
15.05,0.070890598,0.325453758,0.808395147
15.06,-0.279149741,0.736496925,0.86722821
15.07,-0.291826785,0.802744865,1.109482765
15.08,-0.167668879,0.481069565,1.179754734
15.09,-0.181742251,0.039732933,1.161657095
15.1,-0.274222881,-0.315264702,1.033389211
15.11,-0.38887021,-0.708504677,0.774998307
15.12,-0.49252969,-0.991486549,0.662257671
15.13,-0.426512867,-1.147476196,0.712367892
15.14,-0.428201258,-1.147737503,0.702983797
15.15,-0.345868856,-1.176603317,0.659436643
15.16,-0.207090288,-0.87963295,0.890818715
15.17,0.115671545,-0.628071785,1.713420987
15.18,0.533814788,-0.541752815,1.937862754
15.19,0.449847758,-0.651786804,0.965076566
15.2,0.388312519,-0.706669807,1.303040743
15.21,0.550543189,-0.608534813,1.55669117
15.22,0.551518202,-0.608810425,1.546043873
15.23,0.360309362,-0.553957939,0.929163694
15.24,0.316167325,-0.204573631,0.585058808
15.25,0.139378011,0.113641739,0.976581335
15.26,0.137537345,0.113431931,0.967738986
15.27,0.009715192,0.292878151,0.814317703
15.28,-0.431089461,0.651976585,0.149344027
15.29,-0.485694528,0.829187393,0.081468388
15.3,-0.484566391,0.829291344,0.085586637
15.31,-0.499884307,1.217328072,0.192794398
15.32,-0.497592121,1.217573166,0.201964662
15.33,-0.57095629,1.270569801,0.476701647
15.34,-0.778876424,1.105770111,0.39954859
15.35,-1.240301013,0.790241242,0.405627579
15.36,-1.419838548,0.252140045,0.244379491
15.37,-1.40917933,-0.216407776,0.103058726
15.38,-1.407094598,-0.766244888,0.046234787
15.39,-1.349423885,-0.765180588,0.044597834
15.4,-0.722121239,-1.187543869,0.22845754
15.41,-0.456470639,-1.209893227,0.273945689
15.42,-0.408193469,-1.078946114,0.257293284
15.43,-0.321783662,-0.871403694,0.072926283
15.44,-0.368034095,-0.699827194,0.06678623
15.45,-0.389901459,-0.502067566,0.037044287
15.46,-0.220006347,-0.357120514,-0.107368857
15.47,-0.128569186,-0.269890785,-0.157276273
15.48,-0.191358209,-0.135034561,-0.079902828
15.49,-0.181135535,-0.134428978,-0.079125702
15.5,-0.269085348,0.012164116,-0.193706691
15.51,-0.561149895,0.039047241,-0.05815351
15.52,-0.567358553,-0.005841255,0.008314401
15.53,-0.558868706,-0.005141258,0.013762146
15.54,-0.592342138,-0.023485184,0.094431341
15.55,-0.615582764,-0.001067162,0.065733135
15.56,-0.592270553,0.043049812,0.129088238
15.57,-0.584736586,0.05850029,0.115733594
15.58,-0.571051717,0.059717178,0.124243647
15.59,-0.671938837,-0.111291885,0.000177741
15.6,-0.570145786,-0.210283279,-0.259332418
15.61,-0.677008688,-0.321155548,-0.402289242
15.62,-0.657878995,-0.319413185,-0.393561751
15.63,-0.67589134,-0.315191269,-0.294934362
15.64,-0.576907277,-0.205609322,-0.232356399
15.65,-0.270252943,0.035353661,0.375751555
15.66,-0.249328554,-0.12869072,-0.077302426
15.67,-0.226550281,-0.175637245,-0.094847769
15.68,-0.181623101,-0.129512787,0.305054069
15.69,-0.174282074,-0.129163742,0.29932636
15.7,-0.263830602,-0.155152321,-0.202483058
15.71,-0.302134693,-0.111732483,0.224344999
15.72,-0.269253671,-0.094783783,0.373989314
15.73,-0.26594466,-0.094686508,0.369733423
15.74,-0.405949652,-0.111273766,-0.157891363
15.75,-0.342748106,-0.1015625,-0.118418157
15.76,-0.256605744,-0.070411682,0.00426048
15.77,-0.235868096,0.010953903,0.105411738
15.78,-0.233796299,0.010994911,0.102317274
15.79,-0.226206303,0.080694199,-0.026300192
15.8,-0.222636938,0.081134796,-0.023256898
15.81,-0.24023962,0.062503815,-0.011529714
15.82,-0.049284041,-0.061406136,0.036764234
15.83,-0.056636453,-0.137562752,-0.167816669
15.84,-0.095666528,-0.153864861,-0.337726533
15.85,-0.135096371,-0.03850174,-0.127095729
15.86,-0.134371281,-0.038203239,-0.121837378
15.87,-0.240877688,0.069877625,-0.109471351
15.88,-0.239018619,0.07027626,-0.104197502
15.89,-0.245729566,0.140181541,-0.109219402
15.9,-0.26089704,0.049757957,-0.222305477
15.91,-0.194362998,-0.026328087,-0.118483126
15.92,-0.144541979,-0.083287239,0.017957181
15.93,-0.140535355,-0.082866669,0.019243717
15.94,0.099363744,-0.089718819,0.104571253
15.95,0.100120127,-0.089528084,0.107052535
15.96,0.045392275,-0.027119637,-0.079752386
15.97,0.061637282,-0.046261787,-0.210053951
15.98,0.024366736,-0.065500259,-0.185423493
15.99,0.05840838,-0.036925316,-0.173074544
16,0.055276513,-0.037179947,-0.172400296
16.01,0.190469801,0.036850929,-0.229663074
16.02,0.318792224,0.046093941,0.202653378
16.03,0.103819192,0.067156792,0.35586381
16.04,0.098927617,0.06699276,0.361045003
16.05,0.049010992,0.06711483,-0.126703501
16.06,-0.015389979,-0.021262169,-0.091394961
16.07,-0.001671851,-0.119365692,-0.179275036
16.08,-0.094803691,-0.131383896,-0.442161262
16.09,-0.253176034,-0.026128769,-0.570918083
16.1,-0.260248482,-0.02616787,-0.561008692
16.11,-0.042543113,0.229989052,0.004896164
16.12,0.071284235,0.287376404,0.288311392
16.13,-0.097135127,0.229951859,0.05826664
16.14,-0.136048079,0.201590538,0.210491419
16.15,-0.139340699,0.201993942,0.221253634
16.16,-0.215652823,0.056384087,-0.595063984
16.17,-0.216858745,0.057049751,-0.583278596
16.18,-0.191991746,0.019299507,-0.091777086
16.19,-0.122507751,0.014785767,0.315247059
16.2,-0.125532329,0.014911652,0.320850849
16.21,-0.10898453,-0.219485283,0.164744318
16.22,-0.045172691,-0.312399864,-0.059908271
16.23,0.055279911,-0.364590645,-0.09100771
16.24,0.029239833,-0.328208923,0.006573975
16.25,-0.008515298,-0.270271301,0.034085691
16.26,0.056862772,-0.224317551,0.116272748
16.27,0.209946752,-0.121046066,0.252638668
16.28,0.209164381,-0.120714188,0.258042306
16.29,0.196423769,-0.000602722,0.324347019
16.3,0.090100408,-0.021676064,-0.201979518
16.31,0.022028148,-0.021052361,-0.314576149
16.32,0.020890117,-0.020496368,-0.305910051
16.33,-0.111765623,-0.084740639,-0.151207149
16.34,-0.153608441,-0.012737274,-0.145406842
16.35,-0.197526872,0.056819916,-0.123847663
16.36,-0.357683241,0.097661972,0.181839705
16.37,-0.356051803,0.097838402,0.182530344
16.38,-0.200125635,-0.031208992,0.147101939
16.39,-0.197003961,-0.03074646,0.149622679
16.4,-0.312118709,-0.135623932,0.002500176
16.41,-0.21765554,-0.156777382,-0.012719512
16.42,-0.211658061,-0.156435967,-0.01466918
16.43,-0.247812569,-0.050827026,0.481815308
16.44,-0.238493562,-0.065145493,0.36957866
16.45,-0.04647392,0.014099121,0.091391683
16.46,-0.209677041,0.026408196,0.126437247
16.47,-0.175581634,0.024391174,0.13240844
16.48,-0.168274522,0.024834633,0.129916906
16.49,-0.247736514,0.027763367,0.09084487
16.5,-0.240664661,-0.036379814,0.015351534
16.51,-0.078874767,-0.146052361,-0.282595933
16.52,-0.07176429,-0.011555672,-0.165380478
16.53,-0.199604154,0.115519524,0.514795303
16.54,-0.195620894,0.115578651,0.510854721
16.55,-0.088482201,0.082443237,0.297862202
16.56,0.041531324,0.068667412,-0.169540882
16.57,-0.560519099,0.083771706,-0.447105825
16.58,-0.626973271,0.110556603,-0.397511125
16.59,-0.360865355,0.084160805,-0.317767799
16.6,0.088412821,0.023652077,-0.153280437
16.61,0.086114764,0.022586823,-0.165132821
16.62,0.174047947,0.030959129,0.175348103
16.63,0.364998102,0.008099556,0.169123888
16.64,0.179515123,0.064538956,-0.556363642
16.65,-0.303519428,0.081041336,-0.807322919
16.66,-0.293773651,0.081422806,-0.815130413
16.67,-0.845895171,0.134537697,-0.32075268
16.68,-0.836606562,0.13437748,-0.337462664
16.69,-0.335370719,-0.309081078,-0.772567153
16.7,0.441291273,-0.417531967,-0.908698261
16.71,0.99564302,-0.447376251,-0.171484768
16.72,1.782708406,-0.519498825,0.336111635
16.73,0.425850868,-0.437278748,1.865499258
16.74,-0.817823768,0.29179287,2.581454515
16.75,-1.185792565,0.588622093,2.122052193
16.76,-1.119337082,0.725317955,0.897974789
16.77,-0.654838562,0.617566109,-0.186662197
16.78,-0.645491362,0.618641853,-0.185451627
16.79,-0.059424996,0.314825058,-1.181901693
16.8,0.100699365,-0.003691673,-1.119876623
16.81,0.452192009,-0.010896683,-0.460025966
16.82,0.177353978,-0.104203224,0.554416537
16.83,-0.222681403,0.020938873,1.129594922
16.84,-0.509494424,0.137489319,1.231694818
16.85,-0.764813662,0.242362976,0.811676145
16.86,-0.959969878,0.251422882,0.222186491
16.87,-0.694196463,0.090099335,-0.467376709
16.88,-0.242568255,-0.072031021,-0.963120461
16.89,-0.125471711,-0.335448265,-1.358838558
16.9,0.606853962,-0.405310631,-1.074005961
16.91,0.608354211,-0.405932427,-1.105540872
16.92,0.958460569,-0.439574242,-0.158859327
16.93,0.222450376,-0.117702484,1.689034581
16.94,-0.332283855,0.092987061,2.030140162
16.95,-0.852241993,0.424085617,1.770869136
16.96,-0.873446345,0.45358181,0.796397805
16.97,-0.366351962,0.322005272,-0.033492148
16.98,0.047718167,0.093762398,-0.712327659
16.99,-0.116471171,-0.053619385,-0.911201954
17,-0.615640044,0.067067146,-0.630646527
17.01,-0.607182026,0.105894089,-0.936100781
17.02,-0.280538201,0.055480957,-1.250148535
17.03,0.555224419,-0.119809151,0.262618452
17.04,0.361970782,-0.225729942,1.344181418
17.05,0.363987446,-0.225311279,1.30508101
17.06,-0.486315131,-0.020400047,0.897865057
17.07,-0.933780909,0.108269692,0.800902009
17.08,-1.125402451,0.068965912,0.228561595
17.09,-1.121998191,0.069576263,0.214955673
17.1,-0.746204257,-0.213326454,-0.86641705
17.11,-0.227439046,-0.274362564,-0.873705447
17.12,0.678124607,-0.433934212,-0.435656905
17.13,0.943295062,-0.421149254,0.53969729
17.14,0.933124363,-0.342869759,1.178843617
17.15,0.641240776,-0.131840706,1.355818748
17.16,0.079530358,-0.147370338,1.303361416
17.17,-0.509564877,-0.023364067,1.383443117
17.18,-1.189173222,0.110649109,1.414090276
17.19,-1.284224153,0.136615753,0.713396251
17.2,-0.9298563,0.113945961,-0.016652524
17.21,-0.513242006,0.114477158,-0.197730511
17.22,0.292303562,0.002267838,0.125705063
17.23,1.016257882,-0.11236763,1.113940716
17.24,1.227196693,-0.367891312,2.077734232
17.25,1.198161364,-0.390627861,2.238711119
17.26,0.723921061,-0.375032425,2.181110144
17.27,0.259377658,-0.251578331,1.976088524
17.28,-0.500672102,0.020161629,1.328938961
17.29,-0.881711721,0.121097565,0.30303812
17.3,-0.539240956,0.12063694,-0.393312991
17.31,-0.54190433,0.119490624,-0.383481622
17.32,-0.122641206,-0.037179947,-0.531638026
17.33,0.424595952,-0.179713249,-0.103935123
17.34,0.411869407,-0.180640221,-0.110582054
17.35,0.247140408,-0.461109161,0.806008935
17.36,-0.143679261,-0.494359016,0.928991795
17.37,-0.482090831,-0.476870537,0.882726193
17.38,-0.507514715,-0.341856003,0.606460512
17.39,-0.821555018,-0.252435684,0.435244799
17.4,-0.549653173,-0.189579964,0.128307223
17.41,-0.033424616,-0.098568916,-0.087208867
17.42,0.159020603,-0.034369469,-0.040214121
17.43,0.022908688,0.118498802,0.274199605
17.44,0.026382208,0.119458199,0.26786226
17.45,-0.750839114,0.240531921,0.629459262
17.46,-0.680941224,0.148649216,0.156639814
17.47,-0.634963989,0.118481636,-0.327539444
17.48,-0.53954649,-0.019910812,-0.564062417
17.49,-0.539645791,-0.019664764,-0.566872776
17.5,0.154596686,-0.23741436,-0.337768853
17.51,0.706894755,-0.335814476,0.46703434
17.52,0.923495293,-0.21640873,1.019788742
17.53,0.533298016,0.032558441,1.311902523
17.54,-0.10123992,0.124032974,1.604691386
17.55,-0.239774823,0.122927666,1.478733063
17.56,-0.230914474,0.038564682,1.155571222
17.57,-0.290747285,-0.009976387,0.441715598
17.58,-0.638412952,-0.150167465,-0.0336501
17.59,-0.523398399,-0.120944977,-0.634032011
17.6,-0.520958901,-0.121772766,-0.623118997
17.61,0.695618391,-0.368321419,-1.270654202
17.62,0.454486311,-0.332612038,-0.541160703
17.63,0.041403294,-0.173256874,0.178889096
17.64,-0.256822944,-0.039457321,0.723782301
17.65,-0.435369372,0.113725662,0.931124091
17.66,-0.436199188,0.113876343,0.928601027
17.67,-0.584871531,0.123688698,0.480639637
17.68,-0.217892528,0.01134491,-0.260422528
17.69,0.18305999,-0.123570442,-0.761141479
17.7,0.262364209,-0.168070793,-0.701976299
17.71,0.255720794,-0.169160843,-0.698298454
17.72,0.06875211,-0.155363083,-0.276708424
17.73,0.092849374,-0.028811455,0.212438822
17.74,-0.082333088,0.023629189,0.826987147
17.75,-0.081704736,0.023561478,0.828472555
17.76,-0.068114996,0.080949783,0.184557796
17.77,-0.067169309,0.080566406,0.189614236
17.78,-0.309379578,0.118491173,-0.077145338
17.79,-0.587542772,0.144536972,-0.239244521
17.8,-0.306320667,0.067667007,-0.113695383
17.81,-0.311494589,0.067089081,-0.113401771
17.82,0.145872295,-0.108681679,-0.09204042
17.83,0.323883534,-0.200636864,0.227024078
17.84,0.086580396,-0.174825668,0.557598352
17.85,0.17884481,-0.077044487,0.158270538
17.86,0.211990297,-0.144906044,0.111302316
17.87,0.254502237,-0.200606346,0.349331141
17.88,0.042823851,-0.258423805,0.686773658
17.89,0.011669755,-0.318128586,0.787777305
17.9,0.095057905,-0.353610039,0.775211453
17.91,0.021191478,-0.3173666,0.41234225
17.92,0.018277049,-0.317541122,0.410959423
17.93,-0.230634332,-0.152691841,-0.054433286
17.94,-0.228785396,-0.160939217,-0.388485849
17.95,-0.23013711,-0.162605286,-0.372003794
17.96,-0.242409468,-0.150151253,-0.670055032
17.97,-0.200637341,-0.080015183,-0.906793177
17.98,-0.189840317,-0.109899521,-0.792827427
17.99,-0.096775293,-0.08910656,-0.533983588
18,-0.050836802,0.085237503,-0.407300115
18.01,-0.05361557,0.085073471,-0.408590734
18.02,-0.06104058,-0.118220329,1.02241385
18.03,0.109144509,-0.25644207,1.845086575
18.04,0.346982658,-0.109628677,1.829296827
18.05,0.398559451,0.039766312,1.055903673
18.06,0.175427139,0.131232262,0.171152055
18.07,0.170726359,0.130819321,0.170793295
18.08,0.270035446,-0.08822155,-0.215676069
18.09,0.262975574,-0.089360237,-0.211038053
18.1,0.517784298,-0.406429291,-0.541526556
18.11,-0.130270124,-0.27523613,-0.5572263
18.12,-0.619984925,-0.06910038,-0.702254474
18.13,-0.832577944,0.120566368,-0.664234221
18.14,-0.81286782,0.274481773,-0.476817578
18.15,-0.293300808,0.301442146,-0.152996779
18.16,0.078381002,0.158255577,0.472500742
18.17,0.063359797,0.106227875,1.193634272
18.18,0.260311484,-0.022216797,0.908740044
18.19,0.608787537,-0.062543869,0.127165794
18.2,0.593492985,-0.063083649,0.118919849
18.21,0.182537437,-0.068207741,-0.978787422
18.22,0.169053972,-0.067975044,-0.992314816
18.23,-0.485149324,-0.01215744,-0.319317102
18.24,-0.422263265,-0.089442253,-0.036979079
18.25,-0.442477167,-0.086761475,-0.0757792
18.26,0.382776469,-0.007463455,0.310301781
18.27,0.338837028,0.028897285,0.590647578
18.28,0.321977973,0.031641006,0.558084846
18.29,0.132399797,0.122894287,0.515486836
18.3,-0.231255233,0.137511253,0.248014569
18.31,-0.577952206,0.121228218,0.665639281
18.32,-0.737138808,0.067280769,0.834056139
18.33,-0.479002237,-0.044188499,0.319126725
18.34,-0.040026367,-0.103048325,-0.221185088
18.35,0.308056086,-0.180578232,-0.624680221
18.36,0.283594161,-0.175890923,-0.666530192
18.37,0.600970984,-0.160874367,-0.943096638
18.38,0.361314923,-0.208813667,-0.54410255
18.39,0.056988657,-0.173822403,0.251553893
18.4,-0.330911934,-0.271550179,1.657536507
18.41,-0.298615217,-0.279828072,2.230662823
18.42,-0.288800538,-0.195445061,2.266208172
18.43,-0.11162734,-0.185460091,1.854109287
18.44,-0.123919249,-0.179389,1.819389224
18.45,0.205170929,-0.236841202,-0.27461803
18.46,0.50243032,-0.414203644,-0.89787662
18.47,0.484755248,-0.408673286,-0.929289103
18.48,0.20833157,-0.317529678,-0.769501209
18.49,-0.301407039,-0.319518089,0.161248684
18.5,-0.265500695,-0.466877937,1.39456749
18.51,0.036837786,-0.471164703,2.279429674
18.52,0.135205537,-0.400233269,2.644549608
18.53,0.131122083,-0.393239975,2.61357069
18.54,-0.12729767,-0.022332191,1.332264662
18.55,-0.018155277,0.014267921,0.2339046
18.56,0.228645176,-0.046477318,-0.448473692
18.57,0.230755001,-0.047124863,-0.445366144
18.58,-0.413611263,-0.222682953,-0.038102865
18.59,-0.657261014,-0.268674851,0.299715042
18.6,-0.277482867,-0.309938431,0.617278099
18.61,0.193011478,-0.368733406,0.845532894
18.62,0.174294487,-0.360944748,0.810964108
18.63,0.146725282,-0.221173286,1.126516104
18.64,-0.078113526,-0.138993263,0.855354309
18.65,-0.069177955,-0.138699532,0.855611086
18.66,-0.175728232,-0.069270134,0.215951681
18.67,-0.23401919,-0.114383698,-0.442170501
18.68,-0.441878557,-0.033227921,-0.382423163
18.69,-0.542606473,0.040660858,-0.191547871
18.7,-0.546362877,0.044575691,-0.207731009
18.71,-0.968372703,0.107500076,0.073569059
18.72,-0.647593439,-0.025195122,1.443139315
18.73,-0.662050962,-0.020055771,1.421143532
18.74,-0.234701753,-0.280461311,1.807732105
18.75,0.323062539,-0.440702438,1.45614171
18.76,0.563662708,-0.533799171,1.071048021
18.77,0.07360673,-0.353079796,-0.190732479
18.78,0.080249518,-0.357223511,-0.173790693
18.79,0.136302099,-0.070610046,-1.327299833
18.8,-0.216228575,-0.026244164,-1.114372373
18.81,-0.427422583,0.090240479,-0.301321745
18.82,-0.491496325,0.017609596,0.466255665
18.83,-0.325486511,-0.048829079,1.175880432
18.84,-0.21718517,-0.117801666,1.65803051
18.85,-0.263882488,-0.120884895,1.862284422
18.86,-0.096341848,-0.031413078,1.334744215
18.87,0.175565749,0.012122154,0.507374048
18.88,0.214043364,0.105372429,0.056895256
18.89,0.126253143,0.201089859,-0.155407667
18.9,0.122578844,0.201892853,-0.158817053
18.91,0.127865315,0.14634037,-0.938471437
18.92,0.381994039,-0.097991943,-0.489450693
18.93,0.367269933,-0.096225739,-0.497745991
18.94,0.044926494,-0.478482246,1.138608694
18.95,-0.208125442,-0.506701469,1.60599947
18.96,-0.337291598,-0.369213104,1.394305706
18.97,-0.223993331,-0.40438652,0.568650723
18.98,-0.096644849,-0.413067818,0.057682276
18.99,0.004512727,-0.421074867,-0.174221039
19,-0.075861365,-0.355125427,-0.302451611
19.01,-0.219262183,-0.292162895,-0.34265399
19.02,-0.317937911,-0.062923431,-0.463142633
19.03,-0.603736341,0.029660225,-0.448424339
19.04,-0.776636243,0.081037521,0.200677633
19.05,-0.828444481,0.060743332,0.914062977
19.06,-0.828624249,0.059437752,0.918738842
19.07,-0.462875843,-0.014081955,1.376788616
19.08,-0.240946591,-0.021102905,1.381629467
19.09,-0.167983502,-0.047903061,0.897922754
19.1,-0.295239002,-0.082373619,-0.043590069
19.11,-0.082250997,-0.176833153,-0.395290613
19.12,0.189728439,-0.307394981,-0.245683193
19.13,0.189444065,-0.311125755,-0.23191452
19.14,0.184782207,-0.384922981,-0.095550776
19.15,-0.100274742,-0.351641655,0.058324099
19.16,-0.75264585,-0.134269714,0.115586758
19.17,-0.920903921,-0.027199745,-0.577719212
19.18,-0.878573299,0.053757668,-0.932457686
19.19,-0.877059102,0.0505476,-0.919817925
19.2,-0.709666133,0.037670136,-1.240097165
19.21,-0.510886908,0.046106339,-0.9491992
19.22,-0.283397704,0.017882347,0.683108091
19.23,-0.295360833,0.020726204,0.670875311
19.24,-0.018060699,-0.038393974,0.597608566
19.25,0.064928904,-0.060071945,0.678965569
19.26,-0.476343453,-0.106617928,0.558492661
19.27,-0.405280471,-0.184864998,0.086067438
19.28,-0.301220059,-0.277267456,-0.07380271
19.29,-0.01911892,-0.4084301,-0.17470932
19.3,-0.02965872,-0.406988144,-0.181212187
19.31,0.599753737,-0.433608055,-0.477313757
19.32,0.364263594,-0.233481407,-0.449625254
19.33,0.141330674,0.052660942,0.122696877
19.34,0.143991411,0.054501534,0.115941525
19.35,-0.010506347,0.281876564,0.737102747
19.36,0.027891114,0.468486786,1.085570335
19.37,-0.06450361,0.432265282,0.874258995
19.38,-0.110339403,0.352812767,0.874094963
19.39,-0.091785431,0.20442009,0.668371916
19.4,0.213817969,-0.008729935,0.582558632
19.41,0.247724474,-0.246350288,0.706810713
19.42,0.189802378,-0.376635552,0.49270916
19.43,0.182310194,-0.385937691,0.101062775
19.44,-0.16554144,-0.27466774,-0.236883402
19.45,-0.549051344,-0.217268944,-0.538853407
19.46,-0.54134059,-0.220869064,-0.524861097
19.47,-0.575504541,-0.4731493,-0.878167749
19.48,-0.248073936,-0.585149765,-0.679092407
19.49,-0.2489205,-0.460371971,-0.282316685
19.5,-0.554824054,-0.30283165,0.120324612
19.51,-1.014279008,-0.031733513,0.565073967
19.52,-0.842396736,0.095894814,0.478100777
19.53,-0.138790935,0.069540977,0.034591675
19.54,-0.135727167,0.071153641,0.028914452
19.55,0.39184171,-0.008214951,0.351369858
19.56,0.216101468,-0.03431797,0.642802715
19.57,0.214078724,-0.031619072,0.632729769
19.58,-0.103906006,-0.091422081,1.062183142
19.59,-0.100487441,-0.088728905,1.052697659
19.6,0.016406134,-0.124773026,0.742980003
19.61,0.158158481,-0.133115768,0.365038872
19.62,-0.128337055,-0.018324852,-0.089293003
19.63,-0.197215408,-0.040431023,-0.190200806
19.64,0.016874135,-0.126746178,-0.458272696
19.65,0.145222336,-0.16245842,-0.569910765
19.66,0.157516956,-0.25966835,-0.262960672
19.67,0.150951609,-0.257905006,-0.269889593
19.68,0.172149152,-0.315739632,0.558191776
19.69,0.014954984,-0.199414253,0.50537324
19.7,-0.446486712,0.03149128,0.849241018
19.71,-0.438330561,0.033173561,0.843940973
19.72,-0.876677156,0.384656906,0.610490084
19.73,-0.681684017,0.386706352,0.345389128
19.74,-0.676745176,0.388392448,0.339864731
19.75,-0.504796684,0.255789757,0.27259016
19.76,0.009073585,-0.183922768,0.245820999
19.77,0.00996235,-0.184324265,0.247386217
19.78,0.294213474,-0.399280548,0.115249634
19.79,0.254697293,-0.426101685,-0.412840128
19.8,-0.02635923,-0.288104057,-0.659115434
19.81,-0.246545941,-0.096302986,-0.772746325
19.82,-0.353262305,0.120877266,-0.623596191
19.83,-0.447896481,0.258234978,-0.298347235
19.84,-0.446887881,0.26061058,-0.306755543
19.85,-0.25960508,0.226178169,0.524374008
19.86,0.027292997,0.101844788,0.870104313
19.87,0.021791786,0.105714798,0.855920792
19.88,0.282876253,-0.071784973,1.054301977
19.89,0.301449925,-0.111474991,0.744502306
19.9,0.029858917,-0.116426468,0.434196949
19.91,-0.072524875,-0.112351418,0.413314819
19.92,-0.069224954,-0.112049103,0.412637472
19.93,0.222006008,-0.15916729,-0.028540611
19.94,-0.162650526,-0.01738739,-0.205575228
19.95,-0.345126867,-0.079837799,-0.063659906
19.96,-0.343622297,-0.080395699,-0.061583757
19.97,-0.233380169,-0.231527329,0.133396387
19.98,-0.099467605,-0.204626083,0.296397686
19.99,-0.406211883,-0.151857376,0.219621897
20,-0.399630487,-0.152873993,0.223924637
20.01,-0.654717147,0.055206299,-0.465102911
20.02,-0.164944917,-0.158492088,-0.944645166
20.03,0.297844231,-0.279685974,-0.604143381
20.04,0.501009107,-0.320464134,-0.0672791
20.05,0.492560446,-0.316314697,-0.082845449
20.06,0.368689597,-0.268381119,0.460075855
20.07,-0.536374092,0.116763115,1.658768892
20.08,-0.421924084,0.23848629,1.447932482
20.09,-0.12099123,0.268662453,0.980584145
20.1,-0.212591946,0.301017761,0.509922981
20.11,-0.207748294,0.300773621,0.51133585
20.12,-0.204550684,0.033205986,-0.128590822
20.13,0.04741171,-0.203779221,-0.341022015
20.14,0.287457556,-0.369464874,-0.664639711
20.15,0.373257428,-0.497271538,-0.836043239
20.16,0.153161675,-0.414364815,-0.453995705
20.17,-0.19440797,-0.227507591,-0.04621315
20.18,-0.267463803,-0.049160957,0.13296032
20.19,-0.314850688,0.089175224,0.407840014
20.2,-0.381860256,0.168260574,0.611100197
20.21,-0.413150698,0.211954117,0.692799807
20.22,-0.3628335,0.193615913,0.565437794
20.23,-0.118404985,0.119744301,0.236210585
20.24,-0.118889272,0.118936539,0.23897028
20.25,-0.073516399,-0.08631897,-0.063782692
20.26,0.107943147,-0.174973488,-0.277857542
20.27,0.174797341,-0.307484627,-0.501407147
20.28,0.042664558,-0.33686161,-0.251549959
20.29,-0.038762361,-0.393781662,0.245589972
20.3,-0.041805685,-0.394470215,0.247732878
20.31,0.025956064,-0.389825821,0.453700304
20.32,0.14605251,-0.250132561,0.919602156
20.33,0.141482443,-0.24928093,0.916089773
20.34,0.302688122,-0.11250782,0.691957712
20.35,-0.143408656,0.171230316,-0.151515722
20.36,-0.30744493,0.249769211,-0.49050498
20.37,-0.259595573,0.226658821,-0.69133091
20.38,-0.080067962,0.093630791,-0.840433002
20.39,-0.017465234,-0.000325203,-0.726656914
20.4,-0.103340566,-0.071873665,-0.237672567
20.41,-0.287677497,-0.036831856,0.294649363
20.42,-0.498365492,0.078099251,0.1006639
20.43,-0.152728349,-0.049167633,0.00398612
20.44,0.03357479,-0.312568665,0.353342772
20.45,0.370813757,-0.514373779,1.014585972
20.46,0.311550379,-0.427929878,1.308341026
20.47,0.308985502,-0.424920082,1.297221184
20.48,-0.551344872,0.071908951,0.208653212
20.49,-0.574609637,0.137318611,-0.608065367
20.5,-0.321977586,-0.061019897,-0.859327793
20.51,-0.074758321,-0.215561867,-0.692268491
20.52,-0.026971549,-0.310659409,-0.413321734
20.53,-0.101147145,-0.233818054,-0.110584259
20.54,-0.272566229,-0.127259255,0.322740078
20.55,-0.297435761,0.005888939,0.446572304
20.56,-0.241797596,0.116298676,0.414753199
20.57,-0.177078664,0.082281113,0.407530785
20.58,0.045863211,0.004851341,0.379933834
20.59,0.252959669,-0.113643646,0.111705542
20.6,0.144626275,-0.165680885,-0.073217869
20.61,0.146516904,-0.167559624,-0.066036463
20.62,-0.048365474,-0.135803223,-0.078557253
20.63,-0.387916118,-0.027629852,-0.619524837
20.64,-0.28695181,-0.055882454,-0.691361427
20.65,-0.342519611,-0.040489197,-0.600139737
20.66,-0.34267655,-0.041070938,-0.59799397
20.67,-0.306122094,0.041017532,0.220762968
20.68,-0.108948976,0.027637482,0.447048426
20.69,-0.089058876,0.050200462,0.809669018
20.7,0.0821715,-0.008553505,0.896691799
20.71,0.085477337,-0.043658257,0.78606987
20.72,0.030134231,-0.071834564,0.573617697
20.73,-0.026061773,-0.122347832,0.263634443
20.74,-0.193406314,-0.094612122,0.069221973
20.75,-0.468703747,-0.091537476,-0.028867722
20.76,-0.358795315,-0.146354675,-0.002914667
20.77,-0.156821609,-0.174840927,-0.048884869
20.78,0.203284219,-0.253540039,-0.145619154
20.79,0.439022273,-0.272511482,-0.325960159
20.8,0.397001356,-0.248545647,-0.311695576
20.81,0.340238273,-0.171326637,-0.158070564
20.82,0.042778075,-0.035963058,-0.188826084
20.83,-0.092771679,0.008835793,-0.058086872
20.84,-0.164424747,0.051556587,0.033027649
20.85,-0.258073211,0.019973755,0.234601021
20.86,-0.445393562,-0.078780174,0.553954363
20.87,-0.438594133,-0.079480171,0.557672024
20.88,-0.372050881,-0.192667961,0.647501707
20.89,-0.143842995,-0.093018532,0.359813213
20.9,-0.376442581,0.075050354,-0.20186162
20.91,-0.611272514,0.150764465,-0.762521267
20.92,-0.604001045,0.146391869,-0.74414897
20.93,-0.185985744,0.058339119,-1.016446948
20.94,-0.101889968,0.237678528,-1.025578737
20.95,-0.261014551,0.32129097,-0.354664564
20.96,-0.188075125,0.26668644,0.134488583
20.97,-0.187416077,0.26517868,0.140598059
20.98,0.583080173,-0.244060516,0.309553385
20.99,0.930458903,-0.551724434,0.772780895
21,0.920888543,-0.551353455,0.769595861
21.01,0.805191279,-0.538081169,0.948930979
21.02,0.069332689,-0.427480698,1.012047768
21.03,-0.475704759,-0.215427399,0.825707912
21.04,-0.519054949,-0.041589737,0.285478115
21.05,-0.488733828,0.073272705,0.031227112
21.06,-0.453711867,0.035890579,0.47213316
21.07,-0.457933873,0.036569595,0.468840361
21.08,-0.228970707,-0.059080124,0.503776312
21.09,-0.231520385,-0.060009956,0.507041454
21.1,0.003678888,-0.047271729,0.304832697
21.11,-0.225565344,0.044980049,-0.595886707
21.12,-0.284746349,0.056997299,-1.500539303
21.13,-0.615136504,0.206886292,-1.814357996
21.14,-0.89860642,0.171896935,-2.028061628
21.15,-0.388743103,0.127528191,-1.536924124
21.16,0.088073134,-0.007867813,-0.758201599
21.17,0.30261752,-0.143705368,0.043585539
21.18,0.088560045,-0.163602829,0.671865463
21.19,-0.300282002,-0.068139076,1.17700696
21.2,-0.541177988,0.007370949,1.437119722
21.21,-0.522658348,-0.034459114,1.360183001
21.22,-0.103861928,-0.102542877,0.763628006
21.23,0.254868567,-0.221011162,-0.031066895
21.24,0.357750118,-0.118078232,-0.408428669
21.25,0.35994938,-0.107961655,-0.684762359
21.26,0.258091837,-0.02197361,-0.541659117
21.27,-0.098187685,-0.000370979,0.085681915
21.28,0.352443636,-0.173530579,0.551660299
21.29,0.380957544,-0.34356308,0.774805784
21.3,0.328257769,-0.806378365,1.07072711
21.31,0.32463491,-0.80638504,1.070294142
21.32,0.023478776,-0.051129341,1.192781925
21.33,-0.126076996,-0.439115524,0.916049242
21.34,-0.290080041,0.159917831,-0.289703012
21.35,0.108571291,0.255810738,-1.076030493
21.36,0.122924238,0.245417595,-1.026022434
21.37,0.356672108,0.238653183,-0.298905015
21.38,0.294283599,0.235947609,0.312350273
21.39,0.017557561,0.1161232,0.801113129
21.4,0.020340174,0.115193367,0.806019068
21.41,-0.100336552,-0.43366909,1.365305185
21.42,-0.405196935,-0.499027252,1.222189784
21.43,-0.638329506,-0.379448891,0.340262651
21.44,-0.829477549,-0.148493767,-1.006172895
21.45,-1.12306571,-0.002985954,-1.709705591
21.46,-0.956469536,0.066614151,-1.731085777
21.47,-0.356712967,-0.104188919,-0.357523203
21.48,0.251297236,-0.266899109,1.530246377
21.49,0.534356356,-0.492610931,2.395962238
21.5,0.74334687,-0.460662842,2.556256056
21.51,0.490321517,-0.509830475,2.361875534
21.52,0.105708659,-0.351071358,1.552147508
21.53,-0.18561101,-0.247808456,0.438803792
21.54,-0.333369792,-0.065285683,-0.749668241
21.55,-0.439217359,0.176141739,-1.76576829
21.56,-0.663336754,0.363959312,-2.370778084
21.57,-0.655818045,0.357832909,-2.331725121
21.58,-0.766636252,0.409729004,-2.299851656
21.59,-0.004806101,0.047307968,-1.184867501
21.6,-0.006040692,-0.109910965,-0.196532369
21.61,-0.087613523,-0.258904457,0.352531314
21.62,-0.013682604,-0.309594154,0.518550873
21.63,-0.064130574,-0.278941155,0.634785295
21.64,-0.24040103,-0.133488655,0.81208086
21.65,-0.252967954,0.098022461,0.959430695
21.66,-0.312992483,0.120896339,0.941268683
21.67,-0.233200133,0.023605347,1.256579518
21.68,-0.095949948,-0.146959305,0.668738723
21.69,0.121380419,-0.302106857,0.10594213
21.7,0.318003148,-0.331165314,-0.466223717
21.71,0.001599252,-0.207333565,-1.028343081
21.72,-0.55313921,0.050889969,-1.073793769
21.73,-1.078140974,0.332276344,-0.726429343
21.74,-1.007842183,0.402248383,0.027956486
21.75,-0.411266327,0.281996727,0.657596469
21.76,-0.023496628,0.169939041,1.273869634
21.77,0.414997816,0.022357941,1.845986962
21.78,0.525173247,-0.214097023,1.170184612
21.79,0.313512325,-0.290257454,0.434581041
21.8,0.228835583,-0.338856697,-0.274258971
21.81,0.230741978,-0.340725899,-0.262654781
21.82,0.187222064,-0.391155243,-0.946086168
21.83,0.07589379,-0.366458893,-1.383597493
21.84,0.074832052,-0.366995812,-1.380688667
21.85,-0.275757849,0.000117302,-0.804711044
21.86,-0.220487416,0.116400719,0.385450959
21.87,-0.194858134,0.166207314,0.981018305
21.88,-0.199344933,0.169838905,0.958722949
21.89,0.017771661,0.016350746,1.254442096
21.9,0.087533027,-0.090611458,1.263801813
21.91,-0.050457209,-0.026186943,1.298209667
21.92,-0.315195829,0.124531746,1.024593353
21.93,-0.402584642,0.165090561,0.682606459
21.94,-0.385425478,0.184317589,0.408404708
21.95,-0.385860354,0.181312561,0.425286531
21.96,-0.018021673,0.101102829,-0.223059535
21.97,-0.0245049,0.097655296,-0.204916954
21.98,0.295853496,-0.307547569,-0.649448872
21.99,0.290645421,-0.309008598,-0.642253161
22,-0.064155519,-0.355149269,-0.40938437
22.01,-0.321653128,-0.345828056,-0.238250732
22.02,-0.308581919,-0.305478096,-0.102429032
22.03,-0.07397297,-0.329674721,-0.02019906
22.04,0.076666474,-0.047010422,0.406787992
22.05,0.043031245,0.132987976,0.453930616
22.06,0.041389912,0.133410454,0.450896144
22.07,-0.10727343,0.196263313,0.499952078
22.08,0.219181538,0.136892319,0.657080293
22.09,0.249112636,-0.011510849,0.395617008
22.1,0.359959483,-0.182236671,0.385767698
22.11,0.229421467,-0.21460247,0.220953703
22.12,-0.107624531,-0.084421158,0.125339985
22.13,-0.101743668,-0.086033821,0.13668406
22.14,-0.70470947,0.261996269,-0.024305463
22.15,-0.76519084,0.269968987,-0.08928299
22.16,-0.651309788,0.155955315,-0.114259124
22.17,-0.270232439,-0.044052124,-0.147920251
22.18,0.048403889,-0.294258118,-0.18277216
22.19,0.237254649,-0.431245804,-0.079060674
22.2,0.351614058,-0.505588532,0.199169159
22.21,0.328427076,-0.500711441,0.107877374
22.22,0.100260615,-0.400267601,-0.005009413
22.23,-0.361330777,-0.137354851,-0.059668064
22.24,-0.824530602,0.151786804,0.167735934
22.25,-0.665474773,0.292607307,0.140558243
22.26,-0.257568002,0.323140144,0.060771704
22.27,-0.125854135,0.276907921,0.131753087
22.28,-0.165178776,0.23549366,0.140076995
22.29,-0.013897657,0.148676872,0.011044621
22.3,-0.04242295,0.080945969,-0.00604105
22.31,-0.043031394,0.080580711,-0.003990412
22.32,-0.122700989,-0.075453758,-0.051876545
22.33,-0.063945293,-0.28208065,0.01951766
22.34,-0.106415391,-0.385830879,-0.015815377
22.35,0.027065694,-0.477700234,0.100720882
22.36,-0.043252707,-0.440032959,0.354472756
22.37,-0.180103481,-0.26999855,0.268686175
22.38,-0.17470181,-0.114377976,0.111862302
22.39,-0.171470285,-0.114706039,0.115196228
22.4,-0.204644203,0.02146244,0.012848377
22.41,-0.382588923,0.143582344,0.231243849
22.42,-0.380212009,0.143903732,0.230030179
22.43,-0.347634852,0.2156744,0.219872236
22.44,-0.098781526,0.20277977,-0.136186361
22.45,0.107240349,0.141075134,-0.228263617
22.46,0.216849446,0.04794693,-0.336172819
22.47,0.236642093,-0.029680252,-0.0724262
22.48,-0.039444387,-0.10153389,0.291946411
22.49,-0.33336252,-0.194299698,0.348442316
22.5,-0.293219149,-0.231993675,0.055933237
22.51,-0.296495974,-0.231729507,0.052886367
22.52,-0.055972934,-0.200379372,0.560005784
22.53,0.055950463,-0.26449585,0.464417219
22.54,0.092735231,-0.26433754,0.493898392
22.55,0.190606833,-0.206954956,0.369853497
22.56,0.336411476,-0.204856873,-0.114392877
22.57,0.113176078,-0.109984398,-0.55633384
22.58,-0.345137,0.013806343,-0.876630247
22.59,-0.602294266,0.087834358,-1.023211718
22.6,-0.467829049,0.145474434,-0.471191704
22.61,-0.403852642,0.155629158,-0.00370276
22.62,-0.607019067,0.154111862,0.330594659
22.63,-0.671194673,0.191184998,0.642334938
22.64,-0.775201559,0.185213089,0.690816522
22.65,-0.750014544,0.202991486,0.573742032
22.66,-0.515507639,0.136705399,0.518813491
22.67,-0.203575492,0.000710487,0.362069488
22.68,0.293028116,-0.17149353,0.148176074
22.69,0.286862016,-0.171601296,0.146528721
22.7,0.488134533,-0.329071045,0.168106437
22.71,0.528058887,-0.524154663,0.764369726
22.72,0.516595244,-0.522407532,0.749090672
22.73,0.647228897,-0.570877075,0.620590568
22.74,0.636289597,-0.568954468,0.604792118
22.75,0.068016201,-0.380533218,0.662754059
22.76,-0.309581608,-0.150069237,0.474871516
22.77,-0.521951497,0.019607544,0.181738734
22.78,-0.743857384,0.166728973,0.336263657
22.79,-0.734709024,0.165216446,0.348847389
22.8,-0.9590621,0.312493324,0.625563383
22.81,-0.79230243,0.415922165,0.433311701
22.82,-0.349822938,0.321928024,-0.062596321
22.83,0.301301301,0.137040138,-0.331731558
22.84,0.496338964,-0.006851196,0.02571857
22.85,0.484232932,-0.011419296,0.053121448
22.86,-0.267643005,-0.008498192,0.735911131
22.87,-0.621178269,-0.020545006,0.969170094
22.88,-0.632905543,-0.025771141,1.003842115
22.89,-0.216822267,-0.16044426,1.333331347
22.9,0.384251177,-0.412624359,1.076072335
22.91,0.403648466,-0.511881828,1.120501876
22.92,0.391235858,-0.517831802,1.166411757
22.93,0.558736146,-0.56810379,0.088490963
22.94,0.444743276,-0.716784477,-1.139099956
22.95,0.159850135,-0.66106987,-1.061644077
22.96,0.055395633,-0.642414093,-1.16488409
22.97,0.494204581,-0.605829239,-0.907799959
22.98,0.492887646,-0.608639717,-0.874373972
22.99,-0.275790691,-0.388095856,0.321819186
23,-0.652701199,-0.102566719,0.271772742
23.01,-0.881675839,0.068001747,0.182250023
23.02,-0.908155322,0.176484108,0.328929305
23.03,-0.755737364,0.37868309,0.274268985
23.04,-0.416870505,0.104309082,-0.046352685
23.05,0.232267678,0.198163033,0.229513884
23.06,0.221022338,0.195383072,0.267026901
23.07,-0.257431865,0.105816841,0.166094184
23.08,0.266029269,-0.304977417,-1.386807203
23.09,0.338532448,-0.528806686,-1.410339832
23.1,0.179207623,-0.646348953,-1.518728495
23.11,0.031766742,-0.554693222,-1.45529294
23.12,-0.182396472,-0.366605759,-1.015461206
23.13,-0.178039432,-0.367152214,-0.970628858
23.14,-0.573247552,-0.137499809,-0.642342567
23.15,-0.90738225,0.180797577,-0.434381187
23.16,-0.32747674,0.123165131,-1.694252014
23.17,0.118816763,0.032095909,-1.860387564
23.18,0.115007162,0.032036781,-1.826493025
23.19,0.331592977,-0.142746925,-0.372755468
23.2,0.602813482,-0.351284027,0.375925392
23.21,0.698440671,-0.255917549,1.325684786
23.22,0.741157115,-0.239587784,1.618920803
23.23,0.995841384,-0.163326263,1.085179806
23.24,0.408801168,-0.094165802,0.288673461
23.25,-0.368427694,0.061462402,-0.489699841
23.26,-1.08983016,0.030515671,-1.608825207
23.27,-0.76613307,-0.512911797,-1.652568102
23.28,0.289928049,-0.467907906,-1.66659236
23.29,0.267484158,-0.468736649,-1.682384491
23.3,0.369303703,-0.608324051,-0.902043939
23.31,0.136745393,-0.278467178,1.368814111
23.32,-0.051111132,-0.020068169,1.705913544
23.33,-0.476770222,0.274421692,1.476175785
23.34,-0.620989561,0.489971161,0.456589282
23.35,-0.426536888,0.396636963,-0.787395954
23.36,-0.54500258,0.085342407,-1.425226569
23.37,-0.667430878,-0.041546822,-1.096006036
23.38,-0.722288311,0.032784462,0.331216425
23.39,-0.729666472,0.0330019,0.299625635
23.4,-0.00339739,-0.019505501,1.602168441
23.41,0.53068316,0.040415764,1.264647484
23.42,0.526773274,0.04049015,1.256372809
23.43,-0.050288841,0.169929504,1.172425508
23.44,0.05708237,0.210738182,0.513121545
23.45,0.105738029,0.15109539,0.115766689
23.46,-0.470804274,0.223352432,0.708069146
23.47,-0.32260412,0.19038868,0.647613168
23.48,-0.130746588,0.044815063,0.497174174
23.49,-0.021501273,0.023526192,0.399638474
23.5,-0.02728352,0.009326935,0.424411207
23.51,0.098928496,0.023860931,0.506509543
23.52,0.154480368,0.024425507,0.391568661
23.53,-0.122666732,-0.030119896,0.299896896
23.54,-0.332758188,0.025576591,0.337111831
23.55,-0.038162932,-0.093482018,0.335211754
23.56,0.152940527,-0.040161133,0.538529635
23.57,-0.058876321,-0.070605278,0.949012101
23.58,-0.198884606,0.026116371,1.266932011
23.59,-0.074193448,0.029720306,1.288410306
23.6,0.061365813,0.081198692,1.059390187
23.61,-0.136049807,0.166107178,0.534373283
23.62,-0.508815169,0.25062561,-0.237479866
23.63,-0.78358388,0.272304535,-0.880741119
23.64,-0.443607152,0.262369156,-1.487459898
23.65,-0.315048844,0.254570007,-1.284728646
23.66,-0.479100943,0.187204361,-0.676642597
23.67,-0.473837882,0.186988831,-0.668235421
23.68,0.006496161,0.016839981,0.075665146
23.69,0.332610577,-0.081521988,0.087952852
23.7,0.241869301,-0.076963425,0.043574959
23.71,-0.174147576,-0.098680496,0.213885516
23.72,-0.137741298,-0.240016937,0.364497185
23.73,0.144058943,-0.347929955,0.202809632
23.74,0.129596889,-0.393796921,-0.132462442
23.75,-0.058454752,-0.267352104,-0.409589976
23.76,-0.058147877,-0.267796516,-0.398100615
23.77,-0.222982228,-0.158022881,-0.364176273
23.78,0.213421136,-0.158392906,-0.200083658
23.79,0.208514661,-0.158720017,-0.194911674
23.8,-0.14803341,0.051758766,0.58773917
23.81,-0.341129601,0.20489502,0.500474989
23.82,-0.413211823,0.350798607,-0.189978391
23.83,-0.267614663,0.417395592,-0.687980056
23.84,-0.239883214,0.282793999,-0.922058404
23.85,-0.111377955,0.244007111,-0.433985084
23.86,-0.08505109,0.025779724,0.051288009
23.87,0.093530893,-0.048635483,0.277403772
23.88,0.116056234,-0.127838135,0.572065234
23.89,-0.01714015,-0.214215279,0.904750943
23.9,0.049997136,-0.372343063,0.516099215
23.91,0.048974529,-0.372515678,0.520934582
23.92,0.03845641,-0.152508736,-0.243891016
23.93,-0.206359267,-0.006579399,-0.009989411
23.94,-0.209594876,-0.006556511,-0.013997763
23.95,-0.497657985,0.086982727,0.245331675
23.96,-0.52574712,0.096697807,0.025745422
23.97,-0.299059093,0.07280159,-0.188981265
23.98,-0.015424013,0.02956295,-0.202971578
23.99,0.08764182,0.067686081,0.071945965
24,0.087297246,0.067554474,0.076190323
24.01,-0.135868698,0.144129753,0.635275245
24.02,-0.235251635,0.033968925,0.69686687
24.03,-0.152207404,0.024411201,0.460859656
24.04,-0.230820507,0.024346352,0.144878358
24.05,-0.228881359,0.024230957,0.151687473
24.06,-0.202968359,-0.052535057,-0.048820227
24.07,-0.26462087,-0.050282478,0.013905913
24.08,-0.267374545,-0.050358772,0.014448941
24.09,-0.022391796,-0.050458908,-0.105957449
24.1,-0.060695678,-0.029044151,-0.137095735
24.11,-0.229734212,-0.079386711,0.168589056
24.12,-0.295475632,-0.165489197,0.477260083
24.13,-0.295655668,-0.165287972,0.469340384
24.14,-0.14160344,-0.248803139,0.364348173
24.15,-0.134562641,-0.169534683,0.343061954
24.16,-0.067917794,-0.08068943,0.546780109
24.17,-0.069447488,-0.080369949,0.535083532
24.18,0.03834492,0.022878647,0.559836865
24.19,-0.063659847,-0.019890785,0.445797503
24.2,-0.097930789,-0.062662125,0.25597921
24.21,-0.012546167,-0.155766487,-0.008708358
24.22,-0.014450252,-0.155610085,-0.014475822
24.23,-0.093251988,-0.184132576,-0.01185441
24.24,-0.035626829,-0.205439568,0.346218854
24.25,-0.03903079,-0.205178261,0.336983115
24.26,-0.067679599,-0.135390282,0.805232704
24.27,0.017731309,-0.17579937,0.42153278
24.28,0.067306459,-0.266709328,0.016940176
24.29,0.064175397,-0.329135895,-0.223290741
24.3,0.063176155,-0.329449654,-0.215914071
24.31,0.113964811,-0.650671005,-0.781832099
24.32,-0.026220337,-0.619889259,-0.438056499
24.33,-0.105903029,-0.658413887,-0.021172851
24.34,-0.107516602,-0.65847683,-0.020273864
24.35,0.268483758,-0.586662293,1.035445809
24.36,-0.094117522,-0.407058716,0.316604346
24.37,-0.285613358,-0.215660095,-0.299658507
24.38,-0.283785254,-0.216016769,-0.288400471
24.39,0.06123583,-0.283514023,-0.687258482
24.4,-0.094676122,-0.300686836,-1.075382948
24.41,-0.094450504,-0.301029205,-1.064275026
24.42,-0.032839701,-0.167305946,-1.15927577
24.43,-0.265789866,0.143622398,-0.562362254
24.44,-0.117400348,0.423545837,-0.198883623
24.45,0.133917615,0.631655693,-0.287208647
24.46,-0.054271042,0.873185158,-0.397167653
24.47,-0.302004814,0.899209976,-0.583095014
24.48,-0.467953026,0.874927521,-0.707526684
24.49,-0.464278996,0.874551773,-0.689279974
24.5,-0.339214265,0.232520104,-0.715773583
24.51,-0.334135056,0.232165337,-0.692030013
24.52,0.070927501,-0.500907898,-0.789141059
24.53,0.033707693,-0.56109333,-0.88865757
24.54,0.037502125,-0.561348915,-0.859502494
24.55,-0.189032272,-0.710009575,-0.795041204
24.56,-0.060796335,-0.796257019,-0.246858433
24.57,-0.059896752,-0.79629612,-0.228966072
24.58,0.218086138,-0.640742302,-0.595363915
24.59,-0.025846034,-0.523488045,-0.78823328
24.6,-0.096064702,-0.442087174,-0.803088665
24.61,-0.078126609,-0.410934448,-0.773457527
24.62,0.017630413,-0.398973465,-0.729885817
24.63,0.014049053,-0.399000168,-0.718005419
24.64,0.272392392,-0.348743439,-1.02385354
24.65,0.036636591,-0.272098541,-1.06503284
24.66,-0.474604696,-0.176192284,-0.631677032
24.67,-0.362856835,-0.195116043,-0.319357097
24.68,-0.240583092,-0.247675896,-0.439654231
24.69,-0.22350575,-0.316984177,-0.714150071
24.7,-0.196124479,-0.371863365,-1.120203495
24.71,-0.239557341,-0.405077934,-1.363215804
24.72,-0.235179856,-0.404576302,-1.341859102
24.73,-0.307673216,-0.402604103,-1.27899313
24.74,0.336025059,-0.525258064,-0.356732607
24.75,0.486277103,-0.609556198,-0.104630597
24.76,0.481916249,-0.609975815,-0.134427905
24.77,0.499890357,-0.701268196,0.009032253
24.78,0.510699809,-0.82358551,-0.412785739
24.79,0.574477553,-0.895512581,-0.986626566
24.8,0.568872273,-0.89558506,-1.017168164
24.81,0.363872051,-1.118203163,-1.661141634
24.82,0.354065239,-1.118087769,-1.695322394
24.83,0.380622774,-1.488990784,-1.775836468
24.84,0.363964766,-1.488532066,-1.819418907
24.85,0.400920272,-1.667118073,-0.272245169
24.86,0.379763812,-1.665633202,-0.334597081
24.87,0.721460104,-1.771533012,-0.799428761
24.88,0.893492401,-1.680679321,-0.819558859
24.89,0.872856379,-1.502963066,-1.253783822
24.9,0.702594876,-1.192822456,-1.854696512
24.91,0.350636125,-0.788357735,-1.946250319
24.92,0.006075375,-0.47617054,-1.858375549
24.93,-0.059587404,-0.217912674,-1.91114831
24.94,-0.180758357,-0.133372307,-1.999167562
24.95,-0.60401392,-0.081394196,-1.851077795
24.96,-0.724075913,-0.090682983,-1.136809587
24.97,-0.756916106,-0.079494476,-1.228396654
24.98,0.053392947,-1.063218117,-0.439362407
24.99,0.419039458,-1.578904152,-0.610911727
25,0.592139602,-1.987724304,-0.97647363
25.01,0.711386085,-2.337103367,-1.332072496
25.02,0.664667845,-2.317877293,-1.436777115
25.03,0.671031535,-2.4142313,-2.081433535
25.04,0.334855557,-1.984832287,-1.806410313
25.05,0.28470701,-1.49891758,-1.517958403
25.06,0.342145205,-0.901818276,-1.034384727
25.07,0.30228591,-0.876204491,-1.137862206
25.08,-0.248951078,0.216680527,0.655678511
25.09,-0.064378083,0.706706047,1.664931536
25.1,0.176050007,1.108045578,1.983557224
25.11,0.216564,1.212640762,1.76266408
25.12,0.509318113,1.328526497,1.384824991
25.13,0.668744445,1.310347557,0.581458807
25.14,0.658577979,1.330278397,-0.470196724
25.15,0.625060618,1.483870506,-1.893105865
25.16,0.546802998,1.800221443,-3.341474295
25.17,-0.053199232,2.619030952,-3.438290119
25.18,-0.849105775,3.51470089,-2.464804173
25.19,-1.490809917,4.495903015,-0.953932762
25.2,-1.830327988,5.148324966,0.131153345
25.21,-1.918154836,5.712816238,0.818708658
25.22,-1.716105103,5.802289963,1.259567022
25.23,-1.758188963,5.74503994,1.900955677
25.24,-1.834305048,5.496403694,2.467447281
25.25,-1.510059476,4.712070465,2.455443621
25.26,-0.712709904,3.640511513,2.054003239
25.27,-0.594028771,2.282230377,2.573028088
25.28,-0.925450027,1.124736786,3.874391556
25.29,-0.958655477,-0.646834374,4.003579617
25.3,-0.936389327,-0.631642342,3.957424641
25.31,-1.783004403,-3.004588604,4.186144829
25.32,-1.913702965,-3.118317604,5.867824554
25.33,-1.255593061,-2.442018032,7.796640396
25.34,-1.397444963,-0.982207298,8.277873993
25.35,-1.403974056,-0.931444168,8.159399033
25.36,-1.741776943,0.854869843,6.42343998
25.37,-3.006620646,3.171217918,3.981202602
25.38,-6.146962643,7.516560555,1.575134277
25.39,-6.999800205,8.881649971,1.161773682
25.4,-6.37235117,9.53253746,1.863644123
25.41,-6.289565563,9.530199051,1.866082668
25.42,-2.963172436,9.491521835,4.914108276
25.43,-2.921898365,9.500781059,4.893456459
25.44,-1.291451097,8.7040205,5.346374512
25.45,-0.627577007,8.041295052,1.778521061
25.46,-1.373877525,7.684311867,-0.447755814
25.47,-1.73491466,5.874253273,-1.765841484
25.48,-1.120833755,4.389204979,-1.975747943
25.49,-0.117662802,2.296261787,-0.573029518
25.5,0.845971167,-0.070301056,2.264128923
25.51,2.133838415,-1.831684113,3.804529667
25.52,2.077499151,-1.844398499,3.834595919
25.53,2.937841892,-3.530862331,4.914403915
25.54,2.227163792,-7.414018154,1.330382824
25.55,1.407649875,-9.055573463,-2.657368183
25.56,1.345824957,-9.096088409,-2.549968243
25.57,-0.048611224,-10.0541544,-6.628944397
25.58,-1.304820776,-10.33417606,-8.889454842
25.59,-1.437147379,-10.27975941,-8.251489639
25.6,-0.157606453,-11.36626053,-2.635881901
25.61,-0.258029968,-11.35680008,-2.6434443
25.62,2.206765652,-12.54295254,-1.14081645
25.63,2.094403744,-12.52801323,-1.153972387
25.64,2.415319204,-12.59876633,-0.365852118
25.65,1.580055237,-11.37045479,-0.600146771
25.66,0.245654702,-9.792387009,-1.951335311
25.67,0.010305762,-7.372705936,-4.140458584
25.68,1.424145341,-4.602088451,-5.39610672
25.69,2.391181946,-0.683392525,-3.574654341
25.7,3.669146061,2.792305946,-1.805701613
25.71,3.635397434,2.796772003,-1.804832578
25.72,4.870781898,5.678133965,-0.030032158
25.73,5.149499893,8.665179253,4.021461487
25.74,5.724181652,10.47989273,9.350694656
25.75,3.433835983,15.91855526,10.43929291
25.76,2.066012383,17.42265129,9.069717407
25.77,2.097723961,17.39940643,9.123459816
25.78,-1.461548805,14.60061359,-0.211666107
25.79,-2.12539053,11.5079155,-1.350031734
25.8,-2.237764359,8.54662323,-0.204773426
25.81,-2.197066784,8.538069725,-0.197508574
25.82,-1.600102186,2.517663002,3.817115784
25.83,-2.404798746,-0.16943264,7.925971985
25.84,-3.654224873,-1.28088665,9.096736908
25.85,-2.530565023,-2.608591557,7.543909073
25.86,-2.340009451,-4.283833981,5.164952755
25.87,-2.263673306,-4.328417301,5.292748451
25.88,-0.647879005,-7.575909138,-3.674309492
25.89,-3.549907923,-8.605423927,-5.915888786
25.9,-3.489736795,-8.625563622,-5.857725143
25.91,-3.625454903,-10.68955803,-4.352200031
25.92,-3.554872274,-10.70014572,-4.33161068
25.93,-3.919939041,-13.18097687,0.102960348
25.94,-4.448478222,-14.11573601,0.951591015
25.95,-4.012849331,-14.98207092,-0.018550634
25.96,-4.004253387,-14.9859314,-0.004463673
25.97,-3.23317194,-14.24431229,-3.210805178
25.98,-3.227780819,-14.24633026,-3.203564644
25.99,-2.803048849,-9.767032623,-4.284017086
26,-2.200077295,-7.080972672,-2.533693075
26.01,-0.800933361,-3.866553783,-0.149214029
26.02,1.955315351,-0.010343552,4.225789547
26.03,1.931834817,0.01194191,4.143460751
26.04,4.270222664,3.500897408,6.467652798
26.05,-0.898297787,12.01052094,4.504027367
26.06,-3.996479273,16.21508789,1.841742992
26.07,-3.964118958,16.2260704,1.795967817
26.08,-4.296255589,20.15267563,11.01697922
26.09,-5.116353989,20.32969856,12.49379826
26.1,-5.138302326,20.3429451,12.45609474
26.11,-5.282921791,18.98656082,8.519943237
26.12,-4.357119083,11.8041048,0.751446486
26.13,-4.396533966,11.79075146,0.806146622
26.14,-1.50103581,4.096271515,0.574556112
26.15,-0.306328654,0.860512734,1.103802681
26.16,1.140399456,-1.892830849,1.780997276
26.17,2.418214321,-3.854232311,2.217303038
26.18,3.238728046,-5.569206715,2.822102308
26.19,3.154690742,-5.550517559,2.795243025
26.2,0.60542357,-7.766868591,0.868848085
26.21,-1.074681282,-8.732441902,-1.563132286
26.22,-1.353434443,-9.701725006,-2.676430464
26.23,-1.386280537,-9.709151268,-2.633525848
26.24,-0.698632598,-12.13230896,-1.6835711
26.25,0.210767865,-13.15323448,-1.636453629
26.26,-0.109410524,-13.59317875,-1.593572855
26.27,-0.157074809,-13.59910583,-1.540889263
26.28,0.547774077,-13.5772953,-1.470172882
26.29,0.873480797,-13.07668114,-1.085422754
26.3,0.254303336,-11.79469776,-2.318271399
26.31,-0.37686193,-9.900035858,-4.946469784
26.32,-0.380627394,-9.911251068,-4.89853096
26.33,-0.823310316,-5.649315834,-5.393443108
26.34,1.639452338,-0.722868919,-1.531466126
26.35,1.655800343,-0.737390518,-1.481834054
26.36,7.575868607,7.100078583,2.073565006
26.37,5.345780373,11.02193451,2.448892593
26.38,1.604157925,14.96155548,7.267519951
26.39,1.592154026,14.95985985,7.286718845
26.4,0.416797638,16.92855835,11.56832695
26.41,2.436053038,15.56936741,7.588551044
26.42,2.434314966,15.54892063,7.696817398
26.43,-0.567233682,12.28605747,-2.50744915
26.44,-1.846252441,11.14888573,-0.434653044
26.45,-1.884812713,9.584281921,-0.49119091
26.46,-1.622282147,8.203509331,-1.479704738
26.47,-2.033406734,6.777496338,-0.683529556
26.48,-1.967369556,6.765140533,-0.673085392
26.49,-0.871883154,3.476173401,4.269641399
26.5,-0.51318109,1.778563499,7.381902218
26.51,-0.963133574,0.207537651,6.719019413
26.52,-3.036711693,-3.490212917,3.678917885
26.53,-3.410316944,-6.445441246,3.219211102
26.54,-2.789583683,-9.708805084,0.690380573
26.55,-2.511668205,-12.12379742,-2.809528351
26.56,-2.953828573,-13.34295177,-4.401301384
26.57,-3.639785767,-13.71856689,-4.076345444
26.58,-5.38053894,-13.70767879,-2.725674152
26.59,-5.219385624,-14.16375351,-0.050301731
26.6,-4.55501318,-14.7420845,1.67884481
26.61,-4.582602978,-15.35597992,1.811423063
26.62,-4.56802845,-15.37747383,1.512037635
26.63,-4.610426903,-15.36459541,1.432418466
26.64,-4.150562286,-11.65028954,-1.673898816
26.65,-4.178592682,-11.63872337,-1.742180824
26.66,-4.243359566,-5.026558876,-1.392224789
26.67,-2.42202282,0.219750404,1.075982928
26.68,0.98353076,4.996589661,3.825640202
26.69,2.600449324,8.589072227,5.441078663
26.7,1.36569488,12.3934164,6.025587082
26.71,-1.295956612,16.45446014,10.47992325
26.72,-5.764732838,19.84828758,15.04205227
26.73,-5.742506027,19.86690521,14.94808197
26.74,-7.777765751,19.44344711,8.726049423
26.75,-7.767337322,19.43683052,8.750247002
26.76,-6.256788254,14.05095863,-1.873701334
26.77,-6.270656586,14.03792667,-1.807737589
26.78,-1.904069901,8.368512154,-0.634366632
26.79,-0.012897849,5.692659378,1.538367748
26.8,1.076907516,3.389343262,2.432495594
26.81,1.025694966,3.397770882,2.421650171
26.82,2.089603186,-0.903688431,2.773645163
26.83,2.033214331,-0.896471977,2.774168491
26.84,1.374061465,-3.532710075,3.744668007
26.85,0.081282735,-5.047384739,2.741770983
26.86,-0.591509402,-7.407877922,0.777870178
26.87,-0.37299037,-10.0030489,-2.038323164
26.88,-0.139513373,-11.86884594,-4.102378845
26.89,-0.178030491,-11.87514496,-4.04044342
26.9,1.133109808,-14.49758148,-4.889138699
26.91,1.39424789,-14.85698891,-2.074191809
26.92,1.455625534,-14.94694328,0.24334836
26.93,1.537777185,-14.62151527,1.732465744
26.94,1.47913444,-14.60261917,1.691257834
26.95,-0.539675236,-12.3033371,-0.349415541
26.96,-1.841306448,-10.69235611,-2.987331629
26.97,-2.262001038,-8.517892838,-4.675920486
26.98,-1.841466784,-5.971394539,-4.938179016
26.99,0.207841754,-2.482877731,-3.839198589
27,4.127628803,2.568996429,0.142608285
27.01,8.268307686,6.846002579,2.943508625
27.02,9.679947853,9.914853096,3.352925301
27.03,7.083312988,13.28117752,5.446781158
27.04,2.630777836,16.8123436,8.744668961
27.05,0.469553471,17.75244904,11.22608852
27.06,3.007669687,15.80710983,9.694376945
27.07,1.158071995,13.33522987,3.125106573
27.08,-1.36072278,11.26552963,-1.97614789
27.09,-2.68270731,10.17770195,-2.37664628
27.1,-2.858306885,9.844750404,-1.27587533
27.11,-2.804525852,9.832805634,-1.268172264
27.12,-1.227703452,7.794343948,2.767073631
27.13,-0.969817817,6.736086845,6.445577621
27.14,-0.880688131,6.718204498,6.458318233
27.15,-3.946575165,2.373200417,9.032048225
27.16,-3.776320219,-2.174521923,5.688848019
27.17,-3.512022495,-6.532597542,1.335264206
27.18,-4.031645298,-10.05514526,-1.693795204
27.19,-3.648936272,-12.2290163,-2.167005062
27.2,-2.984457016,-14.12910557,-2.20069623
27.21,-2.910335302,-15.19694805,-1.431696415
27.22,-3.624502182,-15.65687656,-1.336897969
27.23,-5.197590828,-15.2370472,-0.896973193
27.24,-5.00392437,-15.10031414,-0.456169814
27.25,-4.516530514,-15.61571121,-0.913995504
27.26,-4.09178257,-15.51922417,-1.120162249
27.27,-3.92925787,-14.5213623,0.119642735
27.28,-3.657525301,-12.19626045,0.215043008
27.29,-3.665781736,-12.18642044,0.120149612
27.3,-3.840886593,-6.034194469,-0.320622444
27.31,-2.991689682,-2.12440443,0.426090598
27.32,-0.751772821,2.605278015,3.322650909
27.33,1.700016022,7.351534843,6.15486145
27.34,0.077188075,11.91814995,4.053983688
27.35,0.113860101,11.93447495,3.933129787
27.36,-2.575903654,16.87896729,2.58875227
27.37,-4.898046494,19.60695648,14.30996513
27.38,-6.175312996,18.07517624,14.68933201
27.39,-6.176115513,18.07826614,14.67359543
27.4,-6.316332817,14.23210621,-1.802485228
27.41,-6.309875965,14.21639442,-1.718884826
27.42,-4.732596874,9.667210579,-2.778949738
27.43,-3.097168684,7.245069504,0.430676937
27.44,-1.30572319,4.654348373,1.941413164
27.45,-1.342940569,4.657998085,1.930561543
27.46,0.444171429,0.546497345,2.434444427
27.47,0.983863354,-0.939580917,3.689684391
27.48,1.47553587,-3.260798454,4.683650494
27.49,2.05030036,-5.074392319,4.373890877
27.5,2.100427151,-7.78352356,2.615989685
27.51,1.625906706,-9.876162529,0.2497648
27.52,1.999602318,-11.49052048,-1.614635944
27.53,2.13672781,-12.50395203,-2.122423649
27.54,1.973298788,-13.15490341,-2.189061165
27.55,1.931904674,-13.16355705,-2.099129677
27.56,1.033810377,-13.64202499,-2.118220329
27.57,0.935704112,-13.21632957,-0.840482056
27.58,0.791240335,-13.17795563,0.054470778
27.59,1.16665864,-13.3477335,0.518945098
27.6,0.983098388,-12.98731709,-0.760176778
27.61,0.916961432,-12.97384739,-0.796039701
27.62,-1.50188148,-9.594187737,-5.437919617
27.63,-1.523596525,-9.589499474,-5.449687958
27.64,-0.412354887,-2.38496542,-4.254312992
27.65,-0.420864046,-2.383272648,-4.257721901
27.66,3.46852684,3.316892624,-0.164936543
27.67,10.24776459,10.86855888,5.219075203
27.68,6.209331512,13.49516106,2.852931976
27.69,0.124518275,15.93362617,2.909901142
27.7,-2.599291563,18.03033447,5.002143383
27.71,-2.57004571,18.02614784,4.996074677
27.72,1.672752023,15.92299557,3.333772421
27.73,2.687190771,14.05007553,2.071051836
27.74,1.332965732,11.95346737,2.232581377
27.75,-1.249864697,11.45901012,0.516084909
27.76,-2.217342615,10.0023489,1.287899256
27.77,-2.137596607,9.990426064,1.291800618
27.78,-0.42667079,8.754016876,6.940069675
27.79,-3.258407354,6.999109268,11.31356621
27.8,-3.149614334,6.973199844,11.4095726
27.81,-2.677963734,-4.693940163,5.701558113
27.82,-2.979398251,-9.695782661,0.761890233
27.83,-3.55055666,-13.15746403,-2.201262951
27.84,-3.393331051,-15.41221142,-3.767933607
27.85,-4.007587433,-16.02059174,-4.922297478
27.86,-4.295171738,-15.50530243,-5.291814804
27.87,-4.494727135,-14.11948299,-3.39453721
27.88,-5.653084278,-13.0418787,0.047927007
27.89,-5.634419441,-13.04201412,0.027688742
27.9,-6.370652199,-12.3724823,2.131547689
27.91,-4.902336121,-13.7793026,2.561657429
27.92,-3.316034555,-13.63596725,1.439636946
27.93,-3.014585972,-12.03202343,-0.275741071
27.94,-3.036730289,-12.02831078,-0.325099617
27.95,-2.797575235,-9.3816576,-0.871384919
27.96,-1.895507336,-3.150748253,0.356642544
27.97,-1.895295501,-3.147527695,0.311225116
27.98,4.210176945,5.632156372,7.561819077
27.99,3.497391701,10.43545628,5.303416252
28,3.486370325,10.45025826,5.158095837
28.01,-3.654371023,19.77398682,5.738576889
28.02,-7.261003017,20.29946518,11.15543175
28.03,-10.45074654,18.82826996,10.51147842
28.04,-9.072904587,16.59255219,3.628148556
