Time (s),Linear Acceleration x (m/s^2),Linear Acceleration y (m/s^2),Linear Acceleration z (m/s^2)
0,-0.269391537,0.039956093,0.366855383
0.01,-0.264589369,0.040354729,0.370058566
0.02,-0.05884999,-0.241790772,0.246004358
0.03,-0.076472759,-0.277404785,0.276689738
0.04,-0.072696745,-0.277226448,0.276284367
0.05,-0.076040149,-0.284226418,0.175074101
0.06,-0.220299423,-0.118811607,-0.014636785
0.07,-0.283405602,-0.082737923,0.015396446
0.08,-0.176543951,0.034712791,0.178436637
0.09,-0.032533646,0.041916847,0.09638679
0.1,-0.03122282,0.041897774,0.094183296
0.11,0.020408928,0.075392723,0.130361527
0.12,-0.049324095,0.140075684,0.221729547
0.13,-0.121156454,0.252744675,0.159621596
0.14,-0.033135116,0.157128334,0.208643988
0.15,-0.031920493,0.157296181,0.210934863
0.16,-0.07032299,0.049870491,-0.10799104
0.17,-0.056076109,-0.002458572,0.150648087
0.18,-0.015752018,-0.138689041,0.347270072
0.19,0.148137093,-0.181718826,0.701665163
0.2,0.147571027,-0.181941032,0.697595537
0.21,-0.032342136,-0.349878311,0.85061121
0.22,-0.263859332,-0.249466896,0.075505048
0.23,-0.35176754,-0.02910614,-0.084851414
0.24,-0.422029018,-0.016952515,-0.526536644
0.25,-0.155367613,0.004886627,-0.66095078
0.26,0.005585968,0.064836502,0.068333894
0.27,0.065117598,0.148183823,0.569114983
0.28,0.073509336,0.200241089,0.849212289
0.29,-0.015509188,0.180569649,0.682766318
0.3,-0.047813475,0.12042141,0.430594564
0.31,-0.014211476,0.041332245,0.318245053
0.32,0.01729548,-0.107098579,0.336956352
0.33,0.020489693,-0.188472748,0.406373501
0.34,0.021435142,-0.18843174,0.40581134
0.35,0.081813127,-0.255503655,0.334647775
0.36,-0.042601168,-0.241175652,-0.113915861
0.37,-0.204120398,-0.10926342,-0.318664312
0.38,-0.189854205,-0.084989548,-0.212873161
0.39,-0.102524817,-0.02737236,0.081361115
0.4,-0.185893714,0.056506157,0.295515716
0.41,-0.044206798,0.116409302,0.322508693
0.42,-0.051753819,0.209806442,0.256755412
0.43,-0.045019567,0.200307846,0.203925952
0.44,-0.052719712,0.138124466,0.17069231
0.45,-0.117815793,0.051992416,0.354683429
0.46,0.018011928,0.004072189,0.297193795
0.47,-0.009892166,-0.108577728,0.124208629
0.48,-0.0139184,-0.130236626,0.138306558
0.49,0.00101018,-0.166348457,0.112172455
0.5,-0.013219237,-0.161816597,0.161542639
0.51,-0.015485704,-0.162139893,0.156854913
0.52,0.03257668,-0.131373406,0.316217125
0.53,0.221019298,-0.076686859,0.174800754
0.54,0.19762814,-0.031570435,0.15231742
0.55,0.193977833,-0.031864166,0.149652287
0.56,0.090534568,0.039710999,0.223828271
0.57,-0.060226917,0.063492775,-0.032673448
0.58,-0.12898922,0.053860664,-0.058200628
0.59,-0.204583645,0.039448738,-0.112086177
0.6,-0.250188232,0.073068619,-0.090655118
0.61,-0.215860248,0.039684296,0.012548357
0.62,-0.006590962,0.011133194,-0.04434526
0.63,0.031226993,-0.0773592,-0.069811404
0.64,0.029980779,-0.0773592,-0.06795162
0.65,0.152294308,-0.094355583,0.444002986
0.66,0.162247658,-0.168795586,0.426813364
0.67,0.32117033,-0.046874046,0.287559718
0.68,0.449760407,-0.059122086,0.124705851
0.69,0.444409102,-0.059463501,0.123253912
0.7,0.336402714,-0.0216465,0.458456814
0.71,0.34068042,-0.0104599,0.542829514
0.72,0.068533957,-0.044849396,0.443735898
0.73,-0.192139804,-0.019247055,0.166251168
0.74,-0.322864354,0.035385132,-0.057575852
0.75,-0.35796991,0.039966583,-0.041002125
0.76,-0.335392654,0.035194397,0.030840844
0.77,-0.199281037,0.035321236,0.235863075
0.78,-0.199136078,0.035473824,0.239899322
0.79,0.168857426,-0.041023254,0.256108344
0.8,0.168086439,-0.040925026,0.259617209
0.81,-0.118196607,-0.052742004,0.219300553
0.82,-0.06929931,-0.069354057,0.094840854
0.83,-0.163938403,-0.054800987,0.002486974
0.84,-0.258026809,0.036410332,0.032803595
0.85,-0.322273105,0.036680222,0.141599909
0.86,-0.266056269,0.008219719,0.136661649
0.87,-0.184173733,-0.025105476,0.198074073
0.88,-0.182003379,-0.024953842,0.198771417
0.89,-0.070289731,-0.060797691,0.313756824
0.9,-0.068463087,-0.060724258,0.313204289
0.91,-0.028520703,-0.015130997,0.10283047
0.92,0.009478778,-0.026938438,0.060943782
0.93,0.02282694,-0.017267227,0.145718962
0.94,0.02348569,-0.017238617,0.145532221
0.95,-0.103452623,-0.034021378,0.154612184
0.96,-0.103981614,-0.034065247,0.153971404
0.97,0.074032694,0.037637711,0.30863291
0.98,0.022327244,0.037528038,0.374785125
0.99,0.09857145,0.027909279,0.307280481
1,0.01933822,0.039933205,0.076235533
1.01,-0.016767263,0.008901596,-0.057169527
1.02,0.006796986,-0.024470329,0.016317368
1.03,-0.285905749,0.037927628,0.063733786
1.04,-0.274714768,0.038219452,-0.019498855
1.05,-0.273370087,0.038600922,-0.012326032
1.06,-0.13513726,-0.078447342,-0.148549318
1.07,-0.079404831,-0.111796379,0.32174167
1.08,-0.014223337,-0.128561974,0.51293385
1.09,-0.166472822,-0.143001556,-0.008966863
1.1,-0.162319392,-0.054110527,-0.361013681
1.11,-0.191635907,-0.017881393,-0.35578236
1.12,-0.147227585,0.03502655,-0.002727747
1.13,-0.076020062,0.037394524,0.4021011
1.14,0.034409493,0.039542198,0.6550349
1.15,-0.112032801,-0.020687103,0.506296873
1.16,-0.342715293,-0.047259331,0.202343643
1.17,-0.301017135,-0.023368835,0.159621298
1.18,-0.098223418,-0.087988853,0.150900304
1.19,-0.008108765,-0.099903107,0.105203778
1.2,0.010647863,-0.090123177,0.085461646
1.21,0.08974421,-0.121034622,0.152351022
1.22,0.091680408,-0.120863915,0.154155165
1.23,0.021506965,-0.044129372,0.379629076
1.24,-0.055541575,-0.015278816,0.255962044
1.25,-0.081872523,-0.01261425,0.038809538
1.26,-0.112925708,-0.017010689,-0.005949855
1.27,-0.100813866,0.021678925,-0.055421859
1.28,-0.144201398,0.041171074,-0.057325214
1.29,-0.254496455,0.046310425,0.069610626
1.3,-0.251878381,0.046627045,0.073600262
1.31,-0.208184183,0.054163933,0.044034153
1.32,-0.28387332,0.042669296,0.098142177
1.33,-0.358738422,0.035978317,0.089420795
1.34,-0.29928416,-0.049734116,-0.056506217
1.35,-0.152374208,-0.101988792,-0.125969976
1.36,-0.105226159,-0.046652794,-0.050668806
1.37,-0.109211326,0.013293266,0.26159215
1.38,0.020782173,-0.001065254,0.414416313
1.39,-0.048148274,-0.003433228,0.428502113
1.4,-0.046648681,-0.003316879,0.429182351
1.41,-0.030732572,0.025626183,0.211393893
1.42,-0.067342639,-0.00522995,0.133377165
1.43,-0.106363356,-0.031292915,0.10572511
1.44,-0.104648054,-0.031001091,0.109736413
1.45,-0.110848308,-0.119290352,-0.105926335
1.46,-0.250783086,-0.133331299,-0.295089841
1.47,-0.2824561,-0.010863304,-0.170626402
1.48,-0.280950964,-0.010641098,-0.16816324
1.49,-0.242445588,-0.027295113,-0.132688344
1.5,0.018995106,-0.065721512,0.072985262
1.51,-0.074245632,-0.027690887,0.700191319
1.52,-0.087230563,0.012774467,0.517021954
1.53,-0.077505589,-0.025617599,0.144087732
1.54,-0.076761186,-0.02545929,0.146291077
1.55,-0.084382117,-0.053917885,-0.515977442
1.56,-0.110425353,0.046740532,0.146314025
1.57,-0.113262355,0.04656601,0.145980835
1.58,-0.113949597,0.046261787,0.476544559
1.59,-0.172226489,-0.073522568,0.10950622
1.6,-0.196326137,-0.071093559,-0.078623116
1.61,-0.198040068,-0.032681465,0.001681387
1.62,-0.196768463,-0.032550812,0.002750754
1.63,-0.042674422,-0.001284599,0.248530209
1.64,0.246948928,-0.073045731,0.281211078
1.65,0.246492416,-0.072944641,0.283602834
1.66,-0.045968592,-0.0632658,0.134877265
1.67,-0.15832293,-0.048766136,-0.032969177
1.68,-0.198526442,-0.106003761,-0.153968692
1.69,-0.131527364,-0.036377907,0.067581862
1.7,-0.098734081,-0.000341415,0.070585102
1.71,-0.145231307,0.047664642,0.193331331
1.72,-0.086418331,0.083667755,0.181658566
1.73,-0.08691287,0.083838463,0.18521601
1.74,-0.179643095,0.074501038,0.229370862
1.75,-0.121409833,-0.028168678,0.094646275
1.76,-0.036558092,-0.047100067,0.124088883
1.77,0.045378327,-0.073303223,0.140321761
1.78,0.014138758,-0.099596024,0.107613266
1.79,-0.048265219,-0.082829475,0.208408773
1.8,-0.047985792,-0.082872391,0.207278609
1.81,0.004472256,-0.073417664,0.317897022
1.82,0.056026071,-0.059226036,0.299397528
1.83,0.054161996,-0.059428215,0.297613561
1.84,0.037431657,0.005005836,0.205262154
1.85,0.008720934,0.062297821,0.333938837
1.86,0.09498179,0.07647419,0.251347184
1.87,0.097089738,0.109851837,0.220404595
1.88,0.061079234,0.095370293,0.237269849
1.89,0.020322263,-0.005338669,0.141528666
1.9,-0.187646627,0.013736725,-0.095134735
1.91,-0.178460896,0.001848221,0.064894438
1.92,-0.040896177,-0.08915329,0.101631403
1.93,0.068614811,-0.15153122,0.487566888
1.94,0.037924856,-0.137564659,0.755119145
1.95,0.03377828,-0.1381073,0.74947387
1.96,0.108725458,-0.224756241,0.546546757
1.97,0.094269574,-0.136532784,0.188037127
1.98,-0.033997118,-0.038612366,-0.327677906
1.99,-0.021198869,0.052288055,-0.372885227
2,0.054840773,0.147874832,0.198675394
2.01,0.054774612,0.061173439,0.531559825
2.02,-0.053739816,0.043776512,0.493677616
2.03,-0.065900654,0.012079239,0.305745065
2.04,-0.137275517,0.037957191,0.145748168
2.05,-0.104918778,0.042384148,0.094588637
2.06,-0.108118147,0.042169571,0.093074739
2.07,-0.153363228,0.037190437,0.287964284
2.08,-0.02160728,0.037052155,0.354284555
2.09,0.114954978,-0.063529015,0.231477648
2.1,-0.068622917,-0.08506012,0.03458491
2.11,-0.07881844,-0.128076553,-0.015711308
2.12,-0.070038319,-0.127944946,0.06867367
2.13,0.027362704,-0.051217079,0.100174248
2.14,-0.08445093,0.003871918,0.212099552
2.15,0.019003034,0.037360191,0.194179118
2.16,0.016206384,0.037332535,0.196060836
2.17,-0.194819391,0.037367821,0.033731163
2.18,-0.258475453,0.042281151,0.065890253
2.19,-0.163611382,0.039978981,0.030287623
2.2,-0.066426337,0.042494774,0.112253696
2.21,-0.059833288,0.061746597,0.21766603
2.22,-0.160192907,0.042707443,0.200206518
2.23,-0.137751609,0.042833328,0.283121646
2.24,0.018679112,0.030924797,0.22602424
2.25,0.018500835,0.030927658,0.226148039
2.26,-0.036764771,0.0213871,0.128958613
2.27,-0.036544681,0.021429062,0.129584163
2.28,-0.112544239,0.019115448,0.161548972
2.29,-0.033244967,-0.057418823,0.071985066
2.3,-0.035565317,-0.133904457,0.16040656
2.31,0.017345756,-0.097886086,0.190821379
2.32,0.052708685,-0.11699295,0.153761238
2.33,-0.089301407,-0.076250076,0.068866611
2.34,-0.239897013,0.043577194,-0.130655706
2.35,-0.315307081,0.144328117,0.058601081
2.36,-0.314873666,0.144443512,0.060453117
2.37,-0.218233109,0.098964691,0.080873996
2.38,0.032794446,0.043616295,0.290859669
2.39,0.034867078,-0.186609268,0.405573964
2.4,0.031172603,-0.186896324,0.403584719
2.41,-0.156765938,-0.062491417,-0.033001184
2.42,-0.071036458,-0.057746887,-0.244205177
2.43,-0.005915433,0.028347969,-0.103004158
2.44,0.01216504,0.042361259,0.43936944
2.45,0.007691115,0.041733742,0.431881726
2.46,-0.12312144,0.041095734,0.648369193
2.47,-0.140512854,0.040572166,0.22466743
2.48,-0.142192185,0.040428162,0.223264277
2.49,-0.0927369,0.040429115,-0.008219361
2.5,-0.047998846,-0.024194717,0.107454598
2.51,0.01581803,-0.081665993,0.230346054
2.52,0.036041111,-0.052983284,0.347845823
2.53,0.005698264,0.004378319,0.105424196
2.54,0.009121954,0.028360367,0.025597394
2.55,0.007763535,0.02845192,0.028395772
2.56,-0.03176415,0.054843903,0.360815287
2.57,0.019048452,0.057236671,0.173126668
2.58,-0.009805799,0.040517807,0.127961278
2.59,0.016049057,0.03334713,0.139802635
2.6,-0.018238485,-0.031311989,0.05560419
2.61,-0.021209031,-0.031283379,0.058233947
2.62,-0.143194228,-0.026446342,0.091805577
2.63,-0.185777575,-0.000106812,0.289772213
2.64,-0.187108815,-0.000172615,0.289492369
2.65,-0.121203691,-0.064953804,0.271133065
2.66,-0.121795833,-0.065033913,0.270000696
2.67,-0.022380769,-0.115415573,0.091935903
2.68,-0.011327088,-0.070015907,0.076586038
2.69,0.045116395,-0.04857254,0.075319916
2.7,0.024449468,-0.012770653,0.136606067
2.71,-0.005701095,0.001392365,0.426157594
2.72,0.052959889,-0.003675461,0.393256307
2.73,-0.013038427,0.020013809,0.233897895
2.74,-0.01404351,0.019863129,0.231877059
2.75,-0.060573727,0.074807167,0.20154652
2.76,-0.052079469,0.062724113,0.245842665
2.77,0.020800143,0.017212868,0.153232992
2.78,0.031755328,0.058021545,0.129298508
2.79,-0.055303693,0.017395973,0.224907786
2.8,-0.056351721,0.017438889,0.226205438
2.81,0.147126943,-0.056890488,0.594623447
2.82,-0.054028302,-0.150518417,0.419346213
2.83,-0.272875875,-0.095583916,0.175935179
2.84,-0.099403501,-0.00693512,0.26724568
2.85,-0.014725357,-0.061989784,0.15417248
2.86,0.066243649,-0.145773888,-0.333751321
2.87,0.083208799,-0.064361572,-0.123580873
2.88,-0.101569682,0.0048666,0.367647827
2.89,-0.080083966,0.021202087,0.428712547
2.9,-0.02576524,0.037521362,0.300546378
2.91,-0.126807481,0.082668304,0.219371498
2.92,-0.127600104,0.082474709,0.216162741
2.93,-0.155674994,0.137503624,0.310766518
2.94,-0.051946998,0.037004471,0.30419153
2.95,0.032723278,-0.065818787,0.222092301
2.96,0.179656953,-0.125514031,-0.024263203
2.97,0.050077349,-0.067847252,-0.106418669
2.98,-0.047309309,-0.053266525,0.134101361
2.99,-0.022739083,-0.043597221,0.21444574
3,-0.030020416,-0.021989822,0.222835034
3.01,-0.161939621,0.037905693,0.197328001
3.02,-0.094815165,0.033147812,0.152183563
3.03,0.018815607,0.011588097,0.076466501
3.04,-0.109670878,0.030797005,0.169298053
3.05,-0.110153675,0.030847549,0.170858741
3.06,-0.143673241,-0.048059464,0.162968278
3.07,-0.043036819,-0.026445389,0.157131016
3.08,-0.022919029,0.033496857,0.126724571
3.09,-0.145740837,0.038381577,0.228063554
3.1,-0.143126845,0.026506424,0.268659532
3.11,-0.185585558,0.012252808,0.184732795
3.12,-0.213327944,0.024394035,0.053926557
3.13,-0.231440872,-0.004095078,0.056058735
3.14,-0.161010385,0.036859512,0.29034847
3.15,0.011753798,0.005875587,0.372428894
3.16,0.071769267,0.039557457,0.22018218
3.17,0.074445486,0.03980732,0.22309047
3.18,-0.16838938,0.145550728,0.057382792
3.19,-0.252269775,0.112454414,0.143092126
3.2,-0.178393483,0.021873474,0.043964148
3.21,-0.126534939,0.048644066,-0.130923271
3.22,-0.122505248,0.049131393,-0.125281751
3.23,-0.049717605,-0.065400124,0.295498908
3.24,-0.047461063,-0.065155029,0.298136711
3.25,0.013144881,-0.23747921,0.533284307
3.26,-0.112651616,-0.273351669,0.238788515
3.27,-0.306110412,-0.175042152,0.13621068
3.28,-0.301284015,-0.174824715,0.136503995
3.29,-0.353634059,0.021706581,-0.22295624
3.3,-0.348595768,0.022159576,-0.219136298
3.31,-0.303228289,0.044039726,-0.531445861
3.32,-0.097029865,0.12308979,-0.209939659
3.33,-0.042454571,0.11578083,0.532820523
3.34,-0.023101032,0.096554756,0.383228421
3.35,0.059015065,0.041586876,0.20003286
3.36,0.095463753,-0.08509922,0.310821027
3.37,0.110676348,-0.147143364,0.433184862
3.38,0.173294306,-0.238026619,0.437032998
3.39,0.014789045,-0.235653877,0.451440603
3.4,0.014988661,-0.23575592,0.449713141
3.41,-0.133617401,-0.163909912,-0.139139593
3.42,-0.133141905,-0.163691521,-0.135781527
3.43,-0.14923051,-0.129886627,-0.268049836
3.44,-0.29706791,0.040345192,-0.197498441
3.45,-0.167571038,0.157806397,-0.135376334
3.46,-0.167816848,0.157906532,-0.133608997
3.47,-0.148659438,0.315986633,0.463606119
3.48,-0.054144919,0.249073029,0.32597959
3.49,-0.147652358,0.050745964,0.254028171
3.5,-0.201458752,-0.006237984,0.203734964
3.51,-0.166134864,-0.135061264,0.174895376
3.52,-0.152356535,-0.23520565,0.173568368
3.53,-0.109937489,-0.24206543,0.134858161
3.54,-0.091941059,-0.213145256,0.159037232
3.55,-0.224469781,-0.172277451,0.041306555
3.56,-0.241398215,-0.090630531,-0.252841175
3.57,-0.250992984,0.048579216,-0.150388479
3.58,-0.195709139,0.053700447,0.011325955
3.59,-0.191319376,0.053970337,0.012315571
3.6,0.079006225,0.068517685,0.197567761
3.61,0.150182396,0.073464394,0.385597646
3.62,0.06739983,0.049736023,0.136842728
3.63,0.032574952,-0.079242706,0.025889933
3.64,-0.06966576,-0.157912254,-0.328608155
3.65,-0.125370085,-0.07126236,-0.224945903
3.66,-0.248310536,-0.104582787,0.26756987
3.67,-0.314261586,-0.085436821,0.257156164
3.68,-0.107522756,-0.107023239,0.454806358
3.69,-0.155076802,-0.109498024,0.338380665
3.7,-0.153445989,-0.109498978,0.337113112
3.71,-0.018550962,-0.044683456,-0.005136192
3.72,-0.01600039,-0.044603348,-0.006050646
3.73,0.136036605,-0.03728199,-0.265914738
3.74,0.193407685,0.056082726,0.342312485
3.75,0.218589097,0.134810448,0.772276282
3.76,0.132637888,0.105567932,0.677570224
3.77,-0.067569017,0.11965847,0.477963507
3.78,-0.067999512,0.119556427,0.476815522
3.79,-0.063015699,0.04791069,-0.085692465
3.8,-0.010087371,-0.045214653,0.042595327
3.81,0.112508982,-0.138355255,0.218274295
3.82,0.100818783,-0.159731865,0.438488901
3.83,0.101505309,-0.159609795,0.439814985
3.84,0.040121853,-0.149942398,0.411802709
3.85,-0.119612157,-0.094740868,0.008658409
3.86,-0.118304253,-0.094571114,0.010298729
3.87,-0.124628723,-0.058545113,0.068647742
3.88,-0.098059356,0.056371689,0.262198567
3.89,-0.097180545,0.056453705,0.262891352
3.9,-0.047324538,0.181221962,0.231662929
3.91,-0.242815793,0.215152741,0.09887749
3.92,-0.238743126,0.215600014,0.102409899
3.93,-0.02246356,0.045960426,0.150611401
3.94,-0.037252784,0.005526543,0.208072633
3.95,-0.15749085,-0.025406837,0.219179124
3.96,-0.203146994,-0.039574623,0.205792397
3.97,-0.201225102,-0.039406776,0.20665881
3.98,-0.008950114,-0.154269218,0.166469753
3.99,0.119953156,-0.156535149,0.106307864
4,0.252990365,-0.218780518,0.071377158
4.01,0.16793254,-0.103852272,0.081984043
4.02,0.040770024,0.054224014,0.200335115
4.03,-0.063984752,0.09499836,0.342057288
4.04,-0.063190103,0.095081329,0.342522144
4.05,0.082511067,0.083275795,0.21597752
4.06,-0.083304942,-0.021737099,-0.04918462
4.07,-0.283722639,-0.01647377,-0.174690723
4.08,-0.28259337,-0.015975952,-0.16860342
4.09,-0.207921326,0.025134087,-0.036458135
4.1,-0.196535945,-0.012909889,0.149699807
4.11,-0.011796474,-0.149243355,0.466947436
4.12,0.083695799,-0.199792862,0.656694889
4.13,0.055566877,-0.216870308,0.210693091
4.14,0.150836974,-0.17383194,-0.005147219
4.15,0.150802761,-0.173819542,-0.005003273
4.16,0.01654011,-0.156954765,0.039428294
4.17,0.015114725,-0.157204628,0.037231684
4.18,-0.132856429,-0.021320343,0.724638343
4.19,-0.120243192,-0.127366066,0.35939303
4.2,-0.188761175,-0.132628441,-0.039037406
4.21,-0.287052631,-0.044219017,-0.072573185
4.22,-0.22363162,0.041934967,0.103153646
4.23,-0.222508729,0.042037964,0.103934228
4.24,0.02947405,-0.058293343,-0.029749334
4.25,0.008283019,-0.089076996,-0.092125952
4.26,0.03211531,-0.086320877,0.183527887
4.27,-0.085777283,-0.069333076,0.069916964
4.28,-0.15041399,-0.033070564,-0.238971829
4.29,-0.255686879,-0.015880585,-0.240170479
4.3,-0.155304194,-0.020241737,-0.35392946
4.31,-0.058344781,0.02323246,-0.209088564
4.32,-0.1150226,0.056987762,-0.15440321
4.33,-0.213782311,0.057254791,-0.112093926
4.34,-0.378220141,0.062426567,-0.124172866
4.35,-0.421353102,0.017493248,-0.255048275
4.36,-0.393798292,-0.024900436,-0.291119933
4.37,-0.408794165,-0.062381744,-0.266538143
4.38,-0.399347305,-0.049555779,-0.31372571
4.39,-0.29414165,-0.122915268,-0.248523474
4.4,-0.154078126,-0.136608124,-0.038781047
4.41,-0.147058189,-0.14812851,-0.00115788
4.42,-0.126364112,-0.248325348,-0.004927993
4.43,-0.125052452,-0.248053551,-0.002523839
4.44,-0.26819402,-0.295594215,-0.119852424
4.45,-0.355083644,-0.362269402,-0.400589109
4.46,-0.3975842,-0.309109688,-0.38649714
4.47,-0.390932918,-0.308562279,-0.384389043
4.48,-0.423724413,-0.274400711,-0.31258738
4.49,-0.36763978,-0.213825226,-0.326206744
4.5,-0.665213525,0.036043167,-0.207493067
4.51,-0.686116457,0.245384216,0.056964695
4.52,-0.488808096,0.098031998,-0.33925879
4.53,-0.326655328,-0.02031517,-0.666582167
4.54,-0.378835678,-0.136175156,0.037321925
4.55,-0.348069072,-0.252658844,0.466267765
4.56,-0.358644247,-0.395936012,0.083612621
4.57,-0.349163055,-0.395321846,0.0832026
4.58,-0.444678307,-0.408995628,-0.768640876
4.59,-0.515053392,-0.307520866,-0.400655985
4.6,-0.585781336,-0.191999435,0.289517462
4.61,-0.575703263,-0.192015648,0.280827522
4.62,-0.617331624,-0.132102966,0.465792835
4.63,-0.772712112,-0.251227379,-0.330040395
4.64,-0.506491303,-0.247620583,-0.400392175
4.65,-0.41602546,-0.167305946,-0.12680018
4.66,-0.400916398,-0.166210175,-0.128087163
4.67,-0.322959125,-0.069713593,0.183898449
4.68,-0.312993884,-0.069236755,0.17975992
4.69,-0.200917661,-0.133835793,0.238300443
4.7,-0.17630744,-0.390343666,-0.1615327
4.71,-0.173889279,-0.390743256,-0.169007123
4.72,-0.326873422,-0.544381142,-0.363798797
4.73,-0.188210726,-0.760520935,-0.197331309
4.74,-0.189432681,-0.7619133,-0.214015722
4.75,-0.081509531,-0.730360031,0.095012903
4.76,0.254691184,-0.802274704,0.309799314
4.77,0.244670451,-0.804935455,0.283118367
4.78,0.25128305,-1.128522873,0.127232134
4.79,0.339049071,-1.375432968,-0.04842031
4.8,0.328354925,-1.488215446,0.170607805
4.81,0.633018613,-1.419107437,0.224750191
4.82,1.22900176,-1.103581429,0.140891075
4.83,1.705361843,-0.651799202,-0.048710048
4.84,1.975060701,0.051086426,-0.452639014
4.85,1.952488422,0.870562553,-0.83671999
4.86,1.910090685,0.865950584,-0.885580182
4.87,1.237440944,2.161295891,-0.466959566
4.88,0.78985548,2.266882896,-0.314133883
4.89,0.617423117,2.097860336,-0.778193295
4.9,0.166439384,1.922483444,-1.507893562
4.91,0.037666053,1.455886841,-2.047441483
4.92,-0.134606481,1.06645298,-2.211835861
4.93,-0.228873849,0.653493881,-2.160857439
4.94,-0.103827089,0.382135391,-1.951172233
4.95,-0.126491934,0.381583214,-1.948408127
4.96,0.291831255,-0.217342377,-1.104572535
4.97,0.669431567,-0.591104507,-0.364773095
4.98,0.98385179,-0.742182732,-0.156986505
4.99,0.913787127,-0.744753838,0.013533071
5,0.841758251,-0.579642296,-0.023392126
5.01,0.57139951,-0.450325012,-0.30489409
5.02,0.342405617,-0.531614304,-0.439442933
5.03,0.364542842,-0.840390205,-0.371853113
5.04,0.366486967,-0.840418816,-0.378994495
5.05,0.761210978,-1.649801254,-0.944666207
5.06,0.755708277,-1.649978638,-0.956822336
5.07,0.389149487,-1.757914543,-1.366010189
5.08,0.380811572,-1.758099556,-1.385683179
5.09,0.198269978,-1.437421799,-0.896612525
5.1,-0.016872585,-1.181285858,-0.723187506
5.11,-0.443755448,-0.872395515,-0.570659697
5.12,-0.464093685,-0.733377457,-0.605355144
5.13,-0.460408568,-0.733198166,-0.622450709
5.14,-0.147310779,-0.438570976,-1.583366036
5.15,0.122066289,-0.392923355,-1.372137547
5.16,0.227039784,-0.397564888,-0.90220505
5.17,0.191521734,-0.42609787,-0.506187141
5.18,0.351467311,-0.519207954,-0.495501846
5.19,0.256786823,-0.523720741,-0.531776547
5.2,0.246594518,-0.542516708,-0.736056864
5.21,0.254579395,-0.542144775,-0.750082254
5.22,0.19201237,-0.331048012,-1.258201122
5.23,-0.029139087,-0.012172699,-1.626439929
5.24,0.035584226,0.986711502,-1.462589979
5.25,-0.112564296,1.631333351,-1.159836173
5.26,-0.046111107,2.21138382,-1.079122186
5.27,-0.038664594,2.212000847,-1.096044421
5.28,0.085219875,2.583712578,-0.987761855
5.29,0.0626674,3.106256485,-0.44043237
5.3,0.196958229,3.466030121,-0.203873336
5.31,0.458561391,3.859339714,-0.121652901
5.32,0.496099234,4.061151505,-0.10420242
5.33,-0.037296832,3.952025414,0.57827723
5.34,-0.001268059,3.95353508,0.573946118
5.35,0.059477568,3.727938652,1.167350769
5.36,0.119892299,3.375683784,1.26855576
5.37,-0.380709052,2.937523842,2.456935406
5.38,0.012964308,2.719484329,2.915855169
5.39,0.591685474,2.306962013,2.983184099
5.4,0.613351107,1.93214798,3.30523634
5.41,-0.492499828,1.365594864,3.022932053
5.42,-1.332460642,0.988224983,2.815896034
5.43,-1.321919441,0.989177704,2.807958603
5.44,-1.447929144,0.262215614,2.616159201
5.45,-1.446735859,0.262732506,2.605645657
5.46,0.140671223,-0.405360222,2.122083426
5.47,0.077864766,-0.154190064,2.467344046
5.48,-0.460690081,0.38739872,2.598661423
5.49,-1.00946641,1.176228523,2.530780315
5.5,-1.023104429,1.177964211,2.485716343
5.51,-1.634510517,1.884037018,2.243445635
5.52,-2.281746149,2.427703857,2.068815947
5.53,-2.605267048,2.468558311,1.881787896
5.54,-2.282001019,1.745313644,1.339215279
5.55,-1.057993054,-0.424419403,0.197853148
5.56,-1.055461407,-0.422804833,0.178422451
5.57,-0.815364778,-1.422251701,-0.178464651
5.58,-0.525902093,-2.996539116,-0.22101897
5.59,-0.069187224,-3.661211967,-0.152391255
5.6,0.569912851,-4.254517078,-0.114363968
5.61,0.719055653,-4.522777081,0.234955251
5.62,0.704866409,-4.523283482,0.232242584
5.63,1.13676548,-4.622308731,0.502557218
5.64,0.965662599,-4.703205585,0.268617868
5.65,0.926376343,-4.832510948,-0.152341962
5.66,0.86004734,-4.998119831,-0.295997918
5.67,0.718418598,-5.13738966,-0.543642998
5.68,0.695623994,-5.14000845,-0.520996034
5.69,0.418860436,-5.046669483,-0.98933363
5.7,0.016676843,-4.64406538,-0.926399887
5.71,-0.32584694,-3.989718914,-0.94718641
5.72,-0.732502937,-3.129314899,-0.850613833
5.73,-0.74931705,-3.130813122,-0.835371494
5.74,-1.197611332,-1.549773216,-0.769624114
5.75,-1.285529852,-0.737413406,-0.539201856
5.76,-1.281488538,-0.739088059,-0.508628666
5.77,-1.491841555,-0.032011032,-0.186085761
5.78,-1.506785512,0.845025063,-0.102494538
5.79,-1.490675449,0.84346199,-0.057901442
5.8,-1.132129788,1.186812401,-0.992599249
5.81,-0.994060397,1.425000191,-1.032906771
5.82,-0.546183944,1.981876373,-0.791737557
5.83,-0.544554591,1.981023788,-0.760513663
5.84,-0.377895474,2.667369843,-0.43793872
5.85,-1.230908871,3.715371132,-0.528228045
5.86,-2.029383183,4.136294365,-0.422891289
5.87,-2.810884476,4.279794693,-0.40915972
5.88,-3.481823206,4.150506973,-1.005271792
5.89,-3.471617699,4.150650024,-0.99507308
5.9,-1.381585121,5.32879734,0.730009019
5.91,0.419529855,5.807509422,1.911328077
5.92,2.179116964,5.703996658,2.589592934
5.93,3.171890497,5.106942177,2.971166849
5.94,3.156787872,5.106164932,3.002287865
5.95,2.70676136,2.881309509,4.007223129
5.96,2.69121027,2.88079834,4.008093357
5.97,1.726417065,-0.342388153,4.048016548
5.98,1.708889842,-0.342774391,4.029399872
5.99,1.930558205,-1.394161224,3.053201199
6,1.77903831,-0.872375488,0.967562974
6.01,1.407526374,-0.017670631,0.606353402
6.02,1.408131838,-0.017603874,0.6018489
6.03,0.732803643,1.761478424,0.119010635
6.04,0.487194479,2.290787697,0.335848391
6.05,0.493146092,2.291028023,0.330123425
6.06,0.531728506,2.221794128,1.181545734
6.07,0.992881417,1.539558411,1.290412903
6.08,1.006820679,0.495679855,1.143713593
6.09,0.621463776,-0.476418495,0.985381305
6.1,0.614624143,-0.476459503,0.978147149
6.11,-0.181154668,-2.193160534,0.572967649
6.12,-0.190632686,-3.217916012,0.38572973
6.13,-0.14482066,-4.029607773,0.497681171
6.14,-0.00402005,-4.661666393,0.593214035
6.15,0.314253807,-5.185939312,0.417187631
6.16,0.321923316,-5.185851574,0.425273538
6.17,0.462140143,-5.575946808,-0.005103394
6.18,0.330424458,-5.32194376,-0.179960266
6.19,0.175454855,-4.861917973,-0.27897352
6.2,-0.047058553,-4.411380291,-0.206324399
6.21,-0.104911685,-4.133102894,-0.176018328
6.22,0.015847325,-3.816520691,-0.572330236
6.23,0.163941354,-3.52393055,-1.217738152
6.24,0.332178235,-3.209840298,-1.010016441
6.25,0.34216702,-2.773683548,-0.173496395
6.26,0.434010804,-2.58890295,0.178169817
6.27,0.43062067,-2.406675816,-0.663171053
6.28,0.377738565,-2.0210495,-1.18157506
6.29,0.379070699,-2.020951271,-1.185070038
6.3,-0.107224762,-0.878751755,-0.878986716
6.31,-0.104209095,-0.8786726,-0.875940263
6.32,0.416615188,0.119647026,-0.186294586
6.33,0.416146845,0.119444847,-0.171849579
6.34,0.444220007,0.674683571,-0.029515721
6.35,-0.082419485,1.359233856,-0.771070063
6.36,-0.472261697,1.924221039,-0.774926484
6.37,-0.576603055,2.360105515,-0.712022662
6.38,-0.396483988,2.628537178,-1.269974947
6.39,-0.108126253,2.504430771,-1.964491844
6.4,-0.200891763,2.492899895,-2.296825647
6.41,-0.516048372,2.668159485,-1.673652887
6.42,-0.441557795,3.516129494,-0.052117944
6.43,0.292439282,4.426095009,0.779254079
6.44,0.372926146,5.13698101,0.960441649
6.45,0.515547991,6.00841713,1.521847963
6.46,0.260640919,6.152224541,2.748318911
6.47,-0.619750738,5.558896065,3.700604916
6.48,-0.811027765,4.180505753,4.080815792
6.49,-0.361147314,2.557641983,4.216307163
6.5,0.142138988,1.216508865,3.897303104
6.51,0.217887923,0.581245422,3.285979986
6.52,-0.126553297,0.589925766,2.409347296
6.53,-0.493325681,0.847619057,1.769533396
6.54,-0.512875915,0.846784592,1.768077016
6.55,-1.72791791,1.937837601,1.534756899
6.56,-2.115942001,2.401844025,1.496674418
6.57,-2.553913832,2.593100548,1.831433415
6.58,-2.60807991,2.549955368,2.033107042
6.59,-2.60707593,2.550021172,2.011823654
6.6,-0.683679581,1.254759789,1.601984262
6.61,-0.687058449,1.254841805,1.572480321
6.62,0.447836787,-0.45935154,0.872069717
6.63,0.439898998,-0.459223747,0.84085846
6.64,0.615581274,-2.075233459,0.425068021
6.65,0.677999735,-2.850801945,0.021204412
6.66,0.608130515,-3.494716644,-0.368566483
6.67,0.783374071,-4.06690073,-0.313809186
6.68,1.132676601,-4.325504303,0.308322549
6.69,1.076654077,-4.483594418,1.013280392
6.7,0.660060763,-4.809344292,0.818191886
6.71,0.309820294,-4.876700878,0.401480615
6.72,0.491648018,-4.905869007,0.229431212
6.73,0.515916407,-5.07408905,-0.156389639
6.74,0.49415642,-5.074783325,-0.145948395
6.75,-0.050472662,-4.802474976,-0.383032471
6.76,0.025903299,-4.534883499,-0.60872072
6.77,-0.194580972,-4.271994114,-0.708445787
6.78,-0.590206325,-3.834204197,-0.64073664
6.79,-0.664319158,-3.252592564,-0.715136826
6.8,-0.673636794,-2.730868816,-0.793827772
6.81,-1.010520816,-2.154155731,-0.749786139
6.82,-1.197344422,-1.56071949,-0.898449779
6.83,-1.181603789,-1.561086655,-0.874108791
6.84,-0.904581308,-0.622799873,-1.018067837
6.85,-0.884855449,-0.622945786,-0.992681086
6.86,-0.714991748,0.59573555,-0.102349713
6.87,-0.810974896,1.103440285,0.024683997
6.88,-0.975719929,1.582480431,-0.580268502
6.89,-0.964995325,1.939434052,-1.011662245
6.9,-0.947430432,1.939729691,-0.978461325
6.91,-0.733659089,2.220163345,-1.024682045
6.92,-1.253863096,3.046421051,-0.46759364
6.93,-1.251145363,3.046552658,-0.453747273
6.94,-2.326484919,2.967588425,-1.95168376
6.95,-2.795077085,3.532670021,-1.539823532
6.96,-2.576179028,4.689296722,-0.028184555
6.97,-1.772409439,5.556443214,1.0925951
6.98,-1.758527279,5.557003021,1.112705708
6.99,2.066849947,6.223180771,2.292836189
7,2.06842351,6.223918915,2.338015079
7.01,2.481385946,4.477255821,2.987649918
7.02,1.982783914,2.855466843,2.561131001
7.03,1.729916811,1.401058197,2.201415062
7.04,2.047298193,0.079997063,2.158440113
7.05,1.782267332,-0.511647224,1.442750692
7.06,1.567646861,-0.19174099,0.481096745
7.07,1.148936391,0.343494415,0.212681577
7.08,0.73452723,1.058301926,0.286103368
7.09,0.518488288,1.538648605,0.595305204
7.1,0.794994593,1.734344482,1.479579568
7.11,0.791892827,1.733753204,1.452894688
7.12,1.23788023,0.605378151,1.683948398
7.13,1.018563986,0.020505905,0.645292997
7.14,0.946766913,-0.475779533,0.83326447
7.15,0.427541077,-1.280971527,0.617951751
7.16,0.405887783,-1.281520844,0.575403154
7.17,-0.484089226,-2.337660789,0.673030615
7.18,-0.496416211,-2.337696075,0.639419138
7.19,-0.902575254,-3.556273937,0.676595211
7.2,-0.883554041,-4.149885178,0.514993072
7.21,-0.53878063,-4.506395817,0.381262839
7.22,-0.400609791,-4.822154045,0.376129389
7.23,-0.084520265,-5.025303841,0.294020504
7.24,0.165848956,-4.984184742,-0.158769891
7.25,0.105249748,-4.706055641,-0.488333583
7.26,0.246807873,-4.291439056,-0.492935777
7.27,0.293140441,-3.824142456,-0.419654131
7.28,0.303536445,-3.82371521,-0.42971164
7.29,0.689433336,-3.464241028,-0.387741864
7.3,0.832216859,-2.664446354,-0.817231357
7.31,0.421907902,-2.19545269,-0.880066872
7.32,0.332326412,-1.839143753,-0.941179693
7.33,0.188907176,-1.568460464,-0.982317448
7.34,0.19619675,-1.56840229,-0.976963997
7.35,0.279359907,-1.192484856,-0.828351498
7.36,-0.01725933,-0.683234215,-0.358777642
7.37,0.170031071,-0.504094124,-0.234447643
7.38,0.086857244,-0.197943687,-0.508327961
7.39,-0.055725411,0.134633064,-1.013549566
7.4,-0.50454247,0.812273026,-1.44148314
7.41,-0.749957383,1.600157738,-1.626345038
7.42,-0.641904116,2.342635155,-1.46248281
7.43,-0.673597217,3.006105423,-0.979687631
7.44,-0.638095498,3.150032997,-0.904148042
7.45,-0.570816159,3.164663315,-1.058890581
7.46,-0.560538173,3.164958,-1.059017539
7.47,-0.510935664,3.385573387,-0.287367553
7.48,-0.060581177,4.360419273,0.994039953
7.49,0.362884283,4.985621452,1.118655562
7.5,0.644990802,5.637096405,0.640056431
7.51,0.655642271,5.637543678,0.653398037
7.52,-0.226355672,5.619120598,2.606647253
7.53,-0.20060572,5.620193481,2.620449543
7.54,-1.016195178,4.510375023,4.699553013
7.55,-0.647926867,0.436184883,4.155031204
7.56,0.497831315,-1.235075951,3.234636784
7.57,0.921683908,-1.973135471,2.865295649
7.58,0.902041614,-1.97409296,2.850414038
7.59,-0.3973414,-0.303889275,0.735805512
7.6,-0.570931256,0.858807564,0.405211628
7.61,-0.591528356,0.857954979,0.37265411
7.62,-1.572292566,3.208603859,0.962183178
7.63,-2.600818634,3.907599449,2.506303072
7.64,-2.907126904,3.984586716,3.375066042
7.65,-2.414018154,3.386743546,2.80417037
7.66,-2.403520823,3.387403488,2.780189514
7.67,-0.119311005,0.543104172,0.181941643
7.68,0.326295257,-0.503351212,-0.143523365
7.69,0.610593081,-1.672103882,-0.03455767
7.7,1.154959202,-2.773890972,-0.124332786
7.71,1.12405467,-2.774340153,-0.145148337
7.72,1.081101418,-4.022037506,-0.2054189
7.73,0.872382402,-4.338192463,-0.446957946
7.74,0.535785437,-4.541694164,-0.271679878
7.75,0.499189377,-4.54151392,-0.294490188
7.76,0.331849575,-4.797437191,0.381132424
7.77,0.278669506,-5.015189648,0.041283906
7.78,-0.12651363,-4.92918539,-0.081488341
7.79,-0.456105143,-4.800135136,-0.121552631
7.8,-0.538326562,-4.589748859,-0.510297
7.81,-0.554250658,-4.59010458,-0.495924115
7.82,-0.380283326,-3.984704018,-1.519346237
7.83,-0.647182584,-3.41036129,-1.325989485
7.84,-1.108844519,-2.843117237,-1.25834167
7.85,-1.107974768,-2.843462467,-1.244444251
7.86,-1.348428726,-1.831158161,-0.673279166
7.87,-0.983730137,-1.338477135,-0.287940174
7.88,-0.773921251,-0.987035751,-0.206481561
7.89,-0.841211736,-0.647536278,0.055186316
7.9,-0.755363882,-0.224154472,-0.093797572
7.91,-0.665042162,0.115572929,-0.452356249
7.92,-0.585946739,0.764328003,-0.817295313
7.93,-0.564377904,0.764413834,-0.778985381
7.94,-0.476572126,1.485328674,-1.168454289
7.95,-0.802089274,2.967698097,-1.494276524
7.96,-0.741685629,3.635958672,-0.136619359
7.97,-1.517724872,3.751016617,0.224467576
7.98,-2.441444397,3.561982155,-0.563836396
7.99,-2.430683136,3.562225342,-0.554462433
8,-3.07830286,2.578678131,-0.923739374
8.01,-2.446974277,3.170938492,-0.840376258
8.02,-0.644509554,4.144447327,-0.440935612
8.03,1.296111107,4.776006699,0.302295595
8.04,1.307397366,4.777938843,0.360218853
8.05,2.676363468,4.825295448,1.675749779
8.06,2.672991514,4.826848984,1.718126059
8.07,2.248199463,3.184924126,4.100762844
8.08,1.970768332,1.918282509,4.157143593
8.09,2.071992874,0.665494919,3.095705032
8.1,1.837910891,-0.383955956,1.440706372
8.11,1.308857083,-0.463720322,-0.079020351
8.12,1.294781804,-0.464428902,-0.090524107
8.13,0.602054,0.674215317,-0.441705287
8.14,0.636863589,1.341072083,0.107646868
8.15,0.628477156,1.33995533,0.078082338
8.16,0.835859895,2.145782471,0.563304544
8.17,1.087899208,2.640435219,1.621232271
8.18,0.853093088,2.368916512,2.114111423
8.19,0.290316254,1.630598068,2.264310598
8.2,0.2762357,1.629887581,2.229355335
8.21,-0.880456805,-0.496742249,1.020398259
8.22,-1.230609417,-1.818662643,0.506456733
8.23,-1.243698835,-3.130856037,0.338815779
8.24,-1.418263435,-3.985628128,0.206697315
8.25,-1.426784515,-4.734913349,-0.096486665
8.26,-1.035042524,-5.299733162,-0.204729036
8.27,-0.729788899,-5.591538429,-0.188938737
8.28,-0.519114733,-5.612672806,-0.153411359
8.29,-0.144677192,-5.521204948,-0.024929859
8.3,0.271683514,-5.257296085,0.18117629
8.31,0.484822124,-5.024497032,0.095204659
8.32,0.797391355,-4.686295986,-0.071827881
8.33,1.010224342,-4.34571743,-0.111017659
8.34,1.070455194,-3.995515347,-0.162672073
8.35,0.977793217,-3.592617512,-0.433226734
8.36,0.860985696,-3.158658504,-0.802069068
8.37,0.716956139,-2.566757679,-1.175147176
8.38,0.362215281,-2.022863388,-1.474164844
8.39,0.386139989,-1.265985489,-1.02975595
8.4,0.365731925,-0.774945259,-0.319022566
8.41,0.07496281,-0.375042915,-1.095582485
8.42,0.173161313,0.027098656,-0.979238033
8.43,0.368660867,0.534545898,-0.108650632
8.44,0.37275669,0.888854981,-0.14673999
8.45,0.467890352,1.075489044,-0.825409472
8.46,0.377934635,1.511031151,-1.098434925
8.47,0.374528229,2.188358307,-1.05698061
8.48,0.057593226,2.870473862,-1.1225003
8.49,-0.253303766,3.497579575,-1.253048539
8.5,-0.127454788,3.818229675,-1.022438526
8.51,-0.301755875,3.801362991,-1.033123016
8.52,-0.594370246,3.75343895,-0.921246707
8.53,-0.668497682,4.160511971,-0.340263069
8.54,-0.114885211,4.912398338,0.434793621
8.55,0.360203952,5.544489861,1.094674587
8.56,0.40727973,5.867658615,1.233761549
8.57,0.411805689,5.867620468,1.252539635
8.58,-0.239417553,4.517442703,2.478237629
8.59,-0.872686625,2.837262154,2.822807789
8.6,-0.848584116,2.838082314,2.850240231
8.61,-0.658954263,-0.153866768,3.041769266
8.62,-0.067131013,-1.07499218,3.257862329
8.63,0.164046347,-1.024435043,3.01426363
8.64,0.188482881,-0.414095879,2.563452721
8.65,-0.4268969,0.519233704,1.994752288
8.66,-1.028651953,1.624931335,1.009860873
8.67,-1.038242817,1.624547005,1.000615001
8.68,-1.580193281,3.091920853,0.65411222
8.69,-1.97503829,3.300032616,1.174497128
8.7,-1.97485745,3.300046921,1.174904108
8.71,-1.446890116,2.110138893,1.177681088
8.72,-0.537588358,0.99908638,0.708820105
8.73,-0.545430899,0.998772621,0.712216556
8.74,-0.038937718,-0.933814049,0.395114303
8.75,0.190519735,-1.880092144,0.334027082
8.76,0.380343199,-2.795421124,0.188357949
8.77,0.516016841,-3.406719208,0.112510316
8.78,0.680593371,-3.982110977,0.075790569
8.79,0.543741465,-4.375499725,0.082218714
8.8,0.420474649,-4.622797966,0.056850381
8.81,0.209584415,-4.762282848,-0.106514871
8.82,0.182308286,-4.762822628,-0.097637147
8.83,0.144114092,-4.820755482,-0.238595694
8.84,0.283815205,-4.871378422,0.747436643
8.85,-0.152999848,-5.048803806,-0.203564137
8.86,-0.171664506,-5.048953533,-0.183898196
8.87,0.097317271,-4.737773895,-0.636533737
8.88,-0.06241788,-4.472039223,-0.90758723
8.89,-0.389650047,-4.03867054,-1.291151285
8.9,-0.402804703,-4.038648605,-1.283129096
8.91,-0.63040489,-3.456787109,-1.082484722
8.92,-0.836804271,-2.906054497,-0.991250694
8.93,-1.398979068,-1.495703697,-1.0475775
8.94,-1.433115602,-0.726984024,-0.920330286
8.95,-1.452070475,0.094526291,-0.594889402
8.96,-1.253229856,0.815651894,-0.375782847
8.97,-1.22272408,0.816319466,-0.34821552
8.98,-1.024992704,1.221879005,-0.178594679
8.99,-0.722878218,2.173719406,-1.167206407
9,-0.520322681,2.385953903,-1.299245954
9.01,-0.498785496,2.387457848,-1.263902903
9.02,-0.596503019,2.965694427,-0.313543946
9.03,-0.874004245,3.10306263,-0.472196668
9.04,-1.520266414,3.007873535,-0.964648366
9.05,-2.646608353,2.826421738,-1.589707732
9.06,-2.633664608,2.82710743,-1.580426693
9.07,-4.001657009,2.83313942,-1.511538029
9.08,-2.858106375,3.615756035,-0.226773262
9.09,-1.096435666,4.47342968,0.446595341
9.1,0.422169566,4.858161926,0.340138614
9.11,1.993829489,4.769193649,0.745703697
9.12,2.685750246,4.078882217,2.215924978
9.13,2.539572239,3.11273098,3.246826887
9.14,2.227182627,1.947297096,3.336775303
9.15,2.101822853,0.728481293,2.60430479
9.16,2.056160688,-0.106155396,1.62310338
9.17,1.419465661,-0.400999069,0.689931989
9.18,0.86702615,-0.110188484,0.048531413
9.19,0.739521623,0.402368546,0.325564385
9.2,0.731280327,1.148828506,0.653991699
9.21,0.998553991,1.957454681,0.93141973
9.22,1.265117049,2.445599556,1.034748316
9.23,1.492870808,2.459994316,0.917764664
9.24,1.287397265,2.381142616,0.705737531
9.25,0.602869511,2.077248573,0.701799631
9.26,0.234844804,1.459456444,1.079935551
9.27,0.21347177,1.456932068,1.04205513
9.28,-0.755018473,-0.805605888,1.338810205
9.29,-1.235712767,-2.128831387,0.165034354
9.3,-1.241256237,-2.129700184,0.147326708
9.31,-1.346827388,-2.905961514,0.134748504
9.32,-1.179047108,-4.857560635,0.133507192
9.33,-0.734263241,-5.48250246,0.064705551
9.34,-0.335745871,-5.803448677,0.511334539
9.35,0.063968033,-5.956989288,0.836563528
9.36,0.245746523,-5.904765606,0.701557994
9.37,0.273281455,-5.63699007,0.448672593
9.38,0.380830646,-5.170300961,0.049390927
9.39,0.508327425,-4.605275154,-0.389572501
9.4,0.595648289,-4.131095409,-0.569226027
9.41,0.519238114,-3.546687126,-0.520588696
9.42,0.449297786,-3.041190147,-0.633905113
9.43,0.465479851,-2.62186861,-0.659820199
9.44,0.479433417,-2.147490501,-0.620254278
9.45,0.482335717,-1.680311203,-0.775124788
9.46,0.489406824,-1.679988861,-0.78759855
9.47,0.447237045,-0.767514229,-1.112470984
9.48,0.287156165,-0.27884388,-0.64165926
9.49,0.430312187,-0.005702019,-0.206955746
9.5,0.507072806,0.166817665,-0.067647666
9.51,0.579508662,0.432605743,-0.478373081
9.52,0.577700138,0.432517052,-0.476525843
9.53,0.198790342,1.64627552,-1.471736193
9.54,0.195274293,1.646115303,-1.468878746
9.55,-0.391239435,3.331467628,-1.498255253
9.56,-0.496978551,3.75022316,-1.458234668
9.57,-0.462198734,3.965456009,-1.133425951
9.58,-0.381599724,3.867107391,-1.254062176
9.59,-0.459151119,3.687466621,-1.11311388
9.6,-0.454264075,3.687748909,-1.124002218
9.61,-0.309020162,4.52150631,1.417423129
9.62,-0.295958608,4.522107124,1.416936278
9.63,0.425167918,4.865117073,2.080561399
9.64,0.022569895,4.767878532,2.486533642
9.65,0.057841271,4.769648552,2.519242287
9.66,-0.896169961,2.363265038,3.600868225
9.67,-0.85744977,2.365797043,3.6388762
9.68,-1.011430979,0.675433159,3.135520697
9.69,-0.213127673,-1.005946159,2.028821468
9.7,0.566372633,-0.885505676,2.905232906
9.71,0.456082374,-0.266486168,2.987476826
9.72,-0.09339112,0.366311073,1.509836555
9.73,-0.116960049,0.364592552,1.477874637
9.74,-0.924684584,2.378905296,0.442574799
9.75,-1.395444155,3.239340782,0.910578251
9.76,-1.634187818,3.602215767,1.629508495
9.77,-1.353704691,3.527331352,2.170328379
9.78,-1.060493231,2.861272812,2.364353895
9.79,-1.07165134,2.860899925,2.347203016
9.8,-0.648475468,1.550635338,1.416970491
9.81,0.626084447,-1.242082596,-0.328372628
9.82,0.600950182,-1.243339539,-0.321943402
9.83,1.024094701,-2.956578732,-0.258794665
9.84,1.075161338,-3.518199921,-0.026082605
9.85,1.0410918,-3.519456863,-0.027583875
9.86,0.530958712,-4.310727119,0.117206216
9.87,0.499548435,-4.311769485,0.123215683
9.88,0.297573894,-4.327101231,0.290368378
9.89,0.150926694,-4.519460678,0.468764901
9.9,0.022434309,-4.65182972,0.348857731
9.91,-0.309785366,-4.930052757,-0.516795397
9.92,-0.269736767,-5.050068855,-0.821790218
9.93,-0.259007454,-4.961622715,-1.103612065
9.94,-0.362870485,-4.791660786,-1.359678626
9.95,-0.365294635,-4.360596657,-1.204843521
9.96,-0.566117764,-3.876804352,-1.121565104
9.97,-0.829056323,-3.27316761,-1.163342237
9.98,-1.188184023,-2.674061298,-1.190872312
9.99,-1.408482671,-2.144074917,-1.191862464
10,-1.501648188,-1.596951485,-1.06623733
10.01,-1.376702309,-0.934553146,-0.881698966
10.02,-1.133629084,-0.384478569,-0.768472076
10.03,-0.842198014,0.199202538,-0.731975913
10.04,-0.81868422,0.201033592,-0.700490832
10.05,-0.361752868,1.543509483,-1.389324546
10.06,-0.316480309,2.34711647,-1.22350347
10.07,-0.36344555,3.147927284,-0.27537638
10.08,-0.545701563,3.761440277,0.322862715
10.09,-0.543665767,3.761815071,0.329313695
10.1,-1.281595469,3.606528282,-0.697625697
10.11,-2.493510723,3.245347023,-1.810527682
10.12,-3.560894489,3.090198517,-2.482004404
10.13,-3.927080631,3.306671143,-2.242587566
10.14,-2.550287962,4.244544029,0.360894531
10.15,-0.610087276,4.952664375,2.092684746
10.16,1.448992968,5.295227051,1.97672689
10.17,1.453172922,5.298402786,2.026177406
10.18,2.635306835,4.504746437,2.093472242
10.19,2.208826542,3.512054443,2.859391928
10.2,1.721111774,2.106889725,2.637017965
10.21,1.690223217,0.833104134,2.059741974
10.22,1.928080559,-0.053841591,1.421051741
10.23,1.643368721,-0.558930397,0.492390007
10.24,1.583751678,-0.19584465,-0.336962163
10.25,1.415299058,0.149550438,-0.223349154
10.26,1.667245626,0.85786438,0.074638307
10.27,1.657765865,1.445893288,0.706212938
10.28,1.461403728,2.091155052,1.459467649
10.29,1.606334209,2.365431786,1.679397821
10.3,1.433000326,2.338184357,1.755065799
10.31,0.501618564,1.995043755,1.504226923
10.32,-0.381779641,1.355384827,0.980266333
10.33,-0.400863379,1.353175163,0.946004033
10.34,-1.683643103,-0.80786705,-0.026350439
10.35,-1.68943572,-0.808772087,-0.043253452
10.36,-1.696344614,-1.903515339,0.24517417
10.37,-1.623081446,-3.9340415,0.149697989
10.38,-1.506073594,-4.659330368,-0.254133105
10.39,-1.48264575,-4.659127235,-0.265372902
10.4,-0.545415342,-5.628813267,-0.055850506
10.41,0.20173955,-5.679367542,0.201987892
10.42,0.221300125,-5.679830074,0.166291565
10.43,0.892894924,-5.254188061,0.146602616
10.44,0.935775757,-4.807058334,0.182724908
10.45,0.60751617,-4.448365688,0.122565001
10.46,0.564921856,-3.924169064,-0.355572522
10.47,0.549633861,-3.438067436,-0.765376329
10.48,0.355804324,-2.903975487,-0.613728225
10.49,0.477566004,-2.276404381,-0.515113771
10.5,0.736086726,-1.739830971,-0.513523936
10.51,0.689114332,-1.236776352,-0.466572851
10.52,0.734530091,-0.827033043,-0.428713381
10.53,0.677290142,-0.307108879,-0.176947832
10.54,0.557857513,-0.076913834,0.198790863
10.55,0.52957356,0.016862869,0.352230251
10.56,0.66305244,0.029172897,-0.473134488
10.57,0.667528689,0.029442787,-0.461361885
10.58,0.466053784,1.016184807,-1.876811743
10.59,0.399257302,1.840018272,-0.773939669
10.6,-0.159058124,2.43153286,-1.195592046
10.61,-0.271859944,2.948843956,-1.384353638
10.62,-0.294466913,3.157073975,-1.127421498
10.63,-0.163982749,3.104272842,-1.089608192
10.64,-0.501696706,2.642086029,-1.743386269
10.65,-0.497772515,2.642266273,-1.74846065
10.66,-0.851244748,2.738441467,0.002847277
10.67,-0.021060228,3.730280876,1.694823146
10.68,0.626595497,4.446610451,2.455421686
10.69,0.324845851,4.801535606,2.375528336
10.7,-0.170684934,4.381224632,2.936704636
10.71,-0.147605956,4.38279438,2.960184336
10.72,-0.503310144,2.402057648,4.946815968
10.73,-0.27557528,1.539234161,4.85690403
10.74,-0.262115061,1.540184975,4.863511562
10.75,-0.144369781,1.006724358,2.594082355
10.76,-0.741844952,1.306174278,1.427583933
10.77,-0.742316842,1.306195259,1.431427956
10.78,-1.502788782,1.734610558,0.548074842
10.79,-1.995678306,2.201389313,0.24791795
10.8,-2.065346003,3.010647774,1.32829535
10.81,-1.553214073,2.783277512,1.834888101
10.82,-1.089006543,2.345379829,1.816549301
10.83,-0.629263699,1.699440002,1.064935923
10.84,-0.174116552,0.9459095,0.287776858
10.85,0.109864652,0.041358948,-0.147445828
10.86,0.567464292,-0.904296875,-0.224885672
10.87,0.78681761,-1.900857449,0.041212589
10.88,0.832723022,-2.598750114,0.288421333
10.89,1.010804534,-3.383295536,0.318692565
10.9,0.845212758,-3.818591595,0.393935442
10.91,0.815832019,-3.820421696,0.385718942
10.92,0.110733986,-4.274543762,0.281798333
10.93,0.085359633,-4.275924683,0.285116941
10.94,-0.191096306,-4.674495697,-0.259674907
10.95,-0.211423039,-4.675402641,-0.245053321
10.96,-0.231813282,-4.843719006,-0.397758097
10.97,-0.056941271,-4.717468739,-0.329051435
10.98,0.197102964,-4.509765148,-0.157160312
10.99,0.460540921,-4.151174068,-0.377583623
11,0.443736076,-4.151669979,-0.362825811
11.01,0.067252964,-3.431212425,-1.1239959
11.02,-0.368256062,-2.8637743,-1.612061501
11.03,-0.37265563,-2.863459587,-1.588473916
11.04,-0.945378542,-1.974674225,-0.289114237
11.05,-1.514898181,-1.650844574,-1.138200521
11.06,-1.505371451,-1.240240097,-1.587519407
11.07,-1.289239883,-0.754864693,-1.163081765
11.08,-0.858469248,-0.17840004,-0.633813083
11.09,-0.844262719,-0.17663765,-0.603758097
11.1,-0.814048946,0.897833824,-0.69808954
11.11,-0.904454231,1.421450615,-0.603494525
11.12,-1.033208847,1.939929962,-0.412903249
11.13,-1.163054466,2.378866196,-0.278367698
11.14,-1.157665491,2.3793993,-0.27282247
11.15,-1.613434434,2.875894547,-0.209784299
11.16,-2.103001595,2.682930946,-1.109516859
11.17,-2.740953445,2.436328888,-1.714498758
11.18,-3.627384424,2.135106087,-1.356773734
11.19,-3.510859489,2.146956444,-1.312506914
11.2,-1.47644484,3.832540512,0.519991577
11.21,0.985247195,4.37156868,1.312454224
11.22,3.137240648,4.675473213,1.505889297
11.23,3.929841042,4.456858635,2.066426754
11.24,3.625772476,3.768992424,3.351886034
11.25,3.204478741,2.88070488,4.099747181
11.26,2.652170658,1.90209198,3.487576485
11.27,2.640179873,1.20768261,2.224789858
11.28,2.579184055,0.703411102,0.709072471
11.29,1.719424725,0.642711639,-0.117374718
11.3,1.695711136,0.636771202,-0.157411873
11.31,1.063006997,1.434090614,0.743673682
11.32,1.104118824,2.154604912,1.250826597
11.33,1.536332488,2.631732941,1.146849513
11.34,1.904399991,2.93713665,0.962241769
11.35,1.711161852,3.087204933,1.134122252
11.36,1.155939341,2.928254128,1.452979803
11.37,0.530603528,2.374353409,1.561270237
11.38,-0.016570926,1.488059998,1.48695612
11.39,-0.048288405,1.483667374,1.434915066
11.4,-0.914805412,-0.999932289,0.49331823
11.41,-0.926230609,-1.001468658,0.468921244
11.42,-0.949669898,-3.396206379,0.20297572
11.43,-0.655950904,-4.530861855,-0.055594862
11.44,-0.343777299,-5.291563511,-0.196422726
11.45,-0.125223756,-5.89649868,-0.290621668
11.46,0.041453779,-6.137570381,-0.526138306
11.47,0.58864367,-5.919195175,-0.166395098
11.48,1.08591187,-5.696346283,0.632594526
11.49,1.296045899,-5.315499783,1.400363564
11.5,0.872285247,-4.970453739,0.738267303
11.51,0.884124458,-4.96982336,0.716337979
11.52,0.675386012,-3.896284103,-0.215369642
11.53,0.466230691,-3.641816616,-0.56286937
11.54,0.475226343,-3.641252995,-0.585767388
11.55,0.580707669,-2.726344585,-0.80304724
11.56,0.668797016,-2.3671422,-0.627895713
11.57,0.774716497,-2.094379902,-0.848383069
11.58,0.868530452,-1.644849777,-0.779907346
11.59,0.867729247,-1.066450119,-0.453526884
11.6,0.819122136,-0.423537254,-0.290362418
11.61,0.616997957,0.331944466,-0.22366482
11.62,0.489804924,1.06357193,-0.301850379
11.63,0.413876116,1.74978447,-0.48135218
11.64,0.366397977,2.395355225,-0.680210412
11.65,0.17992574,3.033841133,-0.719675541
11.66,0.151777685,3.636599541,-0.452302545
11.67,-0.05359745,3.801411629,-0.332648128
11.68,0.012871563,3.482830048,-0.822660446
11.69,-0.062040865,2.970498085,-1.335766554
11.7,-0.165611684,2.549500465,-1.399574161
11.71,-0.344037235,2.935729027,-0.439265162
11.72,-0.329842269,2.936797142,-0.421224475
11.73,0.053460479,4.082417488,0.630067825
11.74,0.257122099,4.962327003,0.050997637
11.75,-0.449234068,5.157917023,1.247147679
11.76,-1.14051199,4.272415161,2.931106091
11.77,-1.105613708,4.275634766,2.949127197
11.78,-0.641308367,1.175732613,3.669359207
11.79,0.189981163,-0.148322105,3.409692049
11.8,0.956891894,-0.827078819,3.465896845
11.81,1.29418838,-0.743569374,3.313281059
11.82,1.276799083,-0.745500565,3.293609858
11.83,0.390233278,0.84885025,2.294199228
11.84,0.045706868,1.614561081,1.115219951
11.85,-0.694983542,2.638969421,0.425636292
11.86,-0.719111264,2.636865616,0.397618175
11.87,-1.687659264,3.320565224,1.010326624
11.88,-2.210841179,3.509143829,2.219034195
11.89,-1.550655127,2.684849739,1.766130686
11.9,-0.896373391,1.656778336,1.438859701
11.91,-0.409141302,0.539820671,0.780333519
11.92,0.14018327,-0.601394653,0.33893466
11.93,0.822732985,-1.565907478,0.618459225
11.94,1.625456333,-2.698291302,1.147838235
11.95,1.614084959,-3.689468861,0.717351258
11.96,1.481230736,-4.290184498,-0.01596351
11.97,1.532352805,-4.433384418,-0.215196341
11.98,1.179610729,-4.629066944,-0.487094373
11.99,0.816741347,-4.659264088,-0.782227814
12,0.54152894,-4.624643803,-0.39301765
12.01,0.437210619,-4.537157536,0.135585785
12.02,0.294706047,-4.609908581,0.255627066
12.03,0.263143063,-4.61077261,0.246145368
12.04,-0.390060097,-4.367357731,-0.059149995
12.05,-0.499691486,-4.262807846,-0.575735927
12.06,-0.523988009,-4.263622284,-0.570627153
12.07,-0.622759104,-3.780737877,-1.20953393
12.08,-0.758544564,-3.35281992,-1.446027994
12.09,-1.017689347,-2.900918961,-1.689882994
12.1,-1.265319347,-2.396233559,-1.533731937
12.11,-1.182484746,-1.965624332,-1.157743454
12.12,-0.952701092,-1.412674904,-0.818779945
12.13,-0.878966093,-0.916944504,-0.583517194
12.14,-0.854971767,-0.916624069,-0.544542253
12.15,-0.653611779,-0.506724358,-0.410195917
12.16,-0.015294671,0.585506439,-0.484054148
12.17,-0.00235644,0.585976601,-0.457859844
12.18,-0.628551841,2.09722805,-0.672926545
12.19,-0.622016192,2.097558975,-0.656107485
12.2,-0.78414011,3.062540054,-0.233257562
12.21,-1.198333502,3.340137482,-0.018221706
12.22,-2.132616043,3.277580261,-0.37825504
12.23,-2.13662076,3.277396202,-0.383459151
12.24,-3.961728334,2.817826271,-2.219368458
12.25,-4.062328815,2.868792534,-2.286420345
12.26,-2.941544294,3.858952522,-1.210890889
12.27,-0.597586155,4.480840683,0.048534602
12.28,-0.578034878,4.482463837,0.094936877
12.29,1.560209036,4.902664185,0.377308369
12.3,2.605582952,5.030552864,1.687628508
12.31,2.321569681,4.538131714,2.849728107
12.32,1.708662033,3.140369415,3.685628891
12.33,1.361778855,1.722985268,3.805642605
12.34,1.349611759,1.72248745,3.807357311
12.35,1.546097636,0.050377846,3.213026762
12.36,1.486778498,-1.578741074,0.540260315
12.37,1.476704121,-1.579449654,0.530202091
12.38,0.509692907,0.057910919,-0.949957013
12.39,0.812926054,1.072623253,0.160886169
12.4,1.139448643,1.735251427,0.430967122
12.41,1.119206786,2.318985939,0.469267845
12.42,1.190475821,2.567588806,1.167901754
12.43,1.181692123,2.33477211,2.121536732
12.44,0.772935271,1.852765083,2.5706532
12.45,0.335434407,1.258167267,2.290203333
12.46,-0.053085774,0.599112511,1.746053219
12.47,-0.655691147,-0.495444298,1.071643114
12.48,-0.660127044,-0.495547295,1.043662548
12.49,-1.329032898,-2.681385517,-0.142236099
12.5,-1.321273565,-2.681041241,-0.151735395
12.51,-0.653580546,-4.461855888,-0.382383287
12.52,-0.438431084,-4.985488892,-0.184362233
12.53,-0.21665889,-5.331705093,-0.300517023
12.54,-0.194063038,-5.33063221,-0.308605492
12.55,0.34282276,-5.298362255,-0.189895198
12.56,0.699627876,-4.973968029,-0.06232582
12.57,0.876248539,-4.584977627,0.189078689
12.58,1.080205679,-4.061854362,0.176699475
12.59,1.127593756,-3.591476917,0.090936676
12.6,1.241128922,-3.219333649,-0.178316444
12.61,0.932672977,-2.833048344,-0.567081273
12.62,0.829719782,-2.49960804,-0.908856392
12.63,0.622930765,-2.202319622,-0.900087833
12.64,0.618616819,-2.202026844,-0.917298913
12.65,0.442179918,-1.859453678,-0.728594005
12.66,0.183349013,-0.990367889,-0.794024468
12.67,0.05578962,-0.636209488,-0.528335273
12.68,0.193595707,-0.466533661,-0.360678345
12.69,0.39350605,-0.351989746,-0.382063419
12.7,0.455673635,-0.122615814,-0.615650535
12.71,0.215327084,0.358180046,-0.97394681
12.72,0.214372873,0.357759476,-0.960196137
12.73,-0.071640015,1.147515297,-1.12090838
12.74,-0.171539426,1.987553596,-1.186545253
12.75,-0.099852979,2.832377434,-1.22972095
12.76,-0.747339726,3.610340118,-0.893527627
12.77,-0.747194588,3.610328674,-0.893258333
12.78,-0.37694633,3.17935276,-0.966973901
12.79,-0.189179301,3.682177544,-0.486595929
12.8,0.566632211,4.560883522,0.297534347
12.81,1.147339225,5.121027946,0.745462179
12.82,0.825443149,5.527961731,1.26221478
12.83,-0.149281442,5.533293724,2.319703102
12.84,-0.965659797,4.720285416,4.07734251
12.85,-0.940057337,4.721512794,4.091711998
12.86,-1.846125126,1.533453941,3.514382362
12.87,-1.075780392,-0.136876106,2.244799614
12.88,0.302373111,-1.67612648,2.208686829
12.89,0.290549696,-1.67693615,2.212686062
12.9,1.416352272,-1.903211594,1.734084606
12.91,1.391001105,-1.904504776,1.713641405
12.92,-0.092991352,0.069818497,0.881087065
12.93,-0.115263522,0.069057465,0.853558362
12.94,-1.070696592,1.378294945,0.027473852
12.95,-3.023715019,3.3633461,0.788003027
12.96,-2.829416513,3.634535789,1.798400879
12.97,-2.832270622,3.635415077,1.763137221
12.98,-1.286534309,2.522934914,2.701094151
12.99,-0.560396791,1.489271164,2.207424879
13,-0.568971276,1.489431381,2.19215703
13.01,0.569086313,-0.876731873,0.599968731
13.02,1.104767323,-1.684435844,0.113728315
13.03,1.073226094,-1.685443878,0.104664028
13.04,1.392776489,-2.419156075,-0.303165883
13.05,0.648572743,-3.241325855,-0.120465726
13.06,0.617967308,-3.242197514,-0.123680651
13.07,0.04605718,-3.552182674,-0.137227833
13.08,0.021966115,-3.553500652,-0.121388644
13.09,-0.095694795,-4.096049309,-0.419416279
13.1,-0.034201339,-4.454290867,-0.654510558
13.11,-0.053244039,-4.455724239,-0.623077154
13.12,0.043484107,-4.758716106,-0.986181021
13.13,0.025699586,-4.759851933,-0.955386579
13.14,-0.038591817,-4.693793297,-0.900671721
13.15,0.066059671,-4.510299206,-1.048082232
13.16,-0.083597444,-3.816686153,-1.058472037
13.17,-0.09304814,-3.817234516,-1.026244402
13.18,-0.46148622,-3.345946789,-1.012913585
13.19,-0.499207228,-2.608778,-1.105784059
13.2,-0.496465236,-2.608862877,-1.071577191
13.21,-0.926375389,-1.445168495,-0.352699697
13.22,-0.91279459,-0.91569519,-0.469986707
13.23,-0.893037438,-0.120117188,-0.732653499
13.24,-1.061967373,0.685573578,-0.819512546
13.25,-1.228079081,1.360090256,-0.719249964
13.26,-0.893612266,1.932020187,-0.827555358
13.27,-0.531862378,1.982146263,-1.012190819
13.28,-0.313490748,2.254764557,-1.009348989
13.29,-0.310941368,2.256254196,-0.973727346
13.3,-0.650206804,2.896604538,-0.647951126
13.31,-0.654646277,2.897116661,-0.63370651
13.32,-1.689355731,2.883014679,-0.376462877
13.33,-3.075294733,2.689662933,-0.992445946
13.34,-4.130794525,3.344882965,-1.698127866
13.35,-4.093457222,3.347925186,-1.662629128
13.36,-0.339651376,5.410770416,-0.696954966
13.37,1.392520905,5.812020302,-0.556664527
13.38,1.848388433,5.832120895,0.594932437
13.39,1.975733042,5.326936722,2.815273285
13.4,1.822097898,4.179038048,4.399107933
13.41,1.776794195,2.249724388,5.291716576
13.42,2.23831296,0.573234558,4.924324512
13.43,2.749954224,-1.295441628,3.216594934
13.44,2.384541988,-2.213214874,1.005062938
13.45,1.397247791,-1.868577957,-0.792481959
13.46,0.955713511,-1.150488853,-1.909086466
13.47,1.095933676,0.003004074,-1.374989033
13.48,1.09956634,0.001605988,-1.395981073
13.49,1.276875973,2.12799263,0.57811898
13.5,0.815033793,3.159890175,1.360807419
13.51,0.574357629,3.846990585,1.677774191
13.52,0.387901515,3.753505707,2.006124735
13.53,0.35796684,3.047032356,2.47346735
13.54,0.36214909,1.756357193,2.154014826
13.55,0.149492577,0.375078201,1.50871706
13.56,0.140354589,0.373496056,1.476020098
13.57,-0.094558686,-0.951332092,0.380920827
13.58,-0.909734011,-2.971979618,-0.865022659
13.59,-0.892272294,-2.971428394,-0.865683675
13.6,-0.877775788,-4.534125805,-0.367545843
13.61,-0.875268161,-4.92356205,0.121370897
13.62,-0.263132066,-5.22436142,0.244454831
13.63,0.305511773,-5.458224297,0.205069289
13.64,0.489376485,-5.404859543,0.200465649
13.65,0.537584007,-5.169432163,0.042050987
13.66,0.535530746,-4.843008518,-0.215275645
13.67,0.444565743,-4.468705177,-0.55073601
13.68,0.464773506,-4.467973709,-0.562458813
13.69,0.584470511,-4.098770142,-0.795906544
13.7,0.645231545,-3.703477383,-0.529374242
13.71,0.416763902,-2.680891991,-0.53121388
13.72,0.4853414,-2.283205032,-0.471247435
13.73,0.596600175,-1.921504498,-0.515540123
13.74,0.417907715,-1.365940094,-0.525305808
13.75,0.399321467,-0.855828285,-0.221103773
13.76,0.476069987,-0.285865784,0.249486625
13.77,0.363249958,0.063829422,0.65184474
13.78,-0.00794059,0.372899056,0.159048528
13.79,-0.003494084,0.373366356,0.168184057
13.8,-0.163802266,0.924655914,-0.630079627
13.81,-0.294089437,2.048246384,-1.22076571
13.82,-0.19205451,2.628472328,-1.397964001
13.83,-0.105949938,2.974018097,-0.995759726
13.84,-0.104298472,2.974586487,-0.980719328
13.85,-0.348517537,2.680459023,-0.18611142
13.86,-0.17871201,2.450900078,-0.171943367
13.87,-0.174047411,2.451560974,-0.161289305
13.88,0.46769166,4.0112257,0.529321551
13.89,0.722726703,4.905637741,-0.109931827
13.9,0.673335671,5.752518654,-0.062142581
13.91,0.688365936,5.754580498,-0.037458599
13.92,-1.490941763,5.364479065,2.723720551
13.93,-1.628803849,3.693763733,3.665057898
13.94,-1.327910423,1.501159668,3.316844225
13.95,-1.309744596,1.504043579,3.345948935
13.96,-0.687519491,-0.100231171,2.780148983
13.97,-0.147882521,-1.353528023,2.381177187
13.98,0.280770421,-1.651075363,1.765631914
13.99,-0.275957644,-0.879621506,1.591057062
14,-0.759044409,0.113785744,1.403638482
14.01,-0.753493369,1.107074738,1.149162531
14.02,-1.586615324,2.450311661,1.011830568
14.03,-2.908556938,3.478481293,1.53242445
14.04,-3.402933598,3.810915947,1.843103886
14.05,-2.924359322,3.219519615,1.816146731
14.06,-1.907244921,1.87871933,1.506691098
14.07,-1.901234865,1.878474236,1.483631849
14.08,-0.26582551,-0.439721108,0.603090942
14.09,-0.019200444,-1.283335686,0.717965007
14.1,0.510074139,-2.0172925,0.649645209
14.11,0.784164846,-2.586456299,0.590760648
14.12,0.764755189,-2.588359833,0.568961859
14.13,1.063090086,-2.954280853,0.419812828
14.14,1.235702872,-3.20284605,0.375964999
14.15,1.003679276,-3.23797369,0.44887799
14.16,0.789640665,-3.007134914,0.72788614
14.17,0.11237818,-2.701865673,0.701298714
14.18,-0.008077681,-2.726804733,0.361603051
14.19,-0.225059152,-2.785233498,-0.072916269
14.2,-0.334399819,-2.747836113,-0.777858317
14.21,-0.284322262,-2.628994942,-1.048334599
14.22,0.004288733,-2.38088274,-0.293080986
14.23,-0.016348422,-2.381831646,0.288359672
14.24,-0.203018427,-2.442479134,-0.024863005
14.25,-0.227907807,-2.320875645,-0.048905447
14.26,-0.240160137,-2.32118845,-0.037247658
14.27,-0.281420022,-2.407468319,0.424535304
14.28,-0.342424512,-2.302048683,0.598694265
14.29,-0.115151942,-2.218132496,0.947073877
14.3,0.185216203,-2.376070023,0.895561457
14.31,0.179503098,-2.375852585,0.91136837
14.32,-0.392648876,-1.628279686,-0.622926295
14.33,-0.387681902,-1.627169609,-0.596332431
14.34,-0.918085098,-0.170198441,-1.495389462
14.35,-0.864454508,0.702731133,-1.128536701
14.36,-0.853003383,0.704229355,-1.104499459
14.37,-0.770031691,1.728211403,-0.511552274
14.38,-1.151469707,1.966943741,-0.218141586
14.39,-1.654226422,1.697823524,0.352108896
14.4,-1.646501303,1.698832512,0.364649952
14.41,-1.464661717,0.933382988,0.558679164
14.42,-1.263374805,0.232836723,0.215491206
14.43,-1.137061596,0.119550705,-0.583910704
14.44,-0.203653932,1.920309067,-0.882958293
14.45,-0.191325367,1.923256874,-0.845301569
14.46,0.322331607,4.492880821,-0.447227418
14.47,0.333006144,4.495721817,-0.414492011
14.48,-0.036781132,5.479984283,0.424624711
14.49,0.255606175,6.006410599,3.261599302
14.5,1.105283618,5.447366714,4.101418495
14.51,1.120602489,4.361359596,3.22189188
14.52,1.022653103,2.825424194,1.220253944
14.53,0.792059302,1.042951584,-0.113428116
14.54,0.26947248,-0.205955505,-0.359676302
14.55,0.054810762,-1.422837257,0.234743774
14.56,0.604792595,-2.058860302,1.363532662
14.57,1.299575329,-2.030235291,2.027735472
14.58,1.791328549,-1.405844688,2.060714722
14.59,1.602005243,-0.34102726,1.744355202
14.6,1.351190329,0.663994789,1.788178325
14.61,1.607948184,1.433964729,1.509729266
14.62,1.594647527,1.430383682,1.465062737
14.63,0.44175601,2.779492378,1.791380167
14.64,0.379806757,2.586707115,1.848093271
14.65,0.360836536,2.583055496,1.791773438
14.66,0.354787827,1.825431824,1.854898334
14.67,0.039026171,0.85535717,1.650461793
14.68,0.133412227,-0.949765205,1.861551285
14.69,0.274743199,-1.957129002,1.466670632
14.7,0.230144545,-2.691020489,0.552310824
14.71,0.224776804,-2.897668362,0.273113906
14.72,0.454524815,-2.843099594,0.294237107
14.73,0.450207114,-2.843531609,0.280226171
14.74,0.413122773,-2.652311325,-0.213851318
14.75,0.203845352,-2.168970108,-0.270598471
14.76,0.008835405,-1.467839241,0.457071006
14.77,0.077811405,-1.001365662,1.560021639
14.78,0.271437347,-0.882041931,1.59157908
14.79,0.338799834,-0.935064316,1.630570173
14.8,0.713110805,-1.062324524,1.329368472
14.81,0.703300953,-1.062697411,1.307810187
14.82,0.970083356,-1.264241219,1.206423521
14.83,1.243591785,-1.451375008,1.538081646
14.84,1.120765209,-1.351114273,1.623265743
14.85,0.914046407,-1.022812843,1.726633191
14.86,0.408558846,-0.531845093,1.359957457
14.87,0.333979666,-0.183209419,0.471799374
14.88,0.214170352,0.294500351,-0.519064844
14.89,-0.272875577,0.818764687,-0.825343907
14.9,-0.7803967,1.289242744,-0.653089762
14.91,-0.718913138,1.469304085,-0.474039435
14.92,-0.563970149,1.375998497,0.00438869
14.93,-0.484859675,1.138583183,-0.075046688
14.94,-0.284850895,0.874346733,-0.387635231
14.95,-0.131511211,0.504396439,-0.640309691
14.96,-0.079195924,0.292427063,-0.735439956
14.97,-0.219080195,0.164510727,-0.728788734
14.98,-0.870262444,0.213975906,-0.573250711
14.99,-1.384204865,0.40244484,-0.320805252
15,-1.655813575,0.346754074,-0.056186438
15.01,-1.340830803,0.14743042,-0.041362703
15.02,-1.308148146,0.146850586,-0.030506492
15.03,-0.432993293,-0.459348679,-0.014780253
15.04,-0.227488697,-0.746936798,0.118884027
15.05,-0.073609218,-0.912261963,-0.128001228
15.06,-0.052583091,-0.912390709,-0.1203935
15.07,0.071824953,-0.960404396,-0.544835985
15.08,-0.140937656,-0.510380745,-0.809124827
15.09,-0.124289751,-0.510445595,-0.800820768
15.1,-0.564994097,-0.043590546,-0.383312464
15.11,-0.440226972,0.02348423,-0.082653552
15.12,-0.429189563,0.023556709,-0.078582048
15.13,-0.61858362,0.092936516,-0.196318775
15.14,-0.848550975,0.028185844,-0.056326836
15.15,-0.830778003,0.028157234,-0.04157123
15.16,-0.974406004,-0.170623779,-1.059926271
15.17,-1.047720432,-0.230437279,-1.070535421
15.18,-0.624731958,-0.172709465,-0.504040659
15.19,-0.239738345,-0.083685875,-0.424632251
15.2,-0.106119812,0.029240608,-0.322937667
15.21,-0.002718627,0.14213562,-0.016882673
15.22,-0.291569769,0.101747513,0.294403315
15.23,-0.370571852,0.16434288,0.484927833
15.24,-0.364151657,0.042536736,0.453575164
15.25,-0.153882146,0.011646271,-0.00121171
15.26,-0.14986968,0.011792183,0.001524985
15.27,-0.190065771,0.011884689,-0.492353469
15.28,-0.309468925,0.007211685,-0.410627365
15.29,-0.332232326,-0.10036087,-0.125656068
15.3,-0.170292109,-0.234197617,0.010289297
15.31,-0.087968886,-0.296265602,0.007830635
15.32,-0.118506461,-0.363123894,-0.03142909
15.33,0.025584817,-0.322273254,-0.220399946
15.34,0.189305604,-0.243213654,-0.467246473
15.35,0.23365584,-0.123560906,-0.353533447
15.36,0.23104915,-0.123651505,-0.355372727
15.37,0.043926954,0.125275612,0.313780069
15.38,0.051643014,0.115551949,0.172967672
15.39,-0.143807828,0.103386879,-0.112310983
15.4,-0.162525177,0.038557053,-0.361058235
15.41,-0.163164347,0.038375854,-0.348111063
15.42,-0.274720699,-0.153298378,-0.673802614
15.43,-0.139283896,-0.182102203,-0.542355895
15.44,0.009633571,-0.172591209,-0.355788469
15.45,0.064031154,0.004475594,-0.114711553
15.46,0.063079983,0.004413605,-0.109198734
15.47,-0.098846763,0.162445068,0.13043873
15.48,-0.290979892,0.287014961,0.103680298
15.49,-0.289127529,0.287077904,0.106802382
15.5,-0.238977045,0.184199333,-0.216486275
15.51,-0.219198793,0.153180122,-0.366909087
15.52,-0.038407028,-0.050204277,-0.223580688
15.53,0.167094111,-0.126745224,-0.183348045
15.54,0.168224871,-0.162629128,-0.080949746
15.55,0.16935125,-0.162595749,-0.077218518
15.56,0.139118671,-0.064393997,0.329891712
15.57,0.106629372,-0.10505867,0.320197672
15.58,0.108160228,-0.104995728,0.323723406
15.59,-0.349062592,-0.035455704,-0.430327356
15.6,-0.323721767,0.017375946,-0.674358308
15.61,-0.181903273,-0.006427765,-0.235706195
15.62,-0.180311054,-0.00636673,-0.232953936
15.63,-0.354209781,0.008051872,0.091537081
15.64,-0.359134615,-0.078039169,-0.174440116
15.65,0.160387039,-0.130616188,-0.074754834
15.66,0.023850232,-0.058785439,-0.034983672
15.67,-0.000805825,0.020311356,-0.342994392
15.68,-0.020578831,0.123369217,-0.627202153
15.69,-0.041626066,0.02044487,-0.409102172
15.7,0.059227407,0.058663368,-0.049338035
15.71,-0.044905752,0.065659523,0.529097259
15.72,-0.188319564,0.046383858,0.641087055
15.73,-0.153022111,0.032002449,0.177592844
15.74,-0.087582499,0.029642105,-0.364893764
15.75,-0.086025774,0.029720306,-0.356276125
15.76,-0.193339139,-0.053902626,-0.882249951
15.77,-0.190782756,-0.053749084,-0.871170402
15.78,-0.080501348,-0.051184654,-0.8306337
15.79,-0.021042198,-0.106102943,-0.525793195
15.8,-0.026407748,-0.122704506,-0.230387151
15.81,-0.135976464,0.001870155,0.239815742
15.82,-0.377560377,0.040349007,0.560540378
15.83,-0.109519929,0.028559685,0.078104384
15.84,0.074967474,-0.014398575,-0.55871129
15.85,-0.171993762,0.026449203,-0.831968725
15.86,-0.170313567,0.026697159,-0.818764687
15.87,-0.093892336,0.053278923,-0.486218989
15.88,-0.103606254,0.067892075,-0.286059558
15.89,-0.100235879,0.068171501,-0.27797246
15.9,-0.061607897,-0.000906944,0.115680784
15.91,-0.056434423,-0.000564575,0.121463567
15.92,-0.497585714,0.031021118,0.116553359
15.93,-0.336652637,0.033953667,-0.140946046
15.94,-0.058209062,-0.018265724,-0.443669856
15.95,0.050718635,-0.113700867,-0.426723421
15.96,0.108509988,-0.142172813,-0.391912401
15.97,0.019983619,-0.113201141,-0.353559017
15.98,-0.075162172,-0.053074837,-0.319757998
15.99,0.098566651,-0.026433945,-0.379798114
16,0.165464968,-0.007035255,-0.434343755
16.01,0.018620253,0.041069984,-0.179083854
16.02,-0.00848639,0.213654518,0.342283666
16.03,-0.110868633,0.25440979,0.632845223
16.04,0.014113843,0.12758255,0.3520616
16.05,0.042690128,0.017642975,-0.041843921
16.06,-0.253382027,-0.013159752,-0.701612175
16.07,-0.458175063,0.035248756,-1.022284746
16.08,-0.268555343,0.031092644,-0.637063265
16.09,0.132561624,0.002807617,0.305272162
16.1,0.300127417,-0.133674622,0.309621513
16.11,0.128286392,-0.143215179,0.183367148
16.12,-0.062003076,-0.039979935,0.248249188
16.13,-0.333601713,0.025060654,0.707023025
16.14,-0.326833367,0.025436401,0.706767857
16.15,0.252123326,-0.048488617,-0.215608239
16.16,0.250907511,-0.048475266,-0.213157386
16.17,0.043331563,0.03758812,-0.1806674
16.18,0.041471601,0.037385941,-0.183898777
16.19,0.051346779,0.087446213,-0.503140509
16.2,-0.002487779,0.060985565,-0.397340119
16.21,0.256579161,0.089709282,-0.30044204
16.22,0.11887297,-0.027574539,0.182075083
16.23,-0.152813792,-0.013091087,0.521616936
16.24,-0.316701174,-0.039156914,0.592813194
16.25,-0.31043464,-0.038826942,0.592181087
16.26,0.129396349,-0.019414902,0.192883998
16.27,0.517546833,0.026265144,0.067004576
16.28,0.536661685,0.062328339,0.292345733
16.29,0.274614006,0.139147759,0.416518211
16.3,-0.010424733,0.177917481,0.393725663
16.31,-0.215977013,0.118756294,0.233999699
16.32,-0.38564688,0.143630028,-0.318293273
16.33,-0.84548527,0.259752274,-0.428448677
16.34,-1.126921177,0.227443695,-0.61565733
16.35,-0.902329147,0.163819313,-0.428514928
16.36,-0.429337859,0.111790657,0.246901482
16.37,0.029289305,0.011411667,0.794166744
16.38,0.316772044,-0.012700081,0.929332495
16.39,0.321374416,-0.048440933,0.902356446
16.4,0.287747175,-0.081532478,0.725342393
16.41,0.13319099,-0.145605087,0.237263218
16.42,0.108848691,-0.207030296,-0.566461265
16.43,0.05273962,-0.227599144,-1.122056842
16.44,-0.260131419,-0.200327873,-1.245154262
16.45,-0.512169004,-0.149596214,-1.01158452
16.46,-0.049496472,-0.115852356,-0.483466029
16.47,0.532806754,-0.142485619,0.535494089
16.48,0.538962722,-0.12887001,1.414434791
16.49,0.442977428,-0.05509758,1.697280407
16.5,0.168420792,0.052887917,1.384314775
16.51,0.176570535,0.053413391,1.381357431
16.52,-0.568412006,0.186023712,0.204845607
16.53,-0.751621604,0.139540672,-0.389218122
16.54,-0.734985948,0.1411829,-0.378039748
16.55,-0.738360941,0.056631088,-1.643796086
16.56,-0.727585852,0.057729721,-1.637179732
16.57,-0.470639527,-0.149442673,-2.107061863
16.58,0.340639681,-0.289056778,-1.221583724
16.59,0.59102273,-0.46938324,0.583744645
16.6,0.455479562,-0.610631943,1.233414292
16.61,-0.059681416,-0.229169846,1.36094892
16.62,-0.667157829,-0.119775772,0.684499204
16.63,-0.679679811,0.035149574,-0.006612048
16.64,-0.540636241,0.012286186,-0.633116961
16.65,-0.538418293,0.012480736,-0.633565903
16.66,-0.035235047,-0.273124695,-1.657577157
16.67,0.575101495,-0.247951508,-0.720419824
16.68,0.636881828,-0.270897865,0.459317625
16.69,0.25537765,-0.147055626,1.008135796
16.7,-0.3903898,0.152560234,1.207080483
16.71,-0.757753372,0.328367233,1.010144591
16.72,-0.973457515,0.432595253,0.82764262
16.73,-0.865122795,0.397457123,0.074409425
16.74,-0.480321467,0.275597572,-0.48409754
16.75,-0.400518119,0.148365974,-0.775604129
16.76,-0.407506287,0.147701263,-0.777832985
16.77,-0.38942951,0.058260918,-1.126774192
16.78,0.687029779,-0.105620384,0.289165407
16.79,0.39204976,-0.127789497,1.008887768
16.8,0.029003799,-0.101449966,1.526180387
16.81,-0.499773562,0.047449112,1.612646222
16.82,-0.806050658,0.017066956,1.095865965
16.83,-0.772750855,-0.039601326,0.150047243
16.84,-0.688118279,-0.13481617,-0.669077277
16.85,-0.638553619,-0.261793137,-1.184252977
16.86,-0.35120362,-0.291108131,-1.80644989
16.87,0.224989295,-0.40226841,-2.077368021
16.88,0.581488967,-0.444280624,-0.680540681
16.89,0.66751945,-0.438518524,0.602661312
16.9,0.507923186,-0.31268692,1.288489103
16.91,-0.008145511,-0.042194366,1.848228812
16.92,-0.467861056,0.145141602,1.840984583
16.93,-0.457967997,0.146003723,1.83820641
16.94,-0.650336921,0.381418228,0.527400672
16.95,-0.585061669,0.338842392,-0.059372447
16.96,-0.585943043,0.338803291,-0.05350063
16.97,-0.331880271,0.170807838,-0.356262267
16.98,0.272827029,-0.164910317,0.764627218
16.99,0.269260228,-0.165192604,0.769345462
17,0.216125429,-0.596128464,1.078310132
17.01,-0.151365161,-0.571717262,0.731857538
17.02,-0.557310045,-0.290521622,-0.130109459
17.03,-0.850846469,-0.167199135,-1.345665932
17.04,-0.896389544,-0.302967072,-1.599234819
17.05,-0.701196075,-0.434977531,-1.406477451
17.06,-0.714015961,-0.436293602,-1.415603638
17.07,0.550317705,-0.308844566,-1.056535721
17.08,0.56891197,-0.056733131,-0.369656026
17.09,0.181774199,0.143315315,0.233009681
17.1,-0.388817668,0.300842285,0.884634197
17.11,-0.612496376,0.460994721,1.221187353
17.12,-0.615298986,0.460637093,1.200192809
17.13,-0.505289733,0.378559113,1.224662423
17.14,-0.433822334,0.255415916,0.941618621
17.15,-0.601599217,0.048316002,0.108708471
17.16,0.80927223,-0.293092728,0.201210201
17.17,0.788626075,-0.294622421,0.180096388
17.18,0.871559441,-0.515954018,1.618007064
17.19,0.769757867,-0.391683579,1.725397468
17.2,0.484843016,-0.209555626,1.373092413
17.21,-0.297678292,0.044742584,0.979961216
17.22,-0.285429061,0.045615196,0.99417913
17.23,-0.986411035,0.096790314,-0.201320022
17.24,-0.831890047,0.023204803,-0.474551499
17.25,-0.832607687,0.023151398,-0.463177413
17.26,-0.16016227,-0.128067017,-0.409261167
17.27,-0.078275502,-0.15730381,-0.458954692
17.28,0.097720981,-0.136199951,-0.378077179
17.29,-0.149307609,-0.067144394,-0.055242911
17.3,-0.405320406,-0.038589478,0.355716676
17.31,-0.493455112,-0.00762558,0.628971994
17.32,-0.39752239,-0.019432068,0.767974496
17.33,-0.394804478,-0.019242287,0.756583631
17.34,0.035662889,-0.04064846,0.660137355
17.35,0.036535442,-0.040563583,0.651547849
17.36,0.084656477,-0.011808395,0.524368465
17.37,0.115341485,0.045640945,-0.02426164
17.38,0.311492205,-0.016809464,-0.031825535
17.39,0.295239657,-0.103317261,0.171075314
17.4,0.272893399,-0.093962669,0.365884423
17.41,0.140427351,0.023301125,0.632482588
17.42,0.095072627,0.044867516,0.796431124
17.43,-0.100931585,0.064067841,0.769253075
17.44,-0.123460293,0.100102425,0.482225597
17.45,-0.276233077,0.066612244,0.188533083
17.46,-0.14922303,-0.007613182,-0.224127322
17.47,0.190231025,-0.144343376,-0.363760918
17.48,0.326939941,-0.336267471,-0.512798727
17.49,0.323883355,-0.336511612,-0.498507828
17.5,-0.383551776,0.063417435,-1.019949675
17.51,-0.379046142,0.063788414,-1.005388737
17.52,-0.241573572,-0.003159523,-0.055366829
17.53,-0.061794341,-0.130236626,0.649385631
17.54,-0.065907061,-0.130569458,0.637198508
17.55,-0.100470245,-0.023094177,1.153699875
17.56,-0.099735498,-0.023026466,1.143419862
17.57,-0.195324004,0.044219017,0.861473024
17.58,0.246979863,-0.042021751,-0.13437292
17.59,0.243791133,-0.042272568,-0.13441509
17.6,0.251720727,-0.143121719,-0.331099927
17.61,-0.077390254,-0.186455727,0.059806012
17.62,-0.273217917,-0.07165432,0.582634211
17.63,-0.270832062,0.026562691,0.702283621
17.64,-0.154675067,0.072161675,0.567279518
17.65,-0.100341678,0.122583389,0.389716059
17.66,-0.134341776,0.122725487,0.214412257
17.67,-0.037252367,0.043814659,-0.035896547
17.68,0.179571271,-0.111907005,-0.146030515
17.69,0.487094671,-0.212757111,-0.171739399
17.7,0.459182739,-0.148415566,0.228239268
17.71,0.457613409,-0.148546219,0.231059402
17.72,-0.354161382,-0.090922356,0.801714182
17.73,-0.349568069,-0.090604782,0.805048943
17.74,-0.128697455,0.026924133,0.720090807
17.75,-0.279737055,0.060591698,0.127098993
17.76,-0.276170433,0.060838699,0.138034597
17.77,-0.769766688,0.137769699,-0.663821578
17.78,-0.766202092,0.138047218,-0.652921319
17.79,-0.35090524,-0.043656349,-0.667291641
17.8,0.173828721,-0.287823677,-0.074724004
17.81,0.309259266,-0.431747437,0.225259066
17.82,0.301628768,-0.355360031,0.461382508
17.83,0.221635521,-0.281206131,0.65408504
17.84,-0.162941158,-0.092008591,0.794605374
17.85,-0.40711391,0.063988686,0.752207279
17.86,-0.58294946,0.11712265,0.072741926
17.87,-0.577112436,0.117571831,0.075835183
17.88,-0.275105059,0.146526337,-0.547391117
17.89,-0.0553599,0.045933723,-0.476924509
17.9,0.159548044,-0.117105484,-0.342684358
17.91,0.155562043,-0.117385864,-0.337989837
17.92,-0.068707824,-0.223031998,0.310503304
17.93,-0.351666033,-0.247159958,0.713526547
17.94,-0.343685031,-0.208946228,0.625473201
17.95,-0.04825294,-0.309586525,0.169158593
17.96,0.262447476,-0.343471527,-0.289242864
17.97,0.254386485,-0.344004631,-0.280489087
17.98,-0.100242734,-0.040444374,-0.267283976
17.99,-0.095207453,0.042881012,0.069785744
18,-0.068316877,0.042257309,0.259135783
18.01,0.096254408,-0.008724213,0.735666275
18.02,0.00127703,-0.047807693,0.923995733
18.03,-0.208465636,-0.156116486,0.76595968
18.04,-0.213424563,-0.156409264,0.771093726
18.05,-0.417116761,-0.170846939,0.167847768
18.06,0.209597856,-0.422447205,-0.881186783
18.07,0.668106377,-0.442180634,-0.829596877
18.08,0.641583383,-0.514753342,-0.236086562
18.09,0.047333539,-0.371764183,0.324149281
18.1,-0.2357921,-0.104054451,0.622726262
18.11,-0.586218536,0.087181091,1.021759391
18.12,-0.587424278,0.08701992,1.012743592
18.13,-0.680735707,0.192320824,0.905832291
18.14,-0.115815759,0.153998375,0.176867515
18.15,0.142818213,0.106025696,0.052088972
18.16,0.326828539,-0.004343033,0.024761699
18.17,0.402166247,-0.097948074,-0.010812424
18.18,0.399463087,-0.13637352,-0.006497115
18.19,0.359487385,-0.246535301,-0.165401414
18.2,0.420746684,-0.282361984,-0.308854252
18.21,0.371972948,-0.301450729,-0.257954717
18.22,0.368952543,-0.301425934,-0.24728334
18.23,0.102967382,-0.203151703,-0.26048252
18.24,-0.171546519,0.002929688,-0.455729038
18.25,-0.204680145,0.003087997,-0.518800557
18.26,-0.205235899,0.003198624,-0.512475371
18.27,-0.220875382,0.099022865,-0.214844585
18.28,-0.223960638,0.098918915,-0.212038919
18.29,-0.031486094,0.139181137,0.1039536
18.3,0.107895494,0.076223373,0.052763328
18.31,0.291575462,0.03943634,0.161079958
18.32,0.29523325,0.033657074,0.478821009
18.33,0.417584389,0.042304039,0.591706455
18.34,0.412732363,0.043981552,0.851767421
18.35,0.410378218,0.043618202,0.834558725
18.36,0.022936225,0.069964409,0.899394035
18.37,-0.596740842,0.130184174,0.204445556
18.38,-0.850748539,0.08998394,-0.029565312
18.39,-0.619984448,0.033149719,-0.462191135
18.4,-0.615999878,0.033402443,-0.459343672
18.41,-0.3882038,-0.093501091,-0.516250014
18.42,0.369181991,-0.251831055,0.402621001
18.43,0.389399648,-0.182813644,0.492493153
18.44,0.384889066,-0.183092117,0.488020271
18.45,0.19177106,-0.015593529,0.418598056
18.46,0.064388305,0.03232193,-0.05936832
18.47,-0.136240065,0.17606926,-0.471959263
18.48,-0.104729414,0.04924202,-0.796768963
18.49,-0.260635316,-0.01793766,-0.45588696
18.5,-0.266051173,-0.018321037,-0.464215517
18.51,0.296326876,-0.24646759,0.821712792
18.52,0.516592145,-0.300073624,1.031395078
18.53,0.275055528,-0.140349388,1.066255331
18.54,0.267954171,-0.1407547,1.045555592
18.55,-0.01617676,-0.002080917,1.154726505
18.56,-0.233908057,0.096002579,0.570054352
18.57,-0.477660328,0.162999153,-0.090349913
18.58,-1.029954433,0.14618206,-0.625140905
18.59,-1.031614304,0.146139145,-0.632799506
18.6,-0.489234626,0.466899872,-0.031164333
18.61,-0.499785245,0.466547012,-0.049735799
18.62,0.402899027,0.24098587,0.629655659
18.63,0.453105867,0.065688133,0.702063978
18.64,0.281411409,0.026963234,0.437539101
18.65,0.223323301,-0.169699669,0.058282174
18.66,0.216783389,-0.169994354,0.060118891
18.67,0.12215507,-0.122356415,-0.099526912
18.68,0.093139321,-0.098685265,0.215201557
18.69,0.146020219,-0.062996864,0.354743838
18.7,0.072110772,0.025369644,0.458880305
18.71,0.066561013,0.025198936,0.455689073
18.72,-0.264604926,0.07539463,0.510161877
18.73,-0.384376019,0.185477257,0.421261817
18.74,-0.321877867,0.068042755,0.324740648
18.75,-0.270210534,0.017617226,0.382383406
18.76,0.005634844,-0.075893402,0.423717797
18.77,-0.001951069,-0.076049805,0.416030705
18.78,0.172987714,-0.222212791,0.427383602
18.79,0.37846899,-0.315623283,0.100712791
18.8,0.232230261,-0.277230263,-0.150292039
18.81,-0.586592674,0.024673462,-0.223528191
18.82,-0.52564466,0.02495575,-0.22275044
18.83,-0.47947681,0.025265694,-0.03976725
18.84,-0.100896239,0.056742668,0.22410661
18.85,0.053451806,0.07135582,0.490527213
18.86,0.05682683,0.0716362,0.483416677
18.87,0.0617342,0.098272324,0.589672029
18.88,0.222274989,0.038649559,0.11359407
18.89,0.123668671,-0.028300285,-0.038302079
18.9,-0.079719156,-0.056951523,-0.062885419
18.91,-0.118063331,-0.102379799,-0.157109916
18.92,0.05690673,-0.071258545,-0.158130229
18.93,0.250686169,0.026825905,0.234141573
18.94,0.122298628,0.026736259,0.695630014
18.95,-0.05989641,0.026701927,0.619612992
18.96,-0.204958201,0.184782028,0.054711401
18.97,-0.158692092,0.139357567,-0.291816503
18.98,-0.146153271,-0.092856407,-0.56117481
18.99,-0.046199292,-0.135951042,-0.273531854
19,-0.037085503,-0.131162643,0.278480142
19.01,-0.036843061,-0.131162643,0.279339463
19.02,0.02850917,-0.17185688,0.395714939
19.03,0.0894081,-0.138297081,0.490241706
19.04,0.195195153,-0.229258537,0.238377616
19.05,0.357310414,-0.281962395,-0.171108589
19.06,0.438931525,-0.174319267,-0.172581822
19.07,0.153784931,-0.064231873,0.264994681
19.08,-0.115195692,0.026841164,0.495395988
19.09,-0.157458097,0.108417511,0.395341188
19.1,-0.447737485,0.187576294,0.234447181
19.11,-0.443930358,0.187766075,0.233162656
19.12,-0.183562815,0.046523094,-0.26390934
19.13,0.066567898,0.027255058,-0.143164903
19.14,0.307103783,0.010307312,0.120238423
19.15,0.323783934,0.026838303,0.35435462
19.16,0.132670373,0.026627541,0.544840455
19.17,0.201369688,-0.004633904,0.347326875
19.18,0.448310256,-0.136572838,0.078041643
19.19,0.425374836,-0.139247894,0.035798058
19.2,0.1702151,-0.048527718,0.199734435
19.21,0.231745243,-0.039168358,0.07516396
19.22,0.17090404,-0.022654533,-0.065095536
19.23,0.166111708,-0.022852898,-0.063300617
19.24,0.103503764,-0.11395359,-0.430923641
19.25,0.107771158,-0.135620117,-0.180135101
19.26,-0.146122605,-0.111709595,0.531387091
19.27,-0.091627955,0.02484417,0.785176337
19.28,-0.092253566,0.024903297,0.779545426
19.29,-0.114172459,0.079986572,0.439361811
19.3,0.122705117,0.015346527,-0.010890514
19.31,0.207307324,-0.035007477,-0.251277745
19.32,0.167669743,-0.035083771,-0.340648353
19.33,0.167463988,-0.035093308,-0.341130614
19.34,0.23692207,0.065523148,-0.078273654
19.35,0.164882749,0.139863014,0.227681071
19.36,-0.054080427,0.166376114,0.570331335
19.37,-0.279795587,0.209655762,0.922454655
19.38,-0.139580548,0.092477798,0.778760552
19.39,-0.084809154,-0.034290314,0.008427054
19.4,-0.04828012,-0.132358551,-0.192415252
19.41,-0.073465496,-0.165750504,-0.114394508
19.42,-0.036422521,-0.242241859,0.039652497
19.43,-0.014536917,-0.287610054,0.201994002
19.44,-0.010026008,-0.287481308,0.207076892
19.45,-0.258768559,-0.098183632,-0.43792969
19.46,-0.255214632,0.095902443,-0.683170259
19.47,-0.318108589,0.064911842,-0.268655121
19.48,-0.014503658,0.024290085,0.388514578
19.49,0.076562136,-0.061919212,1.082081079
19.5,-0.084503621,-0.09066391,1.040469408
19.51,-0.167151958,-0.057095528,0.689683676
19.52,-0.166800648,-0.057024956,0.684912324
19.53,0.258456886,-0.23182106,0.118722856
19.54,-0.006098926,-0.342028618,-0.310546547
19.55,-0.18506822,-0.253484726,-0.825290322
19.56,-0.064884216,-0.157747269,-0.720150352
19.57,-0.118825764,-0.033279419,-0.206639707
19.58,-0.120405436,-0.033228874,-0.215817183
19.59,-0.121004432,0.072212219,0.38040632
19.6,-0.119660765,0.072357178,0.374504596
19.61,-0.780093074,0.333593369,0.542551696
19.62,-0.402783305,0.242946625,0.307208568
19.63,0.0897744,0.02767086,-0.024815619
19.64,0.233532369,-0.116015434,-0.050493672
19.65,0.08940202,-0.15915966,0.00274802
19.66,0.170933574,-0.118436813,-0.043308437
19.67,0.019272774,-0.087325096,0.113939881
19.68,-0.098671734,-0.041838646,0.355845094
19.69,-0.084596246,-0.034612656,0.225824893
19.7,-0.187857628,0.027659416,0.071941644
19.71,-0.271108866,0.123485565,0.141941607
19.72,-0.363460273,0.092466354,0.253921837
19.73,-0.240294069,0.090183258,0.145700485
19.74,-0.171090722,0.027997971,-0.074092314
19.75,-0.140867591,-0.060565948,-0.146519065
19.76,-0.139657497,-0.060529709,-0.137247458
19.77,-0.136254638,-0.034156799,-0.024923392
19.78,-0.040246755,-0.026963234,0.302492231
19.79,-0.01149413,-0.029356956,0.381199747
19.8,-0.281335235,0.028138161,0.483903587
19.81,-0.308905125,0.025900841,0.280583203
19.82,-0.306097806,0.026043892,0.283976555
19.83,-0.027297139,-0.208526611,-0.337100208
19.84,-0.029139549,-0.208627701,-0.333108753
19.85,-0.039557219,-0.201591492,0.173223913
19.86,0.18576017,-0.11800766,0.259472787
19.87,0.179896236,-0.118279457,0.257773936
19.88,-0.011619121,0.02274704,0.166178733
19.89,-0.050241232,0.089669228,-0.024746723
19.9,-0.13093099,0.058467865,-0.039689183
19.91,-0.131373912,0.058456421,-0.036799308
19.92,-0.197752565,0.113549233,0.080782495
19.93,-0.451145202,-0.029966354,0.339923084
19.94,-0.166649342,-0.135212898,-0.181456089
19.95,-0.166037619,-0.135170937,-0.171990663
19.96,-0.124963611,-0.101584435,-0.093568817
19.97,-0.126781911,-0.101671219,-0.092425965
19.98,0.018103778,-0.118592262,0.365522981
19.99,0.015528381,-0.118740082,0.362910211
20,0.021357477,-0.058933258,0.330691606
20.01,0.014523894,0.029647827,0.072666742
20.02,-0.140217394,-0.097205162,-0.016153008
20.03,0.080032527,-0.066087723,0.175374076
20.04,0.260808528,-0.087798119,0.583256722
20.05,0.142656893,-0.013843536,0.722288668
20.06,-0.186269045,-0.004526138,0.653912604
20.07,-0.290770441,-0.016682625,0.272027224
20.08,-0.168936789,-0.067081451,-0.197112873
20.09,-0.186104447,-0.02650547,-0.502003253
20.1,-0.085028142,0.009350777,-0.459296942
20.11,-0.031562001,-0.06970787,-0.220873788
20.12,0.022344708,-0.146372795,0.111173362
20.13,0.124000311,-0.17993927,0.482936114
20.14,0.065531164,-0.134501457,0.527287006
20.15,0.065920323,-0.134483337,0.52679348
20.16,0.035902739,0.028374672,0.427017331
20.17,-0.051169038,0.026067734,0.150931835
20.18,-0.314411968,0.028599739,-0.11759676
20.19,-0.23910141,0.009644508,-0.415573299
20.2,-0.075894713,-0.090873718,-0.539998472
20.21,-0.024221212,-0.129184723,-0.408440024
20.22,0.017579854,-0.052628517,0.099654682
20.23,0.016259402,-0.052700043,0.096553415
20.24,0.013005912,-0.038387299,0.734383166
20.25,-0.062814474,0.01907444,0.711682737
20.26,-0.146421999,-0.023898125,0.524581194
20.27,0.045274079,-0.109968185,0.195178136
20.28,0.153389037,-0.224880219,-0.003227931
20.29,0.116810173,-0.193757057,0.052046906
20.3,-0.049474657,-0.22252655,0.029401615
20.31,-0.141075701,-0.186644554,0.013406832
20.32,-0.141557485,-0.186659813,0.013623234
20.33,-0.201525092,-0.184281349,-0.06327261
20.34,-0.182749897,-0.1004982,-0.117261566
20.35,-0.231082737,-0.062225342,0.100278691
20.36,-0.121191025,-0.047887802,0.467183054
20.37,-0.1227732,-0.047984123,0.462820232
20.38,-0.031058431,0.02614975,0.508482516
20.39,-0.023007244,0.035669327,0.271315992
20.4,-0.02451545,0.035606384,0.273169994
20.41,-0.117142439,0.021207809,-0.031890616
20.42,-0.178092957,0.025964737,-0.238489583
20.43,-0.147617728,0.0522995,-0.320929855
20.44,-0.139124245,-0.033924103,-0.202805728
20.45,-0.361240923,-0.148925781,0.200167775
20.46,-0.276964754,-0.156216621,0.455401808
20.47,-0.280081213,-0.156359673,0.450158209
20.48,0.218250468,-0.173347473,0.874382436
20.49,0.215172157,-0.173483849,0.87075305
20.5,0.298304617,-0.063481331,0.493084759
20.51,0.117539376,-0.159355164,-0.341972411
20.52,0.113407165,-0.037382126,-0.340921819
20.53,0.050353944,0.024663925,0.015209459
20.54,0.043651223,0.024368286,0.010715306
20.55,-0.147415549,0.024080276,0.190851301
20.56,-0.21751067,0.09086895,0.302912623
20.57,-0.121579379,0.179273605,0.553483725
20.58,-0.126029342,0.179096222,0.549870074
20.59,0.177370831,0.123844147,0.146289453
20.6,0.013839304,0.118953705,0.131534278
20.61,0.085815102,0.051849365,0.257947266
20.62,0.178336456,0.023013115,0.299751192
20.63,0.117622092,-0.036917686,0.033095628
20.64,-0.037665188,-0.075268745,-0.175484121
20.65,-0.121673733,-0.056080818,-0.0519768
20.66,-0.083138019,-0.044044495,0.257453233
20.67,-0.006327152,-0.034446716,0.337700397
20.68,-0.058558077,0.023053169,0.276918262
20.69,-0.057247192,0.023141861,0.281178296
20.7,-0.356133342,0.023270607,0.03408033
20.71,-0.240259141,-0.019667625,-0.197854742
20.72,-0.16389671,-0.105744362,-0.227273583
20.73,-0.138340265,-0.069752693,0.140354976
20.74,-0.101061642,-0.103254318,0.459265709
20.75,-0.068621993,-0.076893806,0.442057997
20.76,-0.162582308,-0.069673538,0.27936098
20.77,-0.06637913,-0.033649445,0.082753323
20.78,-0.117043793,-0.059921265,0.037286799
20.79,-0.143629134,-0.023932457,0.062865041
20.8,-0.038977444,0.024002075,0.183302105
20.81,0.07396242,0.023999214,0.322366208
20.82,0.057187438,0.023981094,0.406579882
20.83,-0.039718121,0.031189919,0.384504497
20.84,-0.008689731,0.024115562,0.193633378
20.85,0.057943076,-0.040441513,-0.007794894
20.86,-0.105571181,-0.081065178,-0.021458425
20.87,-0.064910293,-0.066577911,0.037684057
20.88,-0.006063759,-0.0737257,0.20981209
20.89,-0.006606549,-0.07377243,0.207557038
20.9,0.006881565,-0.097760201,0.455567092
20.91,-0.164688021,-0.116932869,0.557322145
20.92,-0.294105053,0.017243385,0.167115688
20.93,-0.15342018,-0.035315514,-0.307988018
20.94,-0.152279854,-0.035252571,-0.305466384
20.95,-0.028457522,-0.047291756,0.640230298
20.96,-0.085922182,-0.150312424,0.84829545
20.97,-0.084276527,-0.150305748,0.840625107
20.98,-0.108322501,-0.0688591,0.458220214
20.99,-0.11492154,-0.03764534,-0.281306744
21,0.018392324,0.070186615,-0.574087799
21.01,0.055904984,0.091705322,-0.003890432
21.02,0.062849462,0.034096718,0.479173422
21.03,0.059519589,0.033927917,0.46972236
21.04,-0.187191606,0.009846687,0.603038311
21.05,-0.204469711,-0.004543304,0.26099208
21.06,-0.236672223,-0.011702538,0.032925934
21.07,-0.234387606,-0.01160717,0.033456936
21.08,-0.12137717,0.024421692,0.269638598
21.09,0.098471165,0.014925003,0.304688603
21.1,0.226097539,-0.08320713,0.29742077
21.11,0.226312414,-0.083187103,0.300398409
21.12,-0.115117848,-0.01849556,-0.014459485
21.13,-0.066502392,0.007886887,-0.08087635
21.14,-0.067163706,0.007872581,-0.075117312
21.15,0.198927715,-0.071187973,0.281077743
21.16,0.076259494,-0.028182983,0.314678639
21.17,-0.081917465,0.024394989,0.228831291
21.18,-0.138409108,0.024365425,0.007593542
21.19,-0.204088181,-0.009171486,-0.159648031
21.2,-0.267029792,0.000415802,-0.280978799
21.21,-0.210201919,0.000421524,-0.047037154
21.22,-0.048380435,-0.054668427,0.20056431
21.23,0.04124406,-0.059504509,0.424875289
21.24,-0.023816496,-0.006858826,0.575262249
21.25,-0.022694141,-0.006826401,0.575261235
21.26,-0.109582901,0.024378777,0.212815374
21.27,-0.084150821,-0.076086998,0.024417449
21.28,0.04314363,-0.097604752,-0.172166944
21.29,0.042138845,-0.064078331,-0.173044622
21.3,0.02885586,-0.042561531,0.035148401
21.31,-0.034433603,0.024441719,0.158756614
21.32,-0.034977734,0.024447441,0.160155937
21.33,-0.243102521,0.02447319,0.236429781
21.34,-0.242049933,0.024536133,0.238387138
21.35,-0.093671381,-0.016141891,0.045634959
21.36,-0.021974444,0.02458477,0.202414095
21.37,0.032227308,-0.013728142,0.260454178
21.38,0.035661072,-0.097542763,0.352209598
21.39,-0.025995821,-0.176596642,0.317070186
21.4,-0.19979319,-0.052107811,-0.187895626
21.41,-0.220998734,0.024597168,-0.535750032
21.42,-0.230592132,0.005529404,-0.473961353
21.43,-0.128517211,-0.03517437,0.25420621
21.44,0.053150564,-0.159816742,0.737389267
21.45,-0.031845868,-0.069014549,0.392815441
21.46,-0.03236106,-0.06899929,0.395420671
21.47,-0.047923118,0.093898773,0.080979556
21.48,-0.143076509,0.024531364,0.078971758
21.49,-0.059011877,0.024559975,-0.000143692
21.5,0.080716163,0.024524689,0.121048607
21.51,0.031593621,-0.073782921,0.216364905
21.52,-0.165527463,0.007506371,0.226694495
21.53,-0.303502381,-0.011732101,0.124254674
21.54,-0.256099075,-0.083600044,0.032320328
21.55,-0.256427646,-0.083608627,0.031401061
21.56,-0.029478848,-0.076462746,0.219787389
21.57,0.096726239,-0.081306458,0.519148409
21.58,0.139631987,-0.038241386,0.548659742
21.59,0.14000988,-0.038227081,0.548326314
21.6,-0.038051575,0.009728432,0.199721813
21.61,-0.03630203,0.009820938,0.203314722
21.62,-0.025746435,0.024328232,-0.172914237
21.63,-0.058757246,-0.07374382,-0.133444563
21.64,-0.006601453,-0.025828362,0.173367694
21.65,-0.007539034,-0.025856018,0.174196914
21.66,-0.196815401,0.024417877,0.444496065
21.67,-0.195866883,0.024453163,0.444939971
21.68,-0.228102118,0.031723022,0.113121167
21.69,-0.194007725,0.015051842,-0.136640281
21.7,-0.193166763,0.015127182,-0.133785561
21.71,-0.10176751,-0.094976425,0.171127528
21.72,-0.102020323,-0.094989777,0.170660377
21.73,-0.118250102,-0.087826729,0.415197909
21.74,-0.109799624,-0.030358315,0.238185942
21.75,-0.126895905,0.003231049,0.148995638
21.76,-0.127530992,0.012875557,0.084646009
21.77,-0.126233935,0.012942314,0.08567477
21.78,-0.028100103,0.024939537,0.074955329
21.79,0.026558638,0.034501076,0.199412257
21.8,0.025638163,0.034466743,0.198838055
21.81,0.077742726,0.024877548,0.200219721
21.82,-0.18485108,0.024939537,0.223714113
21.83,-0.13836813,-0.061179161,0.15930903
21.84,-0.104256451,-0.149699211,0.100250579
21.85,-0.16363433,-0.178358078,0.00795114
21.86,-0.230344743,-0.101700783,0.114825681
21.87,-0.163613647,-0.04902935,0.224983513
21.88,-0.035053343,-0.072998047,0.191635653
21.89,-0.208619595,-0.096953392,0.15019685
21.9,-0.301291406,0.089878082,-0.208233118
21.91,-0.299034268,0.090053558,-0.202947587
21.92,-0.116276979,0.006357193,0.109779641
21.93,0.053092986,-0.03674221,0.42008391
21.94,0.034266412,-0.175699234,0.354674459
21.95,-0.18080461,-0.084797859,0.361158788
21.96,-0.324304313,-0.048879623,0.408837795
21.97,-0.322435588,-0.048809052,0.409121782
21.98,-0.144244582,-0.022399902,0.262278497
21.99,-0.210236251,-0.060624123,-0.071821973
22,-0.209794432,-0.060491562,-0.066075161
22.01,-0.031879783,-0.067623138,-0.386069059
22.02,-0.056852639,-0.024621964,-0.070640951
22.03,-0.040591836,-0.019997597,0.132063001
22.04,-0.041856021,-0.020133972,0.127106577
22.05,-0.270960271,0.025301933,0.278278083
22.06,-0.26885891,0.025318146,0.275366724
22.07,-0.159195215,-0.041683197,0.340677917
22.08,-0.159830809,-0.029675484,0.384740204
22.09,0.035488129,-0.003297806,0.465904027
22.1,0.033766747,0.001543045,0.371512115
22.11,0.035088867,0.001675606,0.375945389
22.12,-0.084960192,0.025874138,-0.282943547
22.13,-0.082997054,0.026192665,-0.271486878
22.14,0.00906828,-0.00948143,-0.352649689
22.15,-0.098413706,-0.093170166,-0.340762079
22.16,-0.098169208,-0.093135834,-0.339817822
22.17,-0.112849563,0.024131775,0.508167982
22.18,0.02294293,0.079119682,0.616032839
22.19,-0.087387472,0.11021328,0.615386725
22.2,-0.085526079,0.110304833,0.616139293
22.21,-0.141878277,0.067444801,0.419058561
22.22,-0.192905277,-0.03044796,0.165956289
22.23,-0.119980753,-0.073248863,-0.207964152
22.24,-0.117081672,-0.073005676,-0.20267053
22.25,-0.042816758,-0.00819397,0.104656592
22.26,-0.205288261,0.027876854,0.192489743
22.27,-0.201157868,0.028051376,0.192809284
22.28,-0.221160233,0.013851166,0.040010989
22.29,-0.139186204,0.028356552,0.12659274
22.3,0.058753014,0.052353859,0.372557104
22.31,0.058872253,0.052311897,0.371289045
22.32,0.159488708,0.045160294,0.463117272
22.33,0.08427754,-0.088817596,0.285164893
22.34,0.116033882,-0.210841179,0.055243641
22.35,-0.038956046,-0.227510452,-0.093133137
22.36,-0.17196846,-0.157997131,-0.11737603
22.37,-0.048635572,0.016862869,0.0125736
22.38,-0.041837603,0.031175613,0.157507807
22.39,-0.204264194,0.038342476,0.33543399
22.4,-0.420170128,0.138934135,0.197102219
22.41,-0.1505014,0.242042542,0.095919311
22.42,0.01435563,0.041052818,0.162274092
22.43,0.339448243,0.007527351,0.604028821
22.44,0.323898047,-0.124382973,0.902806163
22.45,0.097699553,-0.172543526,0.478182674
22.46,-0.102814585,-0.134387016,0.099309683
22.47,-0.090590358,-0.081701279,0.113644555
22.48,-0.073215097,-0.048159599,0.321884692
22.49,0.071880788,-0.215834618,0.140746236
22.5,0.067454904,-0.120132446,-0.054666325
22.51,-0.176681459,0.006697655,-0.032457843
22.52,-0.324151486,0.040112495,-0.034185573
22.53,-0.325161785,0.039993286,-0.037397623
22.54,-0.432928324,0.138051033,0.073369429
22.55,0.004740834,0.157146454,0.255390704
22.56,0.073571056,0.039793968,0.33394593
22.57,-0.031344205,0.035058022,0.273258507
22.58,-0.041605324,0.006440163,0.227818757
22.59,-0.068570018,-0.048485756,0.287616491
22.6,0.078651041,-0.081932068,0.344260395
22.61,0.178912073,-0.067541122,0.300118089
22.62,0.129549682,-0.125021935,0.354865491
22.63,0.139906347,-0.170513153,0.227908999
22.64,0.10928613,-0.182484627,0.187750965
22.65,-0.000375926,-0.160963059,0.055980355
22.66,-0.104392588,-0.089119911,-0.190606594
22.67,-0.313122362,-0.000489235,-0.279042423
22.68,-0.332129657,0.040249825,-0.122273296
22.69,-0.262934446,0.04981041,0.104571864
22.7,-0.220228672,0.061741829,0.297738046
22.71,-0.219660014,0.061738968,0.29661724
22.72,-0.184209257,0.02829361,0.330283642
22.73,-0.033425659,-0.033828735,0.175891325
22.74,-0.031489402,-0.033694267,0.178112105
22.75,-0.108142138,-0.047897339,0.206545487
22.76,0.059333056,-0.117215157,0.205285132
22.77,0.0219962,-0.124336243,0.172707841
22.78,-0.0130198,-0.09555912,0.161091715
22.79,0.018645197,-0.138637543,0.112889141
22.8,-0.021868467,-0.114709854,0.121664017
22.81,-0.193713188,-0.064422607,0.113471225
22.82,-0.190098643,-0.038070679,0.081001431
22.83,0.016653091,0.00743103,0.032452941
22.84,0.037058532,0.028903961,0.201590121
22.85,0.036377788,0.028832436,0.199868679
22.86,-0.049628437,0.031190872,0.27467221
22.87,0.022298634,0.028801918,0.133152455
22.88,0.0483118,0.028809547,0.050720647
22.89,-0.024487495,0.024035454,0.155317634
22.9,-0.273650229,-0.033420563,0.153220058
22.91,-0.360548526,0.031313896,-0.092377335
22.92,-0.197795272,-0.011608124,-0.173106581
22.93,-0.015022755,-0.102473259,0.021587148
22.94,-0.015779734,-0.102514267,0.021699473
22.95,-0.008386284,-0.081178665,0.789887548
22.96,-0.02131173,-0.107727051,0.761840522
22.97,-0.02125746,-0.107861519,0.756190896
22.98,0.006589293,0.01424408,0.052266195
22.99,0.007796437,0.014321327,0.053062826
23,0.060962111,-0.066961288,-0.223129168
23.01,0.059683591,-0.067062378,-0.224544942
23.02,-0.023784816,0.021297455,0.756138802
23.03,0.007395029,0.006639481,0.518266559
23.04,-0.128748119,-0.029495239,0.172051936
23.05,-0.33473891,0.027897835,-0.01045081
23.06,-0.332436055,0.027989388,-0.010880038
23.07,-0.183244705,0.071243286,0.103314817
23.08,-0.034839451,0.028289795,0.251518101
23.09,0.139328659,-0.009851456,0.36232847
23.1,0.238435909,-0.038462639,0.440549254
23.11,0.181586295,-0.102993012,0.321951032
23.12,0.182495564,-0.102870941,0.325255364
23.13,0.035439819,-0.100326538,0.039723337
23.14,-0.018774271,-0.124131203,-0.071303889
23.15,-0.088306129,-0.064208984,0.015184015
23.16,-0.088456154,-0.064172745,0.01714161
23.17,-0.173026413,0.02917099,0.148630917
23.18,-0.174027145,0.029117584,0.148630321
23.19,-0.153447688,0.029072762,0.105185255
23.2,-0.170560747,0.026678085,0.198473543
23.21,-0.060353726,-0.097826958,0.120087281
23.22,-0.148302615,-0.080989838,0.114586279
23.23,-0.16541335,-0.061707497,0.044519782
23.24,-0.045816302,-0.059167862,-0.015943557
23.25,-0.020614922,-0.039933205,0.193375051
23.26,0.023155302,0.029499054,0.527568102
23.27,0.083171368,0.024674416,0.668829739
23.28,0.12391898,0.015029907,0.426732898
23.29,-0.022020936,-0.097509384,0.17963925
23.3,-0.019153506,-0.107069016,-0.016332492
23.31,-0.034127921,-0.138217926,-0.026065692
23.32,-0.035197735,-0.138296127,-0.027491853
23.33,-0.058457732,-0.049894333,0.341932178
23.34,-0.055233002,0.012178421,0.392557621
23.35,-0.046324521,0.028831482,0.269250065
23.36,-0.027327955,0.023978233,0.255422771
23.37,-0.036885381,0.026350021,0.215526611
23.38,-0.084870934,-0.035927773,0.236097485
23.39,-0.013497114,-0.143705368,0.087454632
23.4,0.01388818,-0.131757736,-0.157978788
23.41,-0.238395035,0.011911392,-0.284724355
23.42,-0.237512291,0.012036324,-0.281805217
23.43,-0.086090028,-0.071702957,-0.040840909
23.44,0.057252496,-0.093440056,0.123699382
23.45,0.043406814,-0.014754295,0.713918924
23.46,0.113948792,0.00644207,1.162651181
23.47,0.104148507,-0.005852699,0.795819223
23.48,0.0909473,-0.077869415,0.15515703
23.49,-0.026902705,-0.269420624,-0.533676505
23.5,-0.056639731,-0.286124229,-0.761316299
23.51,-0.1890091,-0.094698906,-0.011409909
23.52,0.015128672,-0.066287041,0.682969213
23.53,-0.009482592,-0.011657715,0.720281839
23.54,-0.181182087,0.028728485,0.488897443
23.55,-0.127494007,0.026187897,0.291855574
23.56,0.115351379,-0.021800041,0.141630709
23.57,0.112767905,-0.021901131,0.141602889
23.58,0.205558494,-0.010034561,0.175360948
23.59,0.249028951,0.025717735,0.223305926
23.6,0.126939088,0.025539398,0.390829265
23.61,0.044112235,0.051724434,0.361997098
23.62,-0.085181683,0.010980606,-0.078685537
23.63,-0.086150467,0.011050224,-0.07252495
23.64,-0.14917478,-0.082191467,-0.294515252
23.65,-0.150375396,-0.082137108,-0.289883494
23.66,-0.056406349,-0.039070129,0.150138214
23.67,-0.131508887,0.07823658,0.531894565
23.68,-0.19156149,0.085441589,0.345015764
23.69,-0.157288224,0.023319244,-0.005353376
23.7,-0.156450987,0.02348423,0.001094356
23.71,-0.222505301,-0.14153862,-0.200506046
23.72,-0.13001594,-0.174912453,0.09090443
23.73,-0.000698239,-0.222799301,0.174207464
23.74,-0.003618747,-0.136656761,0.175515726
23.75,-0.118547261,-0.098359108,0.179511026
23.76,-0.120128751,-0.04090786,0.171032861
23.77,-0.119628459,-0.040930748,0.169414386
23.78,0.004668236,0.018890381,0.084096268
23.79,0.018351227,0.026016235,0.154660314
23.8,0.019826144,0.037939072,0.105721921
23.81,0.019387931,0.037934303,0.106063798
23.82,-0.193069786,0.073898315,0.10492982
23.83,-0.192296416,0.073961258,0.106480852
23.84,-0.019615799,0.011767387,-0.061701477
23.85,0.017453253,-0.057682037,0.047597721
23.86,-0.062925994,-0.06251812,0.172435314
23.87,-0.066316247,-0.048212051,0.236147791
23.88,-0.069629788,-0.038697243,0.268641293
23.89,-0.070228845,-0.038722992,0.267769098
23.9,-0.060759813,-0.100985527,0.181349307
23.91,-0.285908014,-0.081800461,-0.078034878
23.92,-0.284274578,-0.081665993,-0.074661762
23.93,-0.306465358,0.026257515,-0.54112947
23.94,-0.070548117,0.026403427,0.061696634
23.95,0.112804771,-0.014348984,0.599552929
23.96,0.03384006,-0.021704674,0.634581208
23.97,0.021387011,-0.057665825,0.45369339
23.98,0.022156507,-0.057653427,0.453314304
23.99,-0.112643242,-0.1772995,-0.143244177
24,-0.172792643,-0.107720375,-0.719895303
24.01,-0.171653658,-0.107574463,-0.715162635
24.02,-0.253783137,0.026406288,-0.282131672
24.03,-0.136082381,0.016613007,0.650194407
24.04,-0.185871393,0.025981903,0.510329425
24.05,-0.212219119,0.021142006,0.083946377
24.06,-0.255926639,0.023650169,-0.311387539
24.07,-0.350721717,0.021520615,-0.437184811
24.08,-0.346287042,0.02180481,-0.431663454
24.09,-0.071670949,0.11300087,0.298269242
24.1,0.198774278,0.189724922,0.603597522
24.11,0.116710901,0.220960617,0.792079926
24.12,0.120242029,0.22114563,0.794143856
24.13,-0.313887656,0.16645813,0.256352365
24.14,-0.294650137,0.066462517,0.017867342
24.15,-0.293049455,-0.040661812,0.03619732
24.16,-0.292045772,-0.123839378,0.030942559
24.17,-0.341442376,-0.166272163,-0.1174393
24.18,-0.455123276,-0.127233505,-0.214292795
24.19,-0.393656045,-0.066591263,-0.127205223
24.2,-0.189348221,0.001152992,0.111733764
24.21,-0.084410518,-0.046061516,0.149013624
24.22,-0.080438226,-0.04534626,0.163460091
24.23,-0.202514291,-0.195353508,-0.261033475
24.24,-0.040565372,-0.388437271,-0.414033771
24.25,-0.058202952,-0.471508026,-0.372052908
24.26,-0.053085029,-0.482903481,-0.323365927
24.27,0.039574057,-0.439353943,-0.24297303
24.28,0.03773585,-0.438987732,-0.233332962
24.29,-0.105347037,-0.297400475,-0.104613304
24.3,-0.181851655,-0.182123184,-0.008885711
24.31,-0.22287035,-0.066796303,-0.175394237
24.32,-0.224514723,-0.066283226,-0.163521051
24.33,-0.297167838,-0.194953919,-0.389801383
24.34,-0.374021798,-0.354627609,-0.785196841
24.35,-0.532545984,-0.353776932,-0.543420732
24.36,-0.335219383,-0.431977272,-0.390193224
24.37,-0.160424739,-0.433577538,-0.483410478
24.38,-0.127532631,-0.341733933,-0.627920091
24.39,-0.071313053,-0.297760963,-0.743242264
24.4,0.09882313,-0.210746765,-0.777887642
24.41,0.096575886,-0.210143089,-0.766248763
24.42,0.003638327,-0.195613861,-0.535584152
24.43,-0.065103114,-0.111977577,-0.660342336
24.44,-0.026324838,-0.025903702,-0.973826766
24.45,-0.033250272,-0.02567482,-0.965502203
24.46,-0.097352684,0.046792984,-1.123705029
24.47,0.272137404,-0.316596985,-0.710259795
24.48,0.229441434,-0.553055763,-0.906981587
24.49,0.093323141,-0.880002022,-0.703403533
24.5,0.426357299,-1.237660408,-0.249339938
24.51,0.928585768,-1.391908646,-0.16301167
24.52,0.919991195,-1.393062592,-0.175195694
24.53,2.359941006,-1.420913696,-0.91465342
24.54,2.83449316,-1.152501106,-0.719687402
24.55,2.582403421,-0.712426186,-0.598836005
24.56,1.832318068,-0.095611572,-0.57047081
24.57,0.58492893,0.652745247,-0.517371535
24.58,0.555497944,0.649402618,-0.573233128
24.59,-0.381239057,1.158807755,-0.641356766
24.6,-0.366910756,0.92652607,0.161859989
24.61,-0.383844793,0.359677315,0.296573877
24.62,-0.532382131,-0.036576271,0.091798007
24.63,-0.396722347,-0.5592556,-0.62482512
24.64,-0.320224762,-0.835084915,-1.401635289
24.65,-0.356297612,-0.84744072,-1.767144918
24.66,-0.374681592,-0.644317627,-1.834837675
24.67,-0.461468935,-0.062861443,-1.504407167
24.68,-0.455694318,-0.06314373,-1.540329099
24.69,-1.293968678,0.904066086,-0.862940311
24.7,-1.277889132,0.904247284,-0.898636699
24.71,-2.024882555,1.524842262,-1.051141024
24.72,-2.101637125,2.631717682,-1.239583135
24.73,-1.696047783,2.714047432,-1.218643546
24.74,-1.714515567,2.40149498,-0.869218707
24.75,-2.011117935,1.751667023,-0.255338073
24.76,-2.267143488,0.970645905,0.223010376
24.77,-1.97657752,0.027123451,0.267935753
24.78,-1.015412927,-1.038526535,-0.081634276
24.79,-0.098305881,-1.915405273,-0.508718312
24.8,0.331602335,-2.414307594,-1.288395047
24.81,-0.013527095,-2.558698654,-1.885169625
24.82,-0.582308531,-2.400456905,-2.076385021
24.83,-1.220811605,-1.905757904,-1.978232384
24.84,-1.215568185,-1.577256203,-1.651160598
24.85,-0.654363155,-1.398409843,-0.949808955
24.86,-0.664957464,-1.390913963,-1.063413501
24.87,0.097847223,-2.077002525,0.492029548
24.88,-0.216886342,-2.902121067,0.467065215
24.89,-0.224352211,-2.894120693,0.384698391
24.9,-0.081722379,-3.949624538,-0.265983582
24.91,-0.025843143,-5.146380424,-1.075923204
24.92,-0.671455443,-7.252871513,-2.914490938
24.93,-1.235066175,-8.434902191,-3.044005871
24.94,-1.266065478,-9.393157005,-2.415874004
24.95,-1.222553134,-9.858860016,-1.940203428
24.96,-1.396046162,-9.617769241,-1.330118299
24.97,-1.429830074,-9.592876434,-1.471237898
24.98,-1.649849176,-9.013953209,-0.566236615
24.99,0.191346318,-6.806177616,0.506902695
25,0.15069896,-6.777450085,0.37655139
25.01,2.316228628,-4.094300747,-0.345912218
25.02,2.26743722,-4.055661678,-0.497935295
25.03,2.648689985,-2.750089645,-0.855552793
25.04,2.131340981,-0.913018227,-0.662326574
25.05,0.434568018,3.799832344,-0.933718443
25.06,-0.223901331,6.742515564,-1.722153902
25.07,-0.419216096,9.598308563,-1.860839844
25.08,-1.523979545,12.91458893,-1.087697744
25.09,-1.519877434,12.92960644,-1.12911272
25.1,-4.147027016,16.57191658,1.014805555
25.11,-4.237610817,15.60714531,1.646925449
25.12,-1.421312451,12.47398186,1.1992836
25.13,0.885211706,9.617660522,0.132435322
25.14,0.820024788,9.626365662,0.113939762
25.15,1.79958427,7.504646301,-0.877099037
25.16,1.190248251,7.721007347,-0.501181364
25.17,1.100253105,8.013373375,0.124057531
25.18,0.905263424,7.701833725,1.925725222
25.19,0.209940493,6.847446442,3.563251734
25.2,-0.68391794,4.669083595,4.581408501
25.21,-0.733919263,4.707370758,4.503395081
25.22,-1.156364799,2.252955437,4.720877647
25.23,-0.15493077,-1.566524982,3.155759811
25.24,3.058317661,-3.780299187,1.492873669
25.25,6.313859463,-5.205573559,1.013651371
25.26,8.191658974,-5.722779274,1.175923347
25.27,6.815737724,-3.875621796,1.143367767
25.28,6.780285835,-3.85133934,1.101782322
25.29,3.515843868,1.912628174,-0.43061018
25.3,2.881333351,4.761262894,-2.182215929
25.31,1.246284127,8.305957794,-3.752226353
25.32,-3.272032738,10.81772518,-1.777289867
25.33,0.612171233,14.97157001,-3.792142868
25.34,0.625765681,14.98378658,-3.82106781
25.35,-1.117806077,13.06495571,-1.847467661
25.36,3.043190956,7.482788086,6.627300262
25.37,3.553643703,4.366785049,5.727178097
25.38,0.459030271,1.565926552,3.584984779
25.39,-4.390063286,-0.789554119,2.063111782
25.4,-4.972050667,-3.645551682,0.956021786
25.41,-4.538882732,-6.096648216,0.596300602
25.42,-4.458587646,-6.166872025,0.72628212
25.43,-4.18888092,-8.321754456,0.956474781
25.44,-7.109007835,-10.52454376,-2.961082935
25.45,-6.756669998,-9.967869759,-5.830384254
25.46,-4.01922369,-9.332607269,-7.889704704
25.47,-3.214549541,-8.875086784,-5.036097527
25.48,-3.220538139,-8.870670319,-1.716351271
25.49,-3.211640835,-8.840654373,-1.78443265
25.5,-3.187620401,-9.776265144,0.399455547
25.51,-3.135267496,-10.66788483,2.622438431
25.52,-2.360385656,-9.696748734,0.49787426
25.53,-1.879978299,-8.130290031,-2.269908428
25.54,-1.869919062,-8.128822327,-2.27377367
25.55,-0.692930281,-3.452340603,-2.778758526
25.56,0.919496656,-0.441381455,-0.670996904
25.57,1.391220212,3.091093063,1.363455296
25.58,0.253834784,6.527323723,3.065980434
25.59,-1.182616711,9.43758297,5.304309845
25.6,-1.086747289,9.42264843,5.334014893
25.61,-2.702095985,11.03588104,6.708864689
25.62,1.649821877,9.840259552,5.623659134
25.63,1.646437287,9.830218315,5.645244122
25.64,2.623037577,9.74184227,4.955753326
25.65,-0.313700467,11.55384922,1.990532398
25.66,-2.151327133,12.56579304,-0.271637917
25.67,-2.126546383,12.5585041,-0.25507164
25.68,-4.350200176,11.07687759,1.484289646
25.69,-4.913930893,9.178311348,2.657020569
25.7,-2.849441767,5.592624664,1.652326584
25.71,-0.480737001,2.115380287,0.970538855
25.72,1.729158044,-1.676411152,1.596060514
25.73,3.465120077,-5.040398598,3.008154631
25.74,3.383542538,-7.083480358,2.464170933
25.75,3.324555159,-7.107145786,2.518608809
25.76,2.982935667,-9.325842857,-1.599951982
25.77,1.972891331,-10.90528679,-5.841808319
25.78,0.320428431,-11.75166988,-7.197433949
25.79,-0.21578452,-11.82468796,-5.103583813
25.8,0.461218596,-12.39218235,-3.426505327
25.81,0.621359289,-12.46232319,-2.243199825
25.82,-0.072986484,-11.84385109,-1.556890011
25.83,-0.133990407,-11.81845474,-1.612804413
25.84,0.078242779,-10.3360548,-0.523519039
25.85,1.003404856,-9.940826416,-1.779018641
25.86,1.053145647,-8.968118668,-4.212532997
25.87,1.894131184,-5.583363533,-6.523351669
25.88,4.32231617,-2.58515501,-4.050798893
25.89,6.845814705,1.400580406,-1.688727617
25.9,6.909083843,4.631807327,-0.151658297
25.91,6.747630119,4.644241333,-0.148944616
25.92,7.218966961,9.997020721,9.094234467
25.93,7.593989849,10.75289917,12.93278408
25.94,4.799386024,11.9623127,9.772633553
25.95,-0.886477947,14.9364748,5.964675426
25.96,-2.037033081,15.21667767,4.409955025
25.97,-1.472514629,13.61284065,2.088461161
25.98,-1.163627744,11.63587475,0.900716543
25.99,-0.80168438,9.972148895,1.204647303
26,-0.816665828,7.839128494,0.761884451
26.01,0.920079112,5.455580711,1.696244001
26.02,2.077448845,2.41169548,4.050109863
26.03,1.581052542,0.535263062,5.691207886
26.04,1.681003571,0.524626732,5.690833569
26.05,-0.258321822,-0.663966179,6.369847298
26.06,-2.08127594,-2.519531727,7.914842606
26.07,-2.777265549,-7.458350182,1.349852324
26.08,-4.007544041,-8.84822464,-4.191056252
26.09,-4.284211159,-9.919104576,-6.657352448
26.1,-4.060835838,-10.93387794,-5.77669239
26.11,-3.736905575,-11.85774612,-4.145723343
26.12,-4.193029404,-12.57000351,-2.708833218
26.13,-3.708189487,-13.51608086,-1.460251808
26.14,-3.65023613,-14.38696861,-0.893528223
26.15,-4.893547535,-14.30191326,0.346255779
26.16,-4.831029892,-13.01781082,-0.456601381
26.17,-3.950729132,-11.46752548,-2.054121971
26.18,-3.16361022,-9.247820854,-3.466791391
26.19,-2.819150209,-6.271738529,-3.990567207
26.2,-1.919351578,-2.349204063,-3.115944386
26.21,1.310173392,1.312693596,0.003116131
26.22,5.597548008,4.82736969,3.893152714
26.23,3.686077595,8.803920746,7.561592579
26.24,-0.666065574,13.0775671,9.868982315
26.25,-0.622341514,13.10923672,9.785056114
26.26,-3.595964909,16.44396782,12.72562599
26.27,-3.579186916,16.447855,12.71549606
26.28,-6.524612427,15.1975441,7.874053001
26.29,-8.491270065,14.21863842,0.476449013
26.3,-8.476794243,14.1767292,0.584824562
26.31,-6.506741524,11.85046196,-3.299141884
26.32,-1.17906034,6.987016678,1.059996843
26.33,0.491813898,4.797190666,2.3650105
26.34,0.940800309,3.559090614,2.748081207
26.35,1.457571626,1.719034195,2.81355834
26.36,1.425836325,1.705867767,2.852766037
26.37,3.701527834,-2.530391216,3.301823616
26.38,3.008891821,-4.906559944,1.402936697
26.39,1.078574061,-7.065876961,-2.104703903
26.4,-0.169234648,-9.055021286,-4.241388321
26.41,0.535847664,-10.58893585,-5.085514545
26.42,1.843376637,-12.30873013,-5.150119781
26.43,1.78415072,-12.32586765,-5.081273556
26.44,2.704359055,-13.70412254,-1.132025957
26.45,2.432049513,-14.83743477,0.225909472
26.46,2.389246941,-14.83821297,0.238679647
26.47,1.590062857,-14.60396957,-0.263542175
26.48,-1.558864355,-13.59929848,-3.368101835
26.49,-1.36103344,-12.43992901,-6.330684662
26.5,-0.854132295,-10.94879341,-7.434535027
26.51,-0.878087521,-10.94599247,-7.437809944
26.52,-0.579434812,-8.606232643,-6.274962425
26.53,4.981675625,2.163984299,0.469618559
26.54,4.946843147,2.179674149,0.424874067
26.55,11.89473343,10.22645855,9.50257206
26.56,5.912604809,11.33645058,10.65374947
26.57,-0.376122832,11.79178429,7.618206024
26.58,-4.352879047,13.0220623,3.300146818
26.59,-2.232052803,12.83835697,2.597349167
26.6,0.73055017,11.59591579,3.479558468
26.61,2.179749012,10.4395504,3.45313859
26.62,1.345127821,10.71970654,4.581141472
26.63,1.621087313,11.25256634,2.756756067
26.64,1.046038866,11.19692612,1.737743139
26.65,1.13043654,11.17779255,1.770059824
26.66,-0.1382038,9.754494667,8.337757111
26.67,-0.520068944,7.036806107,10.17315006
26.68,-0.437810779,7.012090683,10.23324966
26.69,-1.679746747,2.683977127,9.966736794
26.7,-2.624284983,-2.545677185,5.983441353
26.71,-3.92098093,-10.14274216,-3.756855011
26.72,-3.846984148,-12.31327629,-5.120737553
26.73,-3.404237747,-14.0514679,-4.864762306
26.74,-2.801400185,-14.90408611,-3.619616032
26.75,-2.693410873,-14.91608524,-3.568867207
26.76,-2.964764833,-13.79748154,-0.378843546
26.77,-3.175797701,-13.27665424,0.209511161
26.78,-4.275020599,-13.49886227,0.200453639
26.79,-4.773485661,-13.33709431,-1.238845587
26.8,-4.647512913,-12.93727112,-1.813998461
26.81,-4.72740984,-11.63398647,-1.779052734
26.82,-3.280345201,-9.558423996,-1.747256994
26.83,-1.948168874,-7.601416111,-1.921741009
26.84,-1.971067309,-7.59629488,-1.944753647
26.85,2.079676151,1.251737595,2.1369102
26.86,7.945661545,5.513287544,5.123075008
26.87,6.564060688,10.03053188,5.272368431
26.88,6.542317867,10.0529747,5.175362587
26.89,-0.075257465,16.90398598,6.316562653
26.9,-7.701126099,18.73550606,11.34031677
26.91,-6.688345909,15.02280807,8.802957535
26.92,-6.792201042,13.58054733,4.304914474
26.93,-6.102898598,12.85800171,-0.938696981
26.94,-4.054278851,11.49522686,-3.863434315
26.95,-1.564910769,8.779368401,-2.982716322
26.96,-1.577935219,8.774561882,-2.961021662
26.97,0.328218937,5.978743553,-0.148316145
26.98,0.370281458,2.468956947,2.641405344
26.99,0.729305327,1.344899178,3.383862257
27,1.192210078,-0.271195412,4.645734787
27.01,1.06390965,-1.081392288,4.694951057
27.02,0.750677049,-2.934658527,3.451691389
27.03,0.717662334,-2.936365604,3.463450909
27.04,-0.03085193,-4.640956879,1.543636084
27.05,0.605724692,-9.815272331,-1.689063787
27.06,1.132829428,-12.06564522,-1.782628059
27.07,1.272265315,-13.97574043,-2.293035507
27.08,1.312696099,-15.30065918,-2.104086876
27.09,1.262500405,-15.31261635,-2.032316208
27.1,2.207501173,-16.6236763,-1.942144156
27.11,4.380174637,-18.00611496,-2.779915094
27.12,3.350134134,-16.10267067,-3.235488415
27.13,3.296774626,-16.09147644,-3.270224094
27.14,-1.767922878,-8.809263229,-5.2175107
27.15,-4.085156441,-4.97080183,-6.854491711
27.16,-4.039388657,-4.973400593,-6.859554768
27.17,-2.112688541,-1.913530827,-7.337585926
27.18,5.5552001,7.342934608,2.453410387
27.19,9.183431625,10.09819317,4.653903008
27.2,8.814012527,11.86785316,6.044812202
27.21,4.608915329,15.11105537,9.373764992
27.22,2.254002094,16.4264679,12.48313904
27.23,3.062138557,14.59991264,10.39888382
27.24,2.086491346,12.48432064,4.149342537
27.25,-1.042424202,11.63077164,-0.888004541
27.26,-1.87806952,11.23170185,-1.94180572
27.27,-1.809514523,11.22642612,-1.94870913
27.28,-1.895978332,10.87553215,4.908088684
27.29,-3.643103123,10.13869476,7.3894701
27.3,-4.524779797,6.98520565,9.772197723
27.31,-2.068687439,1.25806427,12.17739964
27.32,0.286147773,-4.643415451,11.38618088
27.33,-0.874978602,-7.924158096,5.690045834
27.34,-0.79958725,-7.964220047,5.857976437
27.35,-4.989844799,-10.08864975,-1.55914402
27.36,-5.268480301,-11.46669674,-5.725492477
27.37,-3.553004503,-12.6952343,-5.667595387
27.38,-4.918388844,-12.74512005,-5.598687172
27.39,-4.924369812,-12.51097012,-3.438102245
27.4,-5.297987461,-13.13523102,-0.828677952
27.41,-4.922609329,-14.59749508,0.481954694
27.42,-3.449142933,-15.61731911,-0.134593844
27.43,-1.940346122,-15.7684288,-0.268721342
27.44,-1.98532927,-15.75814819,-0.326360345
27.45,-2.24452734,-11.1449213,-1.358606815
27.46,-2.409858465,-9.10078907,-1.392610788
27.47,-2.833335161,-6.220578671,-0.910891414
27.48,-2.844706297,-6.217034817,-0.928427696
27.49,3.166428328,3.771014214,0.912433624
27.5,3.14469099,3.777144432,0.882904172
27.51,0.100463018,14.55966473,4.653839111
27.52,-6.515410423,18.93220901,10.04789925
27.53,-5.273260117,17.94424057,17.53750038
27.54,-5.310456753,16.4196167,20.47227478
27.55,-6.203986168,14.08446789,13.71663094
27.56,-5.380290985,13.1101532,3.108741522
27.57,-5.376140118,13.09184647,3.179128885
27.58,-5.551046848,12.6094265,-5.53188324
27.59,-4.145083427,11.58749294,-5.034607887
27.6,-1.726629138,8.578140259,1.534629345
27.61,-1.982427239,7.412859917,2.997383595
27.62,-1.66853416,5.317256927,4.272140503
27.63,-0.415223122,3.07248497,5.05243206
27.64,-0.451839417,3.070922852,5.061260223
27.65,0.752165377,-2.699673176,2.907142878
27.66,0.755440116,-5.520705223,0.7640481
27.67,0.695405126,-8.407032967,-1.631968975
27.68,0.973730385,-10.70630264,-3.021273136
27.69,1.639563084,-12.34033489,-3.502187014
27.7,2.987230778,-14.26083755,-3.454258442
27.71,2.951866627,-14.27295303,-3.385838032
27.72,4.060925007,-15.72167015,-3.587060213
27.73,2.854268074,-15.82592392,-2.210407972
27.74,2.819308758,-15.82377625,-2.21365428
27.75,2.773675442,-15.35586452,-0.93797642
27.76,2.796772957,-12.76772213,1.65966785
27.77,0.463082612,-10.06287193,-1.29562211
27.78,-1.814493775,-7.906199455,-5.103251934
27.79,-1.817803144,-7.904074669,-5.112679482
27.8,-0.957976461,-2.565717697,-7.992465019
27.81,-0.964012623,-2.562200546,-8.007543564
27.82,8.698239326,5.9518013,3.683627605
27.83,10.49024582,8.139317513,5.858682632
27.84,5.106763363,10.68869019,6.336268425
27.85,0.627936482,13.09015846,6.92092514
27.86,-0.382348836,14.2193737,7.550266743
27.87,3.512347937,12.31968021,8.252316475
27.88,4.717740536,10.35366821,7.145353794
27.89,2.274363995,9.703561783,4.378185272
27.9,2.318139076,9.696557045,4.383495331
27.91,-1.567124605,10.20728683,2.812262535
27.92,-2.507442236,10.95724678,0.488729715
27.93,-2.399377823,11.27605534,1.025169134
27.94,-2.309484482,11.2656889,1.032959938
27.95,-2.648225307,11.21984386,5.228913307
27.96,-2.582165718,6.25547123,12.28840351
27.97,-1.296895504,0.751973152,12.14924908
27.98,-1.245718241,0.722860336,12.26010799
27.99,-0.5088678,-10.34507942,1.23817265
28,-2.059354067,-14.36287308,-4.172674179
28.01,-3.056509256,-16.94667816,-7.55728054
28.02,-3.462973118,-17.85798645,-8.958580971
28.03,-3.792545795,-17.14022446,-8.305577278
28.04,-4.114048958,-14.81803608,-5.04772377
