Time (s),Linear Acceleration x (m/s^2),Linear Acceleration y (m/s^2),Linear Acceleration z (m/s^2)
0,-0.139853537,0.032325745,0.018354639
0.01,-0.237589777,0.032347679,0.377706915
0.02,-0.372412324,0.032440186,0.483553618
0.03,-0.309627414,-0.048810005,0.489727646
0.04,-0.163023472,-0.168365479,0.177670509
0.05,-0.1605528,-0.168254852,0.180849284
0.06,-0.12684691,-0.216012955,0.026587836
0.07,-0.18394351,-0.132073402,0.004163936
0.08,-0.083589196,-0.086490631,0.038267411
0.09,-0.082793772,-0.086454391,0.041179992
0.1,-0.003700078,0.011712074,0.157078877
0.11,-0.10477072,0.033211708,0.189958394
0.12,-0.131199122,0.033183098,0.134424508
0.13,-0.05992043,0.033146858,0.078977659
0.14,-0.061604321,0.033025742,0.084020622
0.15,0.123045862,0.013741493,-0.163929582
0.16,0.121117413,0.013616562,-0.157747701
0.17,-0.11148721,0.00640583,-0.072007857
0.18,-0.378729045,-0.007907867,-0.085254729
0.19,-0.29766959,0.044753075,0.072906435
0.2,0.00336355,-0.034433365,0.258022398
0.21,0.305979818,-0.156898499,0.7710464
0.22,0.307711333,-0.219579697,0.835804105
0.23,0.145201862,-0.19600296,0.624189436
0.24,-0.026898146,-0.04540062,0.171921343
0.25,-0.174995661,0.004778862,-0.271270692
0.26,-0.208066344,0.016629219,-0.601210773
0.27,-0.211705029,0.016440392,-0.599011302
0.28,-0.081121147,0.03049469,-0.565339387
0.29,-0.066614926,0.109149933,0.772234857
0.3,-0.149430782,0.072961807,1.098324656
0.31,-0.102487266,0.041712761,0.712175906
0.32,-0.111484915,0.024870873,0.226911426
0.33,-0.114875197,-0.051807404,-0.058294807
0.34,-0.0745956,-0.073377609,0.153797329
0.35,0.089900643,-0.219470978,0.242558077
0.36,0.08848083,-0.219531059,0.243611038
0.37,0.068629414,-0.214799881,-0.022822239
0.38,-0.110720545,-0.16932106,-0.075538002
0.39,-0.146723807,-0.147778511,-0.083997533
0.4,-0.160438329,-0.102375984,0.020228572
0.41,-0.141753167,-0.006759644,0.164581314
0.42,0.050472856,0.028946877,0.067670979
0.43,-0.104552805,0.067051888,0.179089159
0.44,-0.107454389,0.066900253,0.179920152
0.45,-0.410475344,0.040505409,0.402657121
0.46,-0.16245082,0.016505241,0.150594935
0.47,-0.095427752,-0.021934509,0.001012282
0.48,-0.280062437,-0.014882088,0.040327355
0.49,-0.288861036,0.0281353,0.157036692
0.5,-0.060869128,0.028039932,0.171909452
0.51,-0.065006226,0.027853966,0.173157141
0.52,0.186507046,-0.101652145,-0.064341269
0.53,0.196630091,-0.149741173,-0.061906293
0.54,0.193841487,-0.149870873,-0.059835844
0.55,0.053524375,-0.149945259,-0.059246976
0.56,-0.079274982,0.008021355,0.284258246
0.57,0.087049693,0.015162468,0.289131045
0.58,0.032293588,0.027038574,0.504686654
0.59,-0.021966726,0.026970863,0.525502026
0.6,-0.190737337,0.038895607,0.153777689
0.61,-0.171156734,0.110737801,-0.070931695
0.62,-0.17977199,0.026981354,-0.071311653
0.63,0.023463309,-0.064014435,0.058287505
0.64,0.327653468,-0.135944367,0.520649791
0.65,0.324335873,-0.136092186,0.517944515
0.66,-0.241558373,-0.066684723,0.127904341
0.67,-0.320754498,0.026769638,-0.066547215
0.68,-0.159527689,0.026911736,0.141317517
0.69,0.040122509,-0.023330688,-0.070413098
0.7,0.072440594,0.014928818,-0.068731643
0.71,-0.021178752,0.026779175,0.229208261
0.72,0.020819366,-0.00210762,0.511347115
0.73,0.011976272,-0.031012535,0.46997124
0.74,-0.031367272,0.026337624,0.076042891
0.75,-0.264620632,0.02630806,-0.063560255
0.76,-0.385395259,0.033543587,0.022278523
0.77,-0.38343665,0.033631325,0.021075211
0.78,-0.082713962,-0.124339104,0.544906914
0.79,0.063685358,-0.136287689,0.430209816
0.8,0.022652417,-0.078839302,0.369160265
0.81,0.022273511,-0.078860283,0.372022212
0.82,0.233589649,-0.043026924,-0.278194755
0.83,0.223267213,-0.021621704,-0.121010371
0.84,0.220015511,0.026123047,0.071400724
0.85,0.166923583,0.049948692,0.221016586
0.86,0.165129095,0.049862862,0.22044614
0.87,-0.156314373,0.064204216,0.417571396
0.88,-0.156689346,0.06417942,0.418293774
0.89,-0.168809801,-0.072285652,-0.047399193
0.9,-0.147389442,-0.091453552,0.035499021
0.91,-0.258194983,-0.115427971,0.194994569
0.92,-0.205602318,-0.103450775,0.285326541
0.93,-0.098336607,-0.12263298,0.23558566
0.94,0.039255887,-0.134652138,0.152090117
0.95,0.145025492,-0.137141228,0.094973706
0.96,0.142908216,-0.137220383,0.092413299
0.97,-0.018708229,0.020749092,0.203717947
0.98,-0.231873363,0.025532722,0.410027802
0.99,-0.231045961,0.025586128,0.404949278
1,0.015883058,-0.019874573,0.126113579
1.01,-0.013795614,-0.027119637,0.116939426
1.02,-0.072269857,-0.024763107,0.017092792
1.03,-0.099746704,0.013511658,-0.062774569
1.04,-0.101078957,0.013444901,-0.060889099
1.05,-0.04513818,0.05168438,0.175975546
1.06,-0.046380579,0.051635742,0.175678968
1.07,0.179330587,-0.051384926,0.420845926
1.08,0.01827696,-0.19277668,0.624143958
1.09,-0.102935612,-0.171279907,0.440156251
1.1,-0.260457873,-0.001255035,0.434930593
1.11,-0.257784843,-0.001150131,0.433210462
1.12,-0.080409259,-0.11836338,0.046618454
1.13,0.082484871,-0.144694328,-0.365240574
1.14,0.079890311,-0.144813538,-0.36174342
1.15,-0.026608914,-0.001293182,-0.01252119
1.16,-0.180495292,0.046476364,0.381398648
1.17,-0.227962852,0.135025978,0.432266235
1.18,-0.229758114,0.151820183,0.306978583
1.19,-0.263686627,0.118398666,0.351395428
1.2,-0.296348184,0.029943466,0.275555521
1.21,-0.279841006,-0.041695595,0.276165724
1.22,-0.064122796,-0.048682213,0.096403256
1.23,-0.012701392,-0.043765068,-0.087819792
1.24,-0.016968906,-0.022122383,-0.082187429
1.25,0.042636722,0.006690979,0.204373241
1.26,0.098859459,0.016324997,0.468982071
1.27,0.178430483,-0.005213737,0.349129617
1.28,0.188565955,0.004382133,0.259452105
1.29,0.127541006,-0.026688576,0.15225865
1.3,0.129260093,-0.026618958,0.156131059
1.31,-0.356424719,-0.079183578,0.131198078
1.32,-0.255297393,-0.134123802,-0.063941307
1.33,-0.160031349,-0.148431778,-0.056869652
1.34,-0.159526616,-0.148394585,-0.053716321
1.35,-0.216396928,-0.057397842,-0.040710215
1.36,-0.320198536,0.026467323,-0.226924524
1.37,-0.365503937,0.103194237,-0.096833453
1.38,-0.288058251,0.09855938,-0.052135974
1.39,-0.285065919,0.098690033,-0.053874012
1.4,0.192250803,0.050844193,0.38200444
1.41,0.075396746,0.029328346,0.566881239
1.42,0.077005476,0.029392242,0.565579295
1.43,0.074274749,0.027090073,0.311531365
1.44,0.274098933,-0.03032589,-0.067057669
1.45,0.197031155,-0.085419655,-0.05244948
1.46,-0.006083578,-0.181157112,0.016550411
1.47,0.038343459,-0.068577766,-0.06498155
1.48,-0.063207835,0.022469521,0.005814422
1.49,-0.386755586,0.027347565,0.394226253
1.5,-0.318975091,0.049051285,0.599130034
1.51,0.068254679,-0.032269478,0.606642604
1.52,0.019380629,-0.099349976,0.406896174
1.53,-0.197764516,-0.104113579,0.342753768
1.54,-0.003493398,-0.058491707,0.039353285
1.55,-0.00162673,-0.058400154,0.039575513
1.56,-0.06291312,-0.144560814,-0.300876498
1.57,-0.062554091,-0.144538879,-0.300227612
1.58,0.157822609,-0.094348907,-0.292310566
1.59,0.024987131,0.121091843,0.372359127
1.6,-0.188047022,0.15464592,0.502650559
1.61,-0.186395466,0.154738426,0.495328248
1.62,-0.390437007,0.212449074,0.669725835
1.63,-0.137869448,0.07377243,0.310052693
1.64,-0.13477397,0.073919296,0.310067684
1.65,0.128704339,-0.100764275,0.075310931
1.66,0.152212858,-0.117440224,0.20300819
1.67,0.142281324,-0.124527931,0.016865026
1.68,0.279221058,-0.148357391,-0.131447524
1.69,0.289944768,-0.184130669,-0.140063599
1.7,0.184720606,-0.222207069,-0.191387966
1.71,-0.071942389,-0.051882744,-0.218287751
1.72,-0.266763568,0.034754753,-0.191616565
1.73,-0.257317722,0.035233498,-0.192497909
1.74,-0.601451278,0.260733604,0.265130729
1.75,-0.482356548,0.265910149,0.571147263
1.76,-0.049508095,0.232651711,0.578166306
1.77,0.206042945,0.117883682,0.664203525
1.78,0.276887208,0.086899757,0.594355404
1.79,0.33234182,0.032053947,0.358665228
1.8,0.335994393,0.032296181,0.352114737
1.81,-0.284485281,0.102148056,-0.046803251
1.82,-0.324247658,0.1577034,-0.025329888
1.83,-0.316193223,0.158180237,-0.027702518
1.84,-0.368329048,-0.102319717,0.253226668
1.85,-0.089722097,-0.173753738,0.033107638
1.86,0.07420963,-0.257295609,0.035371929
1.87,0.418891609,-0.19483757,0.155574545
1.88,0.628903568,-0.187458992,-0.103073455
1.89,0.177306026,-0.0195961,0.260935307
1.9,-0.458311915,0.136623383,0.29065299
1.91,-0.70539844,0.460720062,-0.085303813
1.92,-0.669175386,0.24601078,-0.410391331
1.93,-0.500634909,0.047818184,-0.186396241
1.94,-0.496856809,0.048172951,-0.194815487
1.95,-0.150567412,-0.351319313,0.592374742
1.96,0.094748676,-0.413243294,0.40426296
1.97,0.109715998,-0.259674072,0.037248865
1.98,0.018666923,-0.192282677,-0.259300947
1.99,0.023384035,-0.191996574,-0.257748783
2,0.329579026,-0.115246773,-1.262474418
2.01,0.329306215,-0.115225792,-1.264561534
2.02,-0.131715059,0.050185204,0.135620311
2.03,-0.400918424,0.074747086,0.580020309
2.04,-0.398745179,0.075632095,0.549458265
2.05,-0.376297236,0.210687637,1.464860201
2.06,-0.374257982,0.211813927,1.432832241
2.07,-0.038607717,0.138853073,1.258125186
2.08,0.166743785,0.039353371,0.871307969
2.09,0.14038378,-0.108158112,0.615615189
2.1,0.16364646,-0.224586487,0.387469351
2.11,0.473717064,-0.314791679,0.243618071
2.12,0.471675485,-0.314368248,0.231072128
2.13,-0.221293211,-0.242202759,0.020019501
2.14,-0.582984448,-0.105237961,-0.194702476
2.15,-0.727274895,0.050869942,-0.291178852
2.16,-1.031000614,0.103950501,-0.615399838
2.17,-0.711290538,0.051710129,-1.14299345
2.18,-0.057695031,-0.189834595,-1.510378838
2.19,0.415411323,-0.340640068,-1.754574537
2.2,0.412464708,-0.340474129,-1.762949467
2.21,0.288516492,-0.372518539,-0.134637237
2.22,0.285689145,-0.370227814,-0.182223469
2.23,-0.050131977,-0.175889015,1.099719644
2.24,-0.519874513,-0.016972542,1.961467981
2.25,-0.670381546,0.065068245,1.950490952
2.26,-0.2162323,-0.004473686,1.230512738
2.27,0.213606447,-0.036455154,0.265767336
2.28,0.203730196,-0.035254478,0.241004467
2.29,-0.011289895,-0.105622292,-0.225320458
2.3,0.175211966,-0.074788094,-0.179280579
2.31,0.603034437,-0.105690956,0.339218676
2.32,0.501080632,-0.282398224,0.863369763
2.33,0.035440326,-0.147656441,1.040368557
2.34,-0.499527454,-0.197485924,1.144019365
2.35,-0.764605224,-0.305335045,1.347538948
2.36,-0.907660663,-0.291668892,1.262527347
2.37,-0.908061028,-0.290786743,1.253843546
2.38,-0.821193814,0.035355568,0.185642481
2.39,-0.495490193,0.044942856,-0.392509162
2.4,-0.187876344,-0.019888878,-0.460780859
2.41,0.322783232,-0.192251205,0.169007659
2.42,0.304772496,-0.191725731,0.15419817
2.43,0.687946022,-0.276995659,0.916392922
2.44,0.016370416,-0.115766525,1.159818411
2.45,0.018476605,-0.11482048,1.152505636
2.46,-0.721955299,-0.042144775,1.627020717
2.47,-0.637362897,0.04904747,1.096565485
2.48,-0.285538316,0.037953377,0.395270944
2.49,0.191749692,-0.07919693,-0.236659288
2.5,0.56753248,-0.191880226,-0.2972368
2.51,0.578290105,-0.265987396,-0.125913382
2.52,0.535500705,-0.263028145,-0.055707157
2.53,0.529812157,-0.26458931,-0.043747485
2.54,0.190036923,-0.208494186,0.015285015
2.55,-0.289748311,-0.166477203,0.164414585
2.56,-0.284724772,-0.167180061,0.174274743
2.57,-0.633021534,-0.076093674,0.419339836
2.58,-0.632051051,-0.075736046,0.416242421
2.59,0.168558836,-0.171113968,0.625835717
2.6,0.307975411,-0.185352325,0.69038862
2.61,0.404371381,-0.206737518,0.675719619
2.62,0.398433983,-0.206591606,0.671320915
2.63,0.278625667,-0.125606537,0.091047466
2.64,-0.084205747,0.005473137,0.235168636
2.65,-0.478443265,0.079428673,0.222749651
2.66,-0.780106545,0.07913208,0.189955652
2.67,-0.775063574,0.078822136,0.195618928
2.68,-0.268044353,-0.060657501,-0.359862506
2.69,0.040471584,-0.111948013,-0.305443704
2.7,0.094031513,-0.129766464,-0.171159685
2.71,0.34174794,-0.097139359,-0.217896521
2.72,0.541317225,-0.114928246,-0.37336129
2.73,0.51563865,-0.058429718,-0.406263053
2.74,0.514319658,-0.059112549,-0.399648547
2.75,-0.458061665,0.072470665,0.397346079
2.76,-0.451675624,0.073033333,0.394920349
2.77,-0.395798147,-0.149116516,0.850866199
2.78,-0.027240872,-0.344890595,1.254416227
2.79,-0.030863136,-0.34414196,1.244624615
2.8,0.230085939,-0.412668228,1.256651163
2.81,-0.150893897,-0.045783043,0.361324906
2.82,-0.114328474,-0.033891678,-0.224116027
2.83,0.094360977,-0.121195793,-0.56463778
2.84,0.222953826,-0.249627113,-0.820713103
2.85,0.217306465,-0.250995636,-0.809271753
2.86,0.298754275,-0.328225136,-0.009366393
2.87,0.014808714,-0.232239723,0.516788006
2.88,0.013273299,-0.231535912,0.508654237
2.89,-0.487259805,0.11151886,0.806872129
2.9,-0.487952769,0.231621742,0.59165585
2.91,-0.481404811,0.231701851,0.594155014
2.92,-0.397071868,0.111537933,-0.342735708
2.93,-0.392377704,0.110548973,-0.32987839
2.94,-0.14493677,-0.098751068,-0.427800953
2.95,0.205843538,-0.245808601,-0.391270995
2.96,0.507904947,-0.409570694,-0.528261721
2.97,0.52001226,-0.230593681,0.361698866
2.98,-0.095042378,-0.079966545,0.694457829
2.99,-0.089138865,-0.080033302,0.698637307
3,-0.520503342,0.096533775,0.301973581
3.01,-0.513560832,0.095759392,0.31481117
3.02,-0.618277013,0.147302628,-0.267656863
3.03,-0.429084599,0.021536827,-1.185066223
3.04,-0.428764999,0.020465851,-1.172007322
3.05,0.106127322,-0.18392086,-1.085806966
3.06,0.103466868,-0.184293747,-1.08296299
3.07,0.132676661,0.023900986,-0.46274215
3.08,0.13454479,0.17288971,0.364437699
3.09,-0.222332567,0.341975212,1.456125617
3.1,-0.392237067,0.361188889,2.181963205
3.11,-0.390354186,0.36345005,2.15749836
3.12,-0.310432822,0.294457436,2.389342308
3.13,0.227991968,0.146798134,1.399159312
3.14,0.230041027,0.149623871,1.371388197
3.15,0.112915248,0.079926491,0.851122975
3.16,0.186056286,-0.156160355,0.282196403
3.17,0.26543498,-0.41914463,-0.328636825
3.18,-0.002759576,-0.459115028,-1.084996819
3.19,-0.539980054,-0.287910461,-1.233467817
3.2,-0.529997885,-0.288544655,-1.221091151
3.21,-0.650568843,-0.259832382,-0.558857441
3.22,-0.650546908,-0.259230614,-0.565125346
3.23,-0.290902138,-0.104922295,0.286551118
3.24,-0.059481323,0.010928154,0.35645467
3.25,0.011611342,0.095430374,0.244462729
3.26,0.175496042,0.177251816,-0.160214126
3.27,0.524531722,0.143885613,-0.059343994
3.28,0.519419253,0.144145012,-0.064495504
3.29,0.337394089,-0.005740166,0.89467597
3.3,0.045162916,-0.037952423,1.22665596
3.31,-0.378797799,-0.043344498,1.416490316
3.32,-0.700884759,0.07141304,1.443907857
3.33,-0.815497696,0.105104446,0.625323176
3.34,-0.804622531,0.106032372,0.622031212
3.35,-0.623500705,0.096029282,-0.22197628
3.36,0.177577913,-0.113636017,-1.021538258
3.37,0.525090039,-0.309393883,-0.682172418
3.38,0.520937026,-0.310749054,-0.671429157
3.39,0.232063651,-0.407148361,0.047193646
3.4,-0.020466685,-0.253785133,0.170068622
3.41,-0.256445706,-0.081075668,0.047926188
3.42,-0.494048178,0.079627991,0.043889999
3.43,-0.734309554,0.225991249,0.094734073
3.44,-0.743070126,0.262224197,0.180946827
3.45,-0.403768659,0.21944046,0.117897391
3.46,-0.102732599,0.085226059,-0.151677191
3.47,0.105978847,-0.068482399,-0.066791415
3.48,0.103233099,-0.06891346,-0.064271331
3.49,0.295000345,-0.296539307,0.309792638
3.5,0.293854207,-0.289341927,0.282702208
3.51,0.29619053,-0.289167404,0.282202601
3.52,-0.29534775,0.020008087,0.195474863
3.53,-0.288252533,0.020417213,0.195575595
3.54,-0.86335367,0.317722321,0.203860283
3.55,-0.374419868,0.229322434,-0.21004951
3.56,-0.372506023,0.228774071,-0.203576148
3.57,0.139207482,-0.004357338,-0.373819053
3.58,0.335162163,-0.098611832,-0.277259946
3.59,0.32886827,-0.099358559,-0.273519754
3.6,0.610261381,-0.229208946,0.238625526
3.61,0.171581656,-0.00447464,0.249880552
3.62,0.174275428,-0.004599571,0.252527177
3.63,-0.195684969,-0.105233192,0.187340021
3.64,-0.191280007,-0.105114937,0.188751936
3.65,-0.601059318,-0.281790733,0.869713843
3.66,-0.732080281,-0.120410919,0.50038147
3.67,-0.35036993,-0.086167336,-0.194225013
3.68,-0.351356328,-0.086519241,-0.1914168
3.69,-0.227953851,-0.058623314,-0.707159519
3.7,0.081748098,-0.102470398,-0.732096374
3.71,0.507019579,-0.107749939,-0.178832889
3.72,0.227593094,-0.023674965,0.382155597
3.73,-0.13727212,0.029971123,0.700945914
3.74,-0.403273046,0.093284607,0.722818673
3.75,-0.39918679,0.094129562,0.716981649
3.76,-0.678606868,0.233575821,0.190131784
3.77,-0.429147124,0.12834549,-0.176873624
3.78,-0.211439669,-0.001400948,-0.302777529
3.79,-0.033152819,-0.157821655,-0.147364914
3.8,0.206098676,-0.270985603,0.009344876
3.81,0.541379094,-0.309816361,-0.221773922
3.82,0.533631384,-0.310411453,-0.2203933
3.83,0.236925572,-0.138364792,0.180306077
3.84,-0.041019678,-0.023351669,0.583895981
3.85,-0.182661355,0.082335472,0.533820033
3.86,-0.179836929,0.082363129,0.535078466
3.87,-0.231591761,0.146930695,0.343819797
3.88,-0.800082147,0.211457253,0.148361743
3.89,-0.796004653,0.211345673,0.151830554
3.9,-0.480477452,0.081626892,0.033693373
3.91,-0.069487274,-0.096337318,-0.177053094
3.92,0.459723413,-0.319786072,-0.458085179
3.93,0.439356625,-0.23914814,-0.554433227
3.94,0.060708791,-0.083971977,-0.237612128
3.95,-0.179896414,0.035853386,0.133092821
3.96,-0.138827026,0.079442024,0.349804163
3.97,0.051733017,0.0513134,0.481043339
3.98,-0.219921053,0.015955925,0.682077944
3.99,-0.399264455,0.004580498,0.818788588
4,-0.171812832,-0.049939156,0.477073968
4.01,0.301979542,-0.131320953,-0.112256229
4.02,0.412402809,-0.215908051,-0.427791357
4.03,0.321994603,-0.109092712,-0.32513988
4.04,0.320489883,-0.109766007,-0.319074273
4.05,-0.287026227,0.042988777,-0.302993238
4.06,-0.187730491,-0.17287159,-0.014558554
4.07,-0.090744972,-0.223237991,0.360472083
4.08,-0.091541529,-0.223031998,0.357976794
4.09,-0.30016768,-0.000225067,0.499034822
4.1,-0.526263654,0.078595161,0.170402646
4.11,-0.361485064,0.018381119,-0.079557776
4.12,-0.360054195,0.017745018,-0.072209358
4.13,0.552335441,-0.385308266,0.098857284
4.14,0.543582857,-0.386029244,0.101181924
4.15,0.590479791,-0.383927345,0.247033775
4.16,-0.089001298,-0.144633293,0.029327631
4.17,-0.36959064,-0.051172256,-0.034907699
4.18,-0.564382136,0.035169601,-0.273647904
4.19,-0.263518095,-0.022223473,-0.578415752
4.2,-0.328340352,-0.003110886,-0.374526322
4.21,-0.400741696,-0.062788963,-0.135084271
4.22,-0.158481479,-0.146261215,0.116465747
4.23,-0.082048535,-0.1242733,0.525608301
4.24,-0.063505352,-0.173906326,0.819787324
4.25,0.074566424,-0.182810783,0.823157966
4.26,0.319846749,-0.197024345,0.24147749
4.27,0.31884712,-0.197291374,0.243593991
4.28,0.121196359,-0.051561356,-0.099738121
4.29,-0.211370766,0.077288628,0.034532309
4.3,-0.663196921,0.139184952,0.291787207
4.31,-0.652354658,0.139000893,0.300079346
4.32,-0.480698705,0.040504456,0.452769399
4.33,-0.472284079,0.001592636,0.376756072
4.34,-0.111892939,-0.126029015,-0.128703475
4.35,0.000943422,-0.168060303,-0.129094482
4.36,0.265731812,-0.329953194,-0.276699483
4.37,0.489735454,-0.250361443,-0.338856936
4.38,0.492856652,-0.252233505,-0.314636767
4.39,0.408086091,-0.217967987,-0.309119135
4.4,-0.393835485,0.087491035,1.142560124
4.41,-0.274817348,0.149001122,1.264089108
4.42,-0.26647079,0.147022247,1.297396421
4.43,-0.139565945,0.063055992,1.631919146
4.44,-0.124854565,-0.136170387,0.478158057
4.45,0.153773665,-0.438522339,0.240076602
4.46,0.331756592,-0.656973839,-0.464147955
4.47,0.332285225,-0.61420536,-1.316879272
4.48,0.205482334,-0.578174591,-1.506091118
4.49,-0.116134584,-0.751924515,-1.731374741
4.5,-0.109680116,-0.752737045,-1.693761826
4.51,-0.128114939,-0.717267036,-2.087890625
4.52,-0.922330439,-0.360443115,-1.355352998
4.53,-0.955685556,-0.216497421,-1.080891252
4.54,-0.580184698,-0.127678871,-0.706891179
4.55,-0.583916009,-0.127752304,-0.714170218
4.56,0.38844949,-0.360190392,-0.07215181
4.57,0.48375386,-0.410598755,0.336463392
4.58,0.325573355,-0.309861183,0.899482131
4.59,0.315856427,-0.309318543,0.866146445
4.6,0.008684158,-0.095462799,0.796029806
4.61,-0.151113212,-0.00847435,0.866348505
4.62,-0.153470457,-0.00770092,0.845327437
4.63,0.032056093,0.048013687,0.278722763
4.64,0.031640053,0.048547745,0.26677838
4.65,-0.785856009,0.013308525,0.379337221
4.66,-0.56461072,-0.204025269,0.103019238
4.67,-0.571202219,-0.203763008,0.089669108
4.68,0.583834052,-0.838165283,-0.550105572
4.69,0.700880647,-0.854721069,-0.613097847
4.7,0.691802144,-0.854085922,-0.634147406
4.71,0.029854238,-0.201497078,0.600873292
4.72,-0.266863644,0.083203316,1.104417324
4.73,-0.200903833,0.197978973,1.126204848
4.74,-0.567783594,0.226322174,0.97115624
4.75,-1.174242496,0.285579681,0.534560084
4.76,-1.253292084,0.150671959,0.028210521
4.77,-1.008623123,0.063285828,-0.263393074
4.78,-0.357400298,-0.038863182,-0.313641638
4.79,0.106799603,-0.181756973,-0.067553461
4.8,0.354449749,-0.070737839,0.279893339
4.81,0.343317092,-0.06962204,0.257953048
4.82,0.004437983,0.073079109,0.727490187
4.83,-0.530604184,0.483864784,0.715518355
4.84,-0.865866721,0.638343811,0.725125492
4.85,-0.821443558,0.531702995,0.225162149
4.86,-0.598741651,0.328726769,-0.39150241
4.87,-0.672620654,0.158949852,-0.692011416
4.88,-0.611131847,0.056344986,-0.063399076
4.89,-0.631894708,-0.00980854,0.26778841
4.9,-0.63817817,-0.008987427,0.255041301
4.91,-0.376749754,0.056209564,0.388890564
4.92,-0.371203423,-0.211518288,0.406817257
4.93,-0.145893991,-0.384647369,0.293367088
4.94,-0.143304825,-0.383197784,0.279953539
4.95,0.01197803,-0.508497238,0.160680175
4.96,0.008515716,-0.507189751,0.14580965
4.97,0.33240512,-0.392020226,-0.536826074
4.98,0.288713098,-0.274464607,-0.886934459
4.99,0.149287701,-0.032349586,-0.549852669
5,0.249355659,0.083425522,0.215376377
5.01,0.253085196,0.089224815,0.517367005
5.02,0.096742153,0.085231781,-0.027985811
5.03,-0.073136508,0.0448246,-0.874665022
5.04,0.106210411,-0.041374207,-1.246838212
5.05,0.447482765,-0.177601814,-1.167330265
5.06,0.458916128,-0.253585815,-0.787365317
5.07,0.465934962,-0.243023872,-0.084251761
5.08,0.571939051,-0.328158379,0.027519822
5.09,0.644547761,-0.167176247,-0.492724061
5.1,0.358855695,0.024041176,-1.179644227
5.11,-0.001870096,0.372363091,-1.605991483
5.12,-0.236798167,0.737068176,-1.801183939
5.13,-0.195995301,0.988850594,-1.906249046
5.14,-0.268045902,1.127638817,-2.09077549
5.15,-0.262485564,1.17282486,-2.009212017
5.16,-0.272366345,1.170509338,-1.99016881
5.17,-0.407627702,0.740175247,-0.41227597
5.18,-0.678265452,0.238613129,0.275273204
5.19,-0.630454779,-0.073742867,0.124863863
5.2,-0.376475781,-0.716974258,-0.451939344
5.21,-0.24495779,-1.257630348,-1.017624617
5.22,-0.247274697,-1.259327888,-1.001011848
5.23,-0.051462695,-1.528660774,-1.313064814
5.24,0.047046632,-1.656104088,-1.640645027
5.25,0.066486284,-1.486142159,-1.425318003
5.26,0.064628676,-1.485635757,-1.43084693
5.27,0.13002412,-1.298075676,-1.188102961
5.28,0.208942831,-0.794415474,-0.741825104
5.29,0.122739226,-0.650683403,-0.613737941
5.3,0.205161482,-0.623127937,-0.709044576
5.31,0.253243029,-0.736438751,-0.898794949
5.32,0.231810719,-0.69897747,-1.223462939
5.33,0.226509839,-0.702662468,-1.179189324
5.34,-0.073716268,-0.457716942,-1.253371119
5.35,-0.069790885,-0.380222321,-1.315339327
5.36,-0.028668836,-0.321675301,-0.702012241
5.37,-0.104120657,-0.50165081,-0.604172111
5.38,0.021510258,-0.403262138,-0.697084546
5.39,-0.112873375,-0.213605881,-0.602464676
5.4,-0.253015935,-0.069044113,-0.489062011
5.41,-0.080097243,0.028002739,-0.738246679
5.42,0.027676299,0.321493149,-0.793457151
5.43,-0.031347036,0.833063126,-0.563765049
5.44,-0.474655181,1.488607407,-0.474613339
5.45,-0.463795185,1.488436699,-0.462642074
5.46,-0.826428115,2.158730507,-0.620786965
5.47,-1.11204803,3.379700661,-1.05527544
5.48,-1.082369447,3.379696846,-1.024266005
5.49,-0.514234185,3.602542877,-0.282733232
5.5,-0.368741423,3.622055054,0.154038951
5.51,-0.209810644,3.684679985,0.405762494
5.52,-0.195144266,3.685013771,0.417690963
5.53,0.773300886,4.058774948,1.052779198
5.54,1.047448397,3.960865974,1.920216799
5.55,1.06351757,3.96128273,1.938812852
5.56,0.716750026,3.727295876,2.838156223
5.57,-0.481211335,2.542841911,2.874278784
5.58,-0.01315248,1.712480545,2.177162409
5.59,-0.011643976,1.712463379,2.194356918
5.6,0.554739595,0.297011375,1.830602765
5.61,0.540624857,0.296392441,1.820157528
5.62,0.299774826,0.03968811,2.45751667
5.63,-0.19053638,0.089767456,2.995453358
5.64,-0.555409789,0.09948349,3.171026707
5.65,-1.324247599,0.365689278,2.781453609
5.66,-1.324703097,0.36630249,2.752972603
5.67,-1.491671801,0.517781258,1.975712895
5.68,-1.51066184,0.626151085,1.287257433
5.69,-1.036278129,0.844700813,0.675156295
5.7,-0.686524749,0.699172974,0.732206583
5.71,-0.690928698,0.699641228,0.711110711
5.72,-0.279451668,0.381679535,0.959778309
5.73,0.224603102,0.032640457,1.378183126
5.74,0.426456004,-0.507687569,1.860641956
5.75,-0.254961759,-1.43817234,1.205984712
5.76,-0.265004009,-1.437335968,1.18001461
5.77,-0.687915802,-1.893988132,0.55696106
5.78,-0.55921483,-3.013442993,0.059020221
5.79,-0.349760622,-3.515982151,0.366173565
5.8,-0.354437679,-4.037918091,0.332257927
5.81,-0.339981854,-4.033345222,0.279844225
5.82,0.586329758,-4.563735008,-0.403152138
5.83,1.02367878,-4.775942802,-0.300519645
5.84,0.91990304,-4.746229649,-0.431834817
5.85,0.854121208,-4.572361946,-0.294603527
5.86,0.729474068,-4.297573566,-0.21136725
5.87,0.63970989,-3.929144382,-0.307372302
5.88,0.618156791,-3.929378033,-0.311915547
5.89,0.272609055,-3.383716106,-0.642631054
5.9,-0.376873076,-2.179560661,-0.795936644
5.91,-0.484413803,-1.901999474,-0.626991272
5.92,-0.493120283,-1.902302742,-0.625687718
5.93,-1.125871539,-1.22276783,0.102366865
5.94,-1.151563048,-1.075180054,0.171756983
5.95,-0.943845213,-0.942358971,0.185333788
5.96,-0.590647996,-0.778711319,0.324175835
5.97,-0.581779778,-0.780574799,0.353427589
5.98,-0.564109623,0.041145325,0.105245411
5.99,-0.850609303,0.886740685,-0.574606299
6,-1.067160845,2.048247337,-1.382619858
6.01,-1.08995533,3.126002312,-1.944504261
6.02,-1.071423054,3.124379158,-1.901408195
6.03,-1.24770236,4.212738991,-1.808145761
6.04,-1.693128347,4.925902367,-0.657146514
6.05,-1.984472752,4.842146873,0.90698278
6.06,-1.723389745,4.229148865,1.868010402
6.07,-1.509987116,3.369111061,0.941120863
6.08,-1.121701956,4.057273865,-0.402092546
6.09,-0.587452292,4.522460938,-1.225559235
6.1,-0.577117622,4.521066666,-1.157231212
6.11,0.351052284,4.563178062,-0.583218396
6.12,0.927073479,4.335172653,2.153809786
6.13,0.714698315,3.815430641,3.856910467
6.14,0.721096456,3.815526962,3.873744249
6.15,0.592181325,1.328003883,5.037412167
6.16,0.592884958,1.327978134,5.042943954
6.17,1.413748622,-0.992133141,3.21243906
6.18,1.348642111,-1.447031975,1.654917479
6.19,1.688964963,-1.631233215,-0.098047011
6.2,1.867892861,-1.497104645,-0.783657312
6.21,1.771404386,-1.047087669,-0.313841194
6.22,1.75408113,-0.513383865,0.637384057
6.23,1.559004664,-0.329263687,1.122871399
6.24,1.469720006,0.206988335,1.255744219
6.25,1.364327908,0.568740845,1.334894538
6.26,0.826480389,0.643453598,1.468728304
6.27,0.270665139,0.701664925,1.042558312
6.28,0.257745385,0.281068802,0.706068277
6.29,0.273756295,-0.491615295,0.74608922
6.3,0.01158829,-1.40326786,0.825398088
6.31,-0.21918571,-2.291270256,0.75447911
6.32,-0.359437525,-3.129312515,0.419487774
6.33,-0.410869569,-3.77375555,-0.13134104
6.34,-0.38386777,-4.229332447,-0.375010163
6.35,-0.445292592,-4.474293232,-0.15614517
6.36,-0.376098931,-4.690379143,0.161211014
6.37,0.211922869,-4.769861221,-0.059877187
6.38,0.68231988,-4.708080292,-0.310680419
6.39,0.691702128,-4.423476219,-0.50077188
6.4,0.545310259,-4.011722088,-0.526769042
6.41,0.542311251,-3.769691467,-0.447030127
6.42,0.553696573,-3.769295692,-0.448960841
6.43,0.355680406,-3.258750439,-0.438314855
6.44,0.355529666,-2.908600807,-0.799663186
6.45,-0.027315021,-2.398068905,-1.181097031
6.46,-0.013198674,-2.397512913,-1.183471203
6.47,-0.45679614,-1.192744255,-1.649107456
6.48,-0.277183086,-0.807049751,-1.552016735
6.49,0.063876271,-0.301841736,-1.209547758
6.5,0.445493966,0.074014664,-0.343470186
6.51,0.454470754,0.073937416,-0.325947464
6.52,1.408121705,1.081804276,0.780432046
6.53,1.412526488,1.081623077,0.796841264
6.54,1.272486925,1.76632309,0.819112361
6.55,-0.130086988,3.538256645,-0.199293375
6.56,-0.548471093,4.19225502,-1.294965148
6.57,-0.997289896,4.329324722,-1.758259177
6.58,-1.138333201,4.05960083,-1.707164884
6.59,-1.006337404,3.63197422,-1.584686995
6.6,-0.991269112,3.632930756,-1.554264784
6.61,-0.641349554,3.978710175,-1.096358061
6.62,-0.259488285,4.508758545,-0.925723493
6.63,0.721782446,4.789663315,-0.5511868
6.64,0.384776503,4.481459618,1.176681876
6.65,-1.002356052,3.601226807,3.658331394
6.66,-1.365858793,2.429365158,5.117559433
6.67,-0.891127586,1.202162743,5.799030304
6.68,0.215993017,0.07244873,5.734872341
6.69,1.322570682,-0.492944717,4.812015533
6.7,2.289209843,-0.702243805,3.708145618
6.71,2.416863203,-0.476305008,2.922069311
6.72,1.779146433,0.034531593,2.183783293
6.73,0.683171988,0.849582672,0.764249206
6.74,-0.088562131,1.674432755,-0.302056491
6.75,-1.383430481,2.614417076,-0.648798525
6.76,-2.947032213,3.26041317,-0.164689079
6.77,-3.841707706,3.301036835,0.644191206
6.78,-3.918698072,2.917945862,1.618305922
6.79,-2.681763887,1.65381813,1.97570467
6.8,-1.453594089,0.418131828,1.843219161
6.81,-0.318541557,-0.973118782,1.496916175
6.82,0.243104264,-2.108108521,0.903401554
6.83,0.467013478,-2.891083241,0.366957545
6.84,0.51700747,-3.609382629,0.24145928
6.85,0.717340946,-4.22941494,0.039458573
6.86,0.757742703,-4.662668228,-0.328627139
6.87,0.629664362,-4.921246052,-0.398794144
6.88,0.307795644,-5.005008698,-0.046479166
6.89,-0.060957611,-4.985695839,0.330998719
6.9,-0.075000435,-4.985492706,0.314022839
6.91,0.483122408,-5.153075695,0.08084181
6.92,0.463437915,-5.153487682,0.076204479
6.93,0.715549588,-5.194749355,-0.303274721
6.94,0.210091785,-4.752440929,-0.608932972
6.95,0.132323474,-4.448994637,-1.145988226
6.96,0.122905806,-4.449701309,-1.13439393
6.97,-0.152713224,-4.028913498,-1.463216543
6.98,-0.401229501,-2.935311794,-1.669546604
6.99,-0.684112728,-2.277567863,-1.304910898
7,-0.898677945,-1.756237984,-0.476616859
7.01,-0.897767067,-1.756745338,-0.460388303
7.02,-0.706982255,-1.031968117,-0.193249524
7.03,-0.748439491,0.396445274,-0.798480272
7.04,-0.735954702,0.39563179,-0.752151907
7.05,-1.085357785,1.245089531,-1.009757638
7.06,-1.180413127,2.111627579,-0.914957941
7.07,-1.196255684,2.487553596,-0.653946459
7.08,-1.414074421,2.64093399,-0.448431552
7.09,-0.63328588,2.897137642,0.112916917
7.1,-0.478293568,2.66711998,0.402747452
7.11,-0.486351937,2.666906357,0.414956659
7.12,-1.40410912,2.48240757,0.217413217
7.13,-2.874781847,2.705061913,-0.340143234
7.14,-3.537325859,3.423734665,-1.236749411
7.15,-3.514487743,3.424552917,-1.216641665
7.16,-0.776926696,5.16607666,-0.673879921
7.17,0.842351914,5.470872879,0.506494045
7.18,0.842496991,5.471309662,0.537044168
7.19,2.080010414,4.980705261,3.939300537
7.2,1.600375891,4.095095634,5.105585098
7.21,1.50255549,2.550970078,4.733701229
7.22,1.720988989,1.198171616,3.421521425
7.23,1.772625208,0.309772492,2.163971901
7.24,1.440292239,-0.329652786,0.752513409
7.25,1.435625315,-0.329766274,0.754265845
7.26,1.141760707,-0.377872467,-0.252294421
7.27,0.453080952,0.342526436,0.24819684
7.28,1.02522254,0.770656586,1.271692276
7.29,1.385404348,0.949540138,1.708889961
7.3,1.642421842,1.068489075,1.93005538
7.31,1.686651707,1.067694664,1.842372656
7.32,1.282287836,1.09570694,1.750133514
7.33,0.600536645,0.941954613,1.766089797
7.34,-0.289655894,0.551506996,1.613599777
7.35,-0.981997013,-0.16423893,1.23767972
7.36,-0.989471555,-0.163919449,1.197516918
7.37,-1.217211962,-1.05904007,0.659642816
7.38,-1.211638808,-2.129164696,-0.045460388
7.39,-1.206302762,-3.223311901,-0.489372075
7.4,-0.568118453,-4.755621433,-0.677582979
7.41,-0.560347557,-4.755524158,-0.67341131
7.42,0.043679565,-5.471148968,0.192344844
7.43,0.21911183,-5.451566696,0.623259068
7.44,0.66364193,-5.367235661,0.594694138
7.45,0.861039698,-4.957280636,-0.051284924
7.46,0.875920773,-4.956733227,-0.057801023
7.47,0.028653771,-4.022254467,-0.999543548
7.48,0.178741887,-3.561713696,-0.78375566
7.49,0.21976386,-3.556107998,-0.925104201
7.5,0.231657729,-3.555333614,-0.939893782
7.51,0.244302183,-2.932160854,-1.329409838
7.52,0.121600568,-2.39525032,-0.766737998
7.53,0.175268084,-2.176820278,-1.060230136
7.54,0.647140384,-1.735965729,-1.363585472
7.55,0.990074873,-1.144657135,-0.688505888
7.56,0.852290392,-0.584424019,0.253142417
7.57,0.426611334,0.064644814,0.918309987
7.58,0.243320227,0.931700707,0.640288711
7.59,0.148017094,1.604683876,-0.116106242
7.6,-0.161899716,2.466477394,-1.234277725
7.61,-0.595441341,3.323224068,-1.858792663
7.62,-0.783576012,3.787354469,-1.753292441
7.63,-0.718470454,3.74166584,-1.230857134
7.64,-0.721794963,3.392061234,-1.137197495
7.65,-0.714903116,3.392107964,-1.125280142
7.66,-0.602189004,3.344351768,-0.831122637
7.67,0.168217778,4.254357338,0.129489496
7.68,0.628334165,4.853066444,0.871016264
7.69,0.447284937,5.159740448,0.94175446
7.7,-0.340441704,5.14342308,1.237900138
7.71,-1.369368553,4.670161247,2.19785881
7.72,-1.932913303,3.502857208,3.177135706
7.73,-1.859410644,2.354548454,3.71694231
7.74,-0.749907672,0.939959526,3.783783197
7.75,-0.753514648,0.939749718,3.795147896
7.76,0.474199623,-0.183859825,3.506499052
7.77,1.611906528,-0.37892437,2.278317928
7.78,0.805936575,0.503657341,1.706736684
7.79,-0.163450033,1.479992867,0.781747401
7.8,-0.167651713,1.479902267,0.759351492
7.81,-1.111729622,2.480947495,-0.134389848
7.82,-2.57106185,3.602025032,0.874181628
7.83,-3.103747129,3.442401886,2.34216094
7.84,-3.096415758,3.443435669,2.303268433
7.85,-1.397771358,1.583890915,2.157962084
7.86,-1.401316166,1.584192276,2.137593746
7.87,-0.519542992,0.307858467,1.528370857
7.88,1.028104782,-2.355148792,0.00144738
7.89,1.428778648,-3.160342216,-0.635545135
7.9,1.505145192,-3.891222477,-0.971423864
7.91,1.543171167,-4.38950634,-0.412941545
7.92,1.504410267,-4.389253616,-0.454500437
7.93,0.334752262,-4.431623936,0.393924803
7.94,0.303337574,-4.430838108,0.358243167
7.95,-0.070492327,-4.145761013,0.717512012
7.96,-0.317974269,-4.251408577,0.322105318
7.97,-0.110938966,-4.323818684,-0.051246047
7.98,-0.121884957,-4.353274822,-0.324962378
7.99,-0.143421233,-4.354011059,-0.316520095
8,-0.298673242,-4.402609825,-0.58697319
8.01,-0.251760542,-4.125504971,-1.123555183
8.02,-0.69856894,-3.774125576,-0.974714398
8.03,-0.700618148,-3.774811268,-0.960221171
8.04,-1.189065814,-3.308821201,-0.945165992
8.05,-1.132980585,-2.917258739,-0.960503101
8.06,-0.857954741,-2.06373024,-1.304338455
8.07,-0.836053193,-2.064886093,-1.259731531
8.08,-0.556977034,-0.921287537,-1.079606533
8.09,-0.48036468,-0.464476585,-0.578656197
8.1,-0.162630662,0.023780823,-0.080699965
8.11,-0.05978775,0.82587719,-0.003357708
8.12,-0.046272874,0.825891495,0.013815105
8.13,-0.81503284,2.540249825,-0.263512492
8.14,-0.801900148,2.540308952,-0.241532415
8.15,-1.059125066,3.311276436,-0.306374878
8.16,-1.27022016,4.01507473,-0.419200331
8.17,-1.733760715,3.744310379,-0.531646729
8.18,-2.346462011,3.339521408,-0.779236734
8.19,-3.060947418,2.90135479,-1.188438773
8.2,-3.569757462,3.057286263,-1.577895999
8.21,-2.653803587,4.046845436,-1.514078856
8.22,-0.545404315,4.426100731,-0.798469126
8.23,1.761647224,4.797982216,-0.100231335
8.24,2.437392235,4.8487463,0.899465442
8.25,1.960966349,4.676846504,2.162645578
8.26,1.959997535,4.677349091,2.188855648
8.27,0.338763177,2.647286415,4.946338654
8.28,0.637950301,1.227212906,4.823562145
8.29,1.646170497,0.036372185,3.847485304
8.3,1.617286801,0.035254478,3.83623457
8.31,2.303763628,-1.150884628,-0.266305566
8.32,1.254866004,-0.35424614,-1.860057831
8.33,0.100071386,0.296733856,-2.348124504
8.34,0.600714088,1.089076042,-0.604355991
8.35,0.35892576,1.196185112,0.137504533
8.36,0.142238364,1.758290291,0.52248323
8.37,-0.020253107,1.923094749,1.192141414
8.38,-0.043531671,1.496697426,2.346438408
8.39,-0.471442342,0.936471939,2.820757389
8.4,-0.938543558,0.132361412,2.634201527
8.41,-1.099960566,-0.755447388,1.929194927
8.42,-1.098079681,-0.754971504,1.902597904
8.43,-1.135155439,-1.836709499,1.183205366
8.44,-1.174060106,-3.727729797,-0.2903983
8.45,-1.198651671,-4.328269005,-0.92448473
8.46,-1.178430676,-4.327861786,-0.919536233
8.47,-0.346906513,-5.225236416,-1.426227689
8.48,-0.330806881,-5.224727154,-1.428632617
8.49,0.297731996,-5.451567173,-1.153713703
8.5,0.703169584,-5.522682667,-0.383108735
8.51,1.480708838,-5.023816586,0.639136791
8.52,1.479496717,-5.02270937,0.600625873
8.53,1.613820076,-3.934616566,0.297828227
8.54,1.034121871,-3.217666626,-0.249230802
8.55,0.548786998,-2.584593296,-0.822080135
8.56,0.484143645,-2.07378006,-1.548448682
8.57,0.333732694,-1.690260887,-2.022343636
8.58,0.315742731,-1.247358322,-2.306628942
8.59,0.358522296,-0.859929085,-1.969831228
8.6,0.348083317,-0.860553742,-1.96243763
8.61,0.377417982,-0.525748253,-0.82353276
8.62,0.528832376,-0.205164909,-0.036164671
8.63,0.270153165,0.412398338,0.749062419
8.64,0.269734204,0.41201973,0.75753963
8.65,0.324984014,0.897535324,0.29085955
8.66,-0.121622518,2.14437294,-0.870071054
8.67,-0.512426138,2.922054291,-1.016213775
8.68,-0.507260621,2.921746254,-1.00497973
8.69,-1.020999551,3.412492752,-1.077366352
8.7,-1.186791897,3.185199738,-0.937564015
8.71,-1.097656012,2.761699677,-0.797744751
8.72,-1.091513515,2.761919975,-0.798959851
8.73,-0.486908078,2.699735641,-0.165511876
8.74,-0.475415945,2.699588776,-0.152531147
8.75,0.865408659,4.501961708,0.178303063
8.76,0.880725861,4.501477242,0.208403677
8.77,-0.541028023,4.673812866,1.788745284
8.78,-2.068323851,4.073470116,3.738241673
8.79,-2.11306262,2.903653145,4.243365288
8.8,-0.878583491,1.269128799,3.776146412
8.81,0.184858337,-0.179344177,3.402292252
8.82,0.34529388,-1.053239822,2.850463629
8.83,0.397100568,-1.21340847,2.149394751
8.84,0.39091605,-1.212872505,2.118956566
8.85,0.291194856,-0.946194649,1.453786373
8.86,-0.607543051,0.659324646,0.383194894
8.87,-1.287861228,2.124394417,0.07475403
8.88,-1.280302048,2.126896858,0.026161045
8.89,-1.67396462,3.118362427,0.121224582
8.9,-2.319890261,4.011925697,1.266430259
8.91,-1.865150928,3.442415237,3.130589724
8.92,-0.92228055,2.069538116,3.154797316
8.93,0.350472629,0.204946518,2.507190704
8.94,1.325033188,-1.612627983,1.502206206
8.95,1.983026981,-2.827453613,0.510375857
8.96,1.868485689,-3.798476696,-0.49206847
8.97,1.832227468,-3.799913883,-0.490177929
8.98,1.271473646,-4.35406208,-1.156687498
8.99,0.509014487,-4.690065861,-1.145680666
9,0.474035919,-4.690649509,-1.150797367
9.01,-0.107025385,-4.607372284,-0.665698826
9.02,-0.135336399,-4.608153343,-0.662313104
9.03,-0.511246502,-4.446518421,-0.671561599
9.04,-0.529230773,-4.448076725,-0.650927842
9.05,-0.902173221,-3.992300034,-0.635787189
9.06,-0.909488201,-3.718308926,-0.626408875
9.07,-0.640908957,-3.556603432,-0.645981014
9.08,-0.61367774,-3.270318508,-0.754693031
9.09,-0.786604822,-2.957737446,-0.968667984
9.1,-0.773364842,-2.958981991,-0.940416575
9.11,-0.665466964,-2.368961811,-1.307978511
9.12,-0.639611363,-2.370320797,-1.266638994
9.13,-0.538226605,-2.077003956,-1.365754247
9.14,-0.522159576,-1.637203217,-1.09919095
9.15,-0.220000699,-0.344593048,0.131498963
9.16,-0.199196696,-0.344712257,0.1561611
9.17,0.237374425,0.876256943,0.041323602
9.18,-0.257003367,1.740472794,-0.80023241
9.19,-1.192246199,2.645469666,-1.737480044
9.2,-1.11185503,3.5241642,-1.343809366
9.21,-1.003528595,3.785082817,-0.226505667
9.22,-1.004513502,3.784971237,-0.221891895
9.23,-2.392257452,3.737049103,-0.031063467
9.24,-3.028008461,3.548025131,-0.251541972
9.25,-3.839609861,3.20596981,-0.965930402
9.26,-3.81154871,3.206644058,-0.936285853
9.27,-2.242022753,4.608289719,-1.440867662
9.28,-0.121120125,5.069045067,-0.573045194
9.29,1.324463964,5.37377739,0.557755351
9.3,2.122570515,5.390625954,2.090616465
9.31,2.469557762,4.925798416,3.627133846
9.32,2.454545736,4.925257683,3.636416197
9.33,1.744004965,2.247810364,5.18909359
9.34,1.772335052,0.738521576,4.275857925
9.35,1.789391756,-0.598376274,2.417494297
9.36,1.595937133,-1.518485069,0.052515198
9.37,1.262560368,-1.418274879,-1.829536676
9.38,0.298880428,-0.745595932,-2.388350964
9.39,0.147783503,0.023097992,-1.189616919
9.4,0.442745596,0.77015686,-0.266303808
9.41,0.733962417,1.339920998,0.456941724
9.42,0.898517907,1.631867409,0.933838368
9.43,0.80178225,1.693924904,1.513554811
9.44,0.599559784,1.492617607,1.774944901
9.45,0.681754828,1.008823395,2.244754791
9.46,0.630750895,-0.020746231,2.050114155
9.47,0.215392157,-1.052509308,1.441334248
9.48,0.210709259,-1.052181244,1.41190505
9.49,-0.768941104,-2.943288326,-0.266784996
9.5,-0.735433161,-3.754583359,-0.580638707
9.51,-0.725746751,-3.754261971,-0.581984043
9.52,-0.592633724,-4.575203419,-0.72789371
9.53,-0.112170696,-5.544546127,-0.237502858
9.54,0.166905165,-5.572886467,0.029501781
9.55,0.50453651,-5.570090771,-0.021797106
9.56,0.730064273,-5.196192741,0.011668459
9.57,0.746398687,-4.800758839,-0.021422058
9.58,0.678678155,-4.237669468,-0.084848404
9.59,0.610322177,-3.667386532,-0.276619524
9.6,0.571542501,-3.262312412,-0.467450142
9.61,0.399676055,-2.775872231,-1.185497642
9.62,0.148661465,-2.188905716,-1.657600403
9.63,0.117984921,-1.62492466,-1.344910026
9.64,0.402725816,-1.159303665,-0.168953344
9.65,0.388811231,-1.160229683,-0.148031995
9.66,0.0781385,-1.033852577,0.062417522
9.67,-0.250427157,-0.148292542,-0.326641023
9.68,-0.249387294,-0.148553848,-0.306751788
9.69,0.442311525,0.068983078,-0.732944846
9.7,0.430781245,0.068380356,-0.711822391
9.71,0.859654188,1.470750809,-0.39505899
9.72,0.726481438,2.375073433,-0.295007318
9.73,0.705741406,2.374438286,-0.287169188
9.74,-0.201978982,3.863182068,-1.041832209
9.75,-1.072939754,4.281963348,-1.316775084
9.76,-1.67293036,4.172072411,-1.043370366
9.77,-1.37664175,3.729480743,-0.702114344
9.78,-0.713876724,3.847187996,0.15810734
9.79,-0.699756742,3.847669601,0.182675809
9.8,0.419196188,4.11398983,0.337758839
9.81,0.562635899,4.299116135,0.289358676
9.82,-0.338711232,4.154334068,1.433807611
9.83,-1.845777035,3.44989872,2.619369745
9.84,-2.429709196,2.106777191,3.113488197
9.85,-2.392495632,2.109250069,3.147995949
9.86,-0.226148516,-0.709433556,3.385511398
9.87,0.861760199,-1.284188271,3.773594379
9.88,0.850364208,-1.285354614,3.749250412
9.89,1.500664234,-0.365269661,2.853303432
9.9,0.857092619,0.523732185,2.033748865
9.91,-0.049807936,1.714838982,1.093858242
9.92,-0.931557238,2.925720215,0.664619148
9.93,-2.184896231,3.87409687,0.910073221
9.94,-3.563795805,4.49511528,1.694211841
9.95,-3.600834608,4.075052261,2.055481195
9.96,-2.315198898,2.788180351,1.541184306
9.97,-0.897342265,1.237324715,0.359516978
9.98,0.180505067,-0.434075356,-0.284980536
9.99,0.850339413,-1.854822636,-0.156072468
10,1.209825754,-2.765841484,0.028735578
10.01,1.174207211,-2.767103195,0.006325305
10.02,1.571678162,-4.350924969,0.025393605
10.03,1.534077048,-4.840369701,0.062995911
10.04,1.203575134,-4.757286549,0.219917163
10.05,0.485104203,-4.578179359,0.292475253
10.06,0.162373319,-4.310430527,-0.003046066
10.07,0.207528219,-4.193661213,0.353779316
10.08,-0.140860051,-4.385830879,0.198089957
10.09,-0.488625199,-4.398467064,-0.684523344
10.1,-0.368822455,-4.190861225,-0.701427221
10.11,-0.392836958,-4.191435337,-0.686921179
10.12,-0.428040117,-4.048229218,-1.085202575
10.13,-0.314328402,-3.790030956,-1.351742387
10.14,-0.417509973,-3.277938366,-1.08548069
10.15,-0.747328043,-2.883090019,-0.747544169
10.16,-0.748812139,-2.883289337,-0.735963345
10.17,-1.511697769,-1.832474232,-0.798122287
10.18,-1.470600605,-1.253381729,-1.078135371
10.19,-1.44666791,-1.253643036,-1.047252059
10.2,-1.280009985,-0.784449577,-0.93017149
10.21,-1.029888988,-0.135481834,-0.681723654
10.22,-1.008501053,1.210412979,-0.514488936
10.23,-0.974526048,1.728028297,-0.431652546
10.24,-0.562967181,2.078132629,-0.326961637
10.25,-0.194973707,2.363460541,-0.172125936
10.26,0.043928862,2.694018364,-0.026576892
10.27,-0.340158284,2.988517761,0.19191879
10.28,-1.394588709,3.20635891,-0.20765245
10.29,-2.047811747,3.244668961,-0.881982744
10.3,-3.123622894,3.086711884,-1.483910322
10.31,-3.111213207,3.087087631,-1.474194169
10.32,-3.938453913,2.855906487,-1.928359866
10.33,-1.992891908,3.865661621,-0.808443844
10.34,0.352807194,4.133717537,0.180859417
10.35,2.321605206,4.323023796,0.43540898
10.36,3.079599142,4.366518974,1.260151148
10.37,2.565806389,4.127764702,2.551415205
10.38,1.984560013,3.798012733,3.538496971
10.39,1.76325202,3.077512741,4.21949482
10.4,1.748515964,3.079078674,4.250730991
10.41,1.992778301,0.668570519,3.209731579
10.42,1.963908434,0.668364525,3.216254711
10.43,1.128858566,-1.307936668,0.450341761
10.44,1.107121706,-1.309221268,0.43645817
10.45,0.022988006,-0.642576218,-1.63056016
10.46,0.014119923,-0.644090653,-1.653260469
10.47,0.608201385,0.321120262,0.255353242
10.48,0.39568612,1.037118912,0.63492918
10.49,-0.15852797,1.758134842,0.970762372
10.5,-0.921704173,2.438709259,1.7693367
10.51,-1.854407191,2.403593063,2.406411409
10.52,-1.841123939,2.402265549,2.367781162
10.53,-2.366384745,0.569816589,1.003406286
10.54,-2.35155654,0.569299698,0.980173588
10.55,-0.918276608,-2.675158024,-0.132767379
10.56,-0.312948346,-3.845888138,-0.941984177
10.57,0.014838085,-4.650168896,-0.981717229
10.58,0.331560612,-5.456914425,-0.269028395
10.59,1.003345847,-5.842516899,0.160754472
10.6,1.420219779,-6.060758114,0.32264632
10.61,1.354771495,-5.833666325,0.945400775
10.62,1.44832468,-5.364689827,0.911824644
10.63,1.455196619,-5.365011215,0.885516286
10.64,1.409861922,-4.781158924,0.54115653
10.65,0.811186969,-3.464659691,-0.185851231
10.66,0.556183577,-2.981328011,-0.55563879
10.67,0.219849065,-2.52184391,-1.043686271
10.68,-0.004924327,-2.100541115,-1.399731994
10.69,-0.099993885,-1.806059837,-1.509307384
10.7,-0.022559941,-1.454076767,-1.65485096
10.71,0.392332047,-1.137961388,-0.911934316
10.72,0.616307259,-0.884148598,-0.221600145
10.73,0.418055028,-0.606315613,0.251642734
10.74,0.313695282,-0.223069191,0.455460697
10.75,0.330179483,0.102787972,0.054366816
10.76,0.079059005,0.60108757,-0.508600533
10.77,-0.246692956,1.374850273,-1.210396409
10.78,-0.460400969,2.14153862,-1.79287827
10.79,-0.451852351,2.142100334,-1.774265051
10.8,-0.566278577,2.671755791,-1.99554193
10.81,-0.789483428,3.031348228,-2.069769859
10.82,-0.80855751,2.799487114,-1.79197669
10.83,-0.894250155,2.371227264,-0.938688278
10.84,-0.885491669,2.371553421,-0.937982917
10.85,0.328190833,3.12856102,1.117741704
10.86,0.337238371,3.129120827,1.128500938
10.87,0.887995005,4.456520081,1.282595634
10.88,0.907043815,4.45821476,1.318334222
10.89,-0.125691682,4.898805618,1.364542842
10.9,-1.967544675,3.833431244,3.561514139
10.91,-1.7500844,2.125936508,4.222885132
10.92,-0.920366168,0.522981644,3.906647205
10.93,-0.917549133,0.523220062,3.908991337
10.94,0.18140024,-0.727187157,3.103182077
10.95,0.714789808,-0.958577156,2.663375616
10.96,-0.22094512,0.057499886,0.98466754
10.97,-1.034350872,1.538425446,0.013170451
10.98,-1.648918629,3.060552597,-0.316631019
10.99,-1.63947618,3.060491562,-0.334561437
11,-3.546709538,4.911737442,0.730722189
11.01,-3.181155443,4.900420189,1.433675766
11.02,-3.168368578,4.900742531,1.418531775
11.03,-0.63135767,2.372076988,1.228994131
11.04,-0.646151066,2.371066093,1.217199802
11.05,0.574909449,0.633603096,1.159402966
11.06,1.691286802,-1.841526031,1.041071415
11.07,1.720129013,-2.669419289,0.85801506
11.08,1.280827045,-3.226658344,0.526733577
11.09,1.242959261,-3.228279591,0.503121376
11.1,0.808609307,-3.572113037,0.062631518
11.11,0.402872801,-4.069050789,0.483451068
11.12,0.141785651,-4.213661194,0.275832832
11.13,-0.028991848,-4.279000759,-0.194468468
11.14,-0.301252008,-4.272296429,-0.573616266
11.15,-0.327246845,-4.272573948,-0.557408333
11.16,-0.565810859,-4.26072979,-0.873776197
11.17,-0.463467509,-4.200921535,-0.751992464
11.18,-0.48670578,-4.200973034,-0.740673244
11.19,0.145682514,-4.184211254,-0.562441707
11.2,0.053230658,-3.990220547,-0.739269376
11.21,0.034849782,-3.990116596,-0.730209112
11.22,-0.569356978,-3.226188183,-0.759030819
11.23,-0.751020968,-2.799829006,-0.837085962
11.24,-0.749965608,-2.799608707,-0.822286606
11.25,-1.214966297,-1.896597862,-0.867402852
11.26,-1.299663186,-1.287891388,-0.833691299
11.27,-1.480128407,-0.681261063,-0.819038272
11.28,-1.449132323,-0.679981232,-0.776893377
11.29,-0.754495442,0.384711266,-1.368528843
11.3,-0.266486049,0.941886902,-1.13539362
11.31,0.161524743,1.192204475,-0.483580321
11.32,0.569536686,1.563988686,0.013153911
11.33,0.390860617,2.258559227,0.096983999
11.34,-0.247333005,3.070417404,0.066945344
11.35,-0.247152984,3.070734024,0.074030995
11.36,-1.554634452,3.684178352,-0.218168199
11.37,-4.496282578,3.778473854,-2.228068113
11.38,-4.354461193,3.061717987,-1.759222269
11.39,-4.318795204,3.06392765,-1.728595734
11.4,-1.503632307,3.718462944,-0.812955439
11.41,-1.468862891,3.723817825,-0.740221083
11.42,3.104680061,5.187916756,0.336211294
11.43,3.657868624,5.521957397,1.499835372
11.44,2.625793934,5.299578667,4.192911148
11.45,1.849834919,4.81903553,5.58448267
11.46,1.289909124,3.426452637,6.019386768
11.47,1.270384789,3.425200462,6.011567116
11.48,2.133100986,-0.587275505,2.515847921
11.49,2.30486846,-2.112300396,0.208016813
11.5,1.518565893,-2.260620117,-1.525154352
11.51,0.171510994,-1.25958252,-2.300312996
11.52,0.31154871,-0.361821175,-1.808773756
11.53,0.297789067,-0.364814758,-1.844424844
11.54,0.832924783,0.627709389,-0.694331229
11.55,0.509981513,2.728733063,0.843756318
11.56,-0.129971877,3.718791008,1.778694391
11.57,-1.205284476,3.799099922,2.692026377
11.58,-1.950729489,3.099511147,3.253408432
11.59,-1.994640231,1.555400848,2.637598276
11.6,-0.999053836,-0.375750542,0.856304765
11.61,-0.275862098,-2.207952499,-0.423864305
11.62,0.122766621,-3.513066292,-0.943320751
11.63,0.221301094,-4.600308418,-0.601980448
11.64,0.222942144,-4.60100174,-0.619646728
11.65,0.478849709,-5.727155685,0.312334061
11.66,0.405582666,-5.909929276,0.447203398
11.67,0.167230621,-5.812457085,0.330897629
11.68,-0.085616976,-5.539999008,0.1346737
11.69,-0.191416979,-5.250621796,-0.127347469
11.7,0.275941849,-4.875007629,-0.234603196
11.71,0.40264383,-4.580784798,-0.111301512
11.72,0.31140691,-4.118875504,-0.215805575
11.73,0.261193246,-3.656841755,-0.583927572
11.74,0.277444422,-3.656763554,-0.60334754
11.75,0.33680898,-2.878474236,-1.261844516
11.76,0.575194478,-2.370740414,-1.271173
11.77,0.846002221,-1.860614777,-0.818853736
11.78,0.780567169,-1.482254028,-0.340892732
11.79,0.633260727,-0.988966942,0.058548268
11.8,0.558520198,-0.45253849,-0.069624603
11.81,0.436200738,-0.04531002,-0.180124313
11.82,0.768199861,0.46727562,0.136863098
11.83,0.858371735,1.018107414,0.321953058
11.84,0.198291659,1.846697807,-0.318064153
11.85,0.141052797,2.721013069,-1.234659672
11.86,-0.282185674,3.693595886,-1.858584285
11.87,-0.277493447,3.694045067,-1.842567325
11.88,-0.692568421,3.943320274,-2.587918758
11.89,-0.503342867,3.610481262,-1.392796516
11.9,-0.511578441,3.610142708,-1.396752477
11.91,0.312984377,3.770145416,0.515304565
11.92,0.786122501,4.476090431,0.934897304
11.93,0.844384193,5.215968132,0.627857328
11.94,0.150635526,5.846130371,0.68551141
11.95,-1.394745588,5.724955559,1.732788324
11.96,-2.580588341,4.263482094,2.732668161
11.97,-2.139860153,2.565266609,2.844604731
11.98,-1.110446215,0.656259537,2.750277042
11.99,-0.083794415,-0.589828491,2.861162186
12,-0.074303538,-0.588996887,2.874552727
12.01,0.759775221,-0.837779999,3.123686552
12.02,0.658448219,-0.078975677,2.481868029
12.03,0.657785952,-0.079275131,2.473528862
12.04,-1.165036917,1.74259758,1.015331507
12.05,-2.444891691,2.676483154,0.338004589
12.06,-3.357398033,3.15813446,0.376151025
12.07,-3.563039541,3.029196739,0.562202931
12.08,-3.559443951,3.029063225,0.552564144
12.09,-2.667665958,2.439723969,0.599648356
12.1,-1.516896129,1.653894424,0.447692066
12.11,-0.195971966,0.027677536,0.211761415
12.12,0.344487697,-0.856451035,0.489422679
12.13,0.586984992,-1.592350006,0.770355225
12.14,0.568507671,-1.593545914,0.751696229
12.15,0.79604435,-3.000396729,0.616996646
12.16,0.908192039,-3.59569788,0.247290403
12.17,0.873757839,-3.597253323,0.221180394
12.18,1.130051613,-4.343375683,0.452011883
12.19,0.82030499,-4.629539013,0.595070362
12.2,0.398224175,-4.709400654,0.488554865
12.21,0.130733281,-4.879957199,0.289185643
12.22,-0.167275921,-4.909048557,0.098114699
12.23,-0.475294888,-5.028991222,-0.215086982
12.24,-0.480219424,-5.01952219,-0.685927451
12.25,-0.475514323,-4.732286453,-0.986383736
12.26,-0.366232783,-4.24155426,-0.383891583
12.27,-0.617831528,-3.72687006,-0.063133709
12.28,-1.448422432,-3.248015404,-1.042154074
12.29,-1.579955101,-2.450588226,-1.635091186
12.3,-1.46715486,-1.648224831,-1.457303166
12.31,-1.440495133,-1.647661209,-1.429367781
12.32,-1.498923421,-0.463951111,-1.618756413
12.33,-0.982445419,0.152601242,-0.77517724
12.34,-0.63367635,0.623021126,0.35375917
12.35,-0.416236699,0.892076492,1.010379076
12.36,-0.340153039,1.249688148,0.543545961
12.37,-0.322920144,1.250977516,0.571774244
12.38,-0.480125278,1.968356133,-0.748671651
12.39,-0.487347305,2.2979002,-0.987499595
12.4,-0.538267374,2.543366432,-0.920808673
12.41,-0.875767827,2.761963844,-0.624697626
12.42,-1.187792659,2.759580612,-0.554509401
12.43,-1.760350943,2.780319214,-0.748793006
12.44,-2.854225397,2.650355339,-1.257928967
12.45,-3.646840096,2.779659271,-2.043201685
12.46,-3.08075881,3.597361565,-1.633499146
12.47,-1.173139691,3.951670647,-0.712399721
12.48,0.901485682,4.198775291,-0.089384913
12.49,2.247750998,4.376649857,0.818678498
12.5,2.258784056,4.195070267,2.352352858
12.51,2.259641886,4.197597504,2.391406775
12.52,1.684246659,3.531913757,3.700745344
12.53,1.844076633,1.041366577,3.417444229
12.54,1.997039795,0.178237915,2.233583927
12.55,2.14192915,-0.42946434,0.889567614
12.56,1.91441977,-0.429702759,-0.097030044
12.57,1.29244554,0.144076347,-0.554063618
12.58,0.639992476,0.698142052,-0.333805084
12.59,1.102275491,1.167836189,0.460794568
12.6,1.09362042,1.164892197,0.421349764
12.61,1.502234578,1.640665054,1.542089701
12.62,1.370838761,1.924793243,1.971865773
12.63,1.400339603,1.856919289,2.244405508
12.64,1.183085799,1.630975723,2.195404053
12.65,0.373384416,1.201767921,1.898490548
12.66,-0.764965892,0.576971054,1.226926088
12.67,-1.561546326,-0.303156853,0.333460987
12.68,-2.11100626,-1.254364014,-0.737307549
12.69,-2.261236668,-2.260006905,-1.477488995
12.7,-1.853513479,-3.135955811,-0.916239262
12.71,-1.184360027,-4.253592491,-0.067799509
12.72,-0.508799791,-5.146194458,-0.045580894
12.73,0.391997576,-5.739500999,0.206153944
12.74,1.367007971,-5.746277332,0.687645733
12.75,1.382814884,-5.745937824,0.68595767
12.76,1.660849214,-5.561201096,0.916185319
12.77,1.281599879,-4.536190033,1.029691577
12.78,1.238786221,-4.01429081,0.653225422
12.79,0.863736928,-3.571669579,0.051814213
12.8,0.641166925,-3.141120434,-0.604643107
12.81,0.347179622,-2.760922909,-1.257805943
12.82,0.346811682,-2.761357784,-1.281195164
12.83,0.231733412,-2.345164776,-1.7517941
12.84,-0.41824171,-1.380506516,-1.332051396
12.85,-0.238596976,-0.865777016,-0.711047769
12.86,0.169051021,-0.530534744,-0.25655213
12.87,0.344598174,-0.374770165,0.105554141
12.88,0.356022269,-0.14949131,0.609920144
12.89,0.516965509,0.023216248,0.414141297
12.9,0.521564484,0.023590088,0.428928971
12.91,0.442339659,0.790210724,-0.978087604
12.92,-0.052164197,1.532976151,-1.441245437
12.93,0.091416076,2.263835907,-1.792857766
12.94,0.195523962,2.884380341,-1.893404365
12.95,-0.405236006,3.394838333,-1.543345332
12.96,-1.185651898,3.498353004,-1.099044919
12.97,-1.224449873,3.170948982,-1.161968112
12.98,-0.94906044,2.589794159,-1.502944708
12.99,-0.578138948,2.494805336,-0.994574428
13,0.202166826,3.216347694,0.026079461
13.01,0.214955568,3.217154503,0.03532128
13.02,0.619772553,4.434439659,0.463945687
13.03,-0.193294555,4.90771389,0.515688419
13.04,-1.754117489,4.991454124,1.6233778
13.05,-2.236617327,4.326397896,2.980077267
13.06,-1.730743408,2.631680489,3.467115879
13.07,-1.712618589,2.633896828,3.495487452
13.08,-0.317762435,0.834424019,3.337578297
13.09,1.857485414,-2.005588055,3.223138332
13.1,1.941073179,-2.009742737,2.63176918
13.11,1.306160212,-1.45175457,1.876590133
13.12,1.289508581,-1.454053879,1.840601325
13.13,-0.366850078,-0.201086044,0.88955307
13.14,-1.620149732,1.129351616,-0.178712905
13.15,-2.314412594,2.46735096,-0.049876601
13.16,-3.129607677,3.537477493,1.619112372
13.17,-2.721523046,3.344007492,1.647017717
13.18,-1.630381942,2.592758179,1.228841305
13.19,-0.545798838,1.477386475,0.829429805
13.2,0.28498596,0.4405756,0.229877636
13.21,0.851488709,-0.608834267,0.173319012
13.22,0.829052091,-0.610214233,0.167275637
13.23,1.332166433,-1.742543221,0.290981501
13.24,1.448162794,-3.26288414,0.572433472
13.25,1.147257209,-3.696043491,0.276777417
13.26,0.504962564,-4.001978874,0.250441343
13.27,0.103034034,-4.173447609,0.239896193
13.28,0.038808674,-4.478682041,-0.163895488
13.29,0.009880096,-4.479563236,-0.160696685
13.3,-0.08418262,-4.753175259,-0.818814099
13.31,-0.108463377,-4.753707409,-0.8097139
13.32,-0.305010706,-4.438105583,-0.355487675
13.33,-0.116344348,-4.136784077,-0.132851601
13.34,0.035453007,-3.744417667,-0.242424399
13.35,0.021630809,-3.744529247,-0.231283188
13.36,-0.105007976,-3.358997345,-0.218601778
13.37,-0.593510032,-2.29810667,-0.830943406
13.38,-0.595879674,-2.297731876,-0.807853639
13.39,-0.840054214,-1.454455376,-1.381482363
13.4,-0.805582166,-1.195192337,-1.519755602
13.41,-0.845828116,-0.777797699,-1.165174603
13.42,-0.792256057,-0.384271622,-0.546668112
13.43,-0.783876658,-0.38334465,-0.52127862
13.44,-1.089339733,0.4798069,-0.609737873
13.45,-0.960620225,0.936313629,-0.970438719
13.46,-0.746189237,1.256673813,-1.132491589
13.47,-0.722007811,1.574674606,-0.748021126
13.48,-0.544559002,2.172509193,-0.252617508
13.49,-0.543318689,2.173819542,-0.227910936
13.5,-0.303848088,3.096533775,0.085759133
13.51,-1.038334608,3.322183609,-0.222957432
13.52,-2.263036251,3.15001297,-1.033153653
13.53,-3.474532843,2.803190231,-1.861162663
13.54,-4.194427967,2.593412399,-2.354031563
13.55,-4.164715767,2.595335007,-2.334104061
13.56,-1.047045231,3.730667114,-0.653972149
13.57,1.937957644,4.231755257,0.084721446
13.58,3.187412977,4.488436699,0.992163777
13.59,2.978407383,4.941111565,2.763301134
13.6,1.928679705,4.859611511,4.834039211
13.61,1.567305446,3.79818821,5.301454544
13.62,1.461827397,1.864484787,4.155395031
13.63,1.454584599,0.227879524,2.95220089
13.64,1.441569805,0.229084015,2.97118187
13.65,1.386164546,-1.055330276,1.309841871
13.66,1.33618772,-1.76735878,-2.689665079
13.67,0.733031154,-0.56860733,-2.555047512
13.68,0.397109121,0.511569977,-0.866878033
13.69,0.730973065,1.323293686,0.53434813
13.7,1.418906689,1.837175369,1.583040118
13.71,1.695444703,2.159115791,2.271814823
13.72,1.009794474,2.404335976,2.621723413
13.73,0.057087123,2.314468384,2.415726423
13.74,-0.835658133,1.842072487,1.587013721
13.75,-1.127122521,0.705076218,0.585580945
13.76,-1.113536119,-0.428870201,0.121934265
13.77,-1.029355764,-1.82816124,-0.130504966
13.78,-1.024309516,-1.828999519,-0.145899236
13.79,-0.6957587,-3.821722984,0.095767319
13.8,-0.371573001,-4.56221962,0.453501195
13.81,0.030005485,-5.036979198,0.517888308
13.82,0.711437047,-5.231552601,0.398361683
13.83,0.910077095,-5.167496681,0.253088832
13.84,0.597336292,-4.871229172,0.362344086
13.85,0.656187952,-4.48884058,0.134657621
13.86,0.758881271,-4.135326862,-0.204852223
13.87,0.768351674,-4.136212826,-0.231770903
13.88,0.343496859,-3.121856689,-0.225005359
13.89,0.239367545,-2.825645447,-0.247234792
13.9,0.141086042,-2.567581654,-0.496022731
13.91,0.233391702,-2.342882633,-0.723255158
13.92,0.109085083,-2.070057869,-0.564715624
13.93,0.164988235,-1.907234192,-0.268571645
13.94,0.32793352,-1.768260002,-0.260957658
13.95,0.330923915,-1.768081665,-0.258443922
13.96,0.981802464,-1.564401627,-0.159210622
13.97,0.88580513,-1.025542259,-0.005962223
13.98,0.780452132,-0.232821465,-0.360989243
13.99,0.598153591,0.53125,-0.473638922
14,0.595848501,0.531659126,-0.459824324
14.01,0.090156153,2.019083977,-0.309678465
14.02,-0.183687627,2.687835693,-0.722667575
14.03,-0.628393412,2.957208633,-1.329516649
14.04,-0.664706349,3.04472065,-0.921503723
14.05,-0.659280837,3.045734406,-0.903144479
14.06,-0.342514157,2.788062096,-0.280569762
14.07,0.466100901,3.780482292,0.363295972
14.08,1.165581226,4.85675621,0.162826598
14.09,0.945945621,5.64354229,-0.559076965
14.1,0.143886402,6.483073235,-0.53176564
14.11,0.158033028,6.484324455,-0.519696236
14.12,-1.47376585,6.794015884,1.314716816
14.13,-2.745373249,5.868092537,3.347744465
14.14,-2.648945808,3.941180229,4.775251865
14.15,-0.274839133,-0.174418449,3.418891907
14.16,-0.280257642,-0.174510956,3.421234131
14.17,1.249937057,-1.87484169,1.290326476
14.18,0.345168293,-1.360649109,1.138825417
14.19,-0.085971415,-0.640709877,1.455376625
14.2,-0.355643123,0.256039619,1.316657782
14.21,-1.028251886,1.334621429,1.563941717
14.22,-1.763000011,2.406087875,2.337156296
14.23,-2.486426115,3.080211639,2.516854763
14.24,-3.030774832,3.342991829,2.155066729
14.25,-2.529554367,2.890472412,1.431480527
14.26,-1.608699799,1.944683075,0.932178021
14.27,-1.063216567,0.921999931,0.566791475
14.28,-1.056504488,0.921462059,0.545186281
14.29,-0.396867603,-0.831943512,0.995333791
14.3,-0.397652924,-0.833022118,0.964491725
14.31,0.555093527,-2.54622221,1.20812881
14.32,0.545935273,-2.547554493,1.175288439
14.33,0.808318555,-2.895895481,0.927146196
14.34,0.407914668,-3.143466473,0.874954999
14.35,0.493730664,-3.10598278,0.541352451
14.36,0.465171009,-3.010967255,0.173618347
14.37,0.166646898,-2.822383881,0.11016719
14.38,0.159114748,-2.822678566,0.110324711
14.39,0.023789018,-2.499650955,0.114250213
14.4,-0.046190977,-2.408863068,0.254784107
14.41,-0.193703145,-2.375421524,0.031590626
14.42,0.02216807,-2.444737911,-0.318063229
14.43,-0.069135427,-2.391893387,-0.410260946
14.44,-0.298040807,-2.413227081,-0.157766283
14.45,-0.432576895,-2.484863758,-0.089751437
14.46,-0.434565723,-2.484640598,-0.077640712
14.47,-0.517047465,-2.546608448,-0.247381657
14.48,-0.582699895,-2.491013527,0.103783965
14.49,-0.573804617,-2.490184784,0.12098828
14.5,-0.505543888,-2.254484653,0.596342802
14.51,-0.504150987,-2.12393856,0.745165706
14.52,-0.373068661,-1.897315502,0.3108024
14.53,0.203683525,-1.337799072,-0.164753318
14.54,0.233885899,-0.831037521,-0.972043395
14.55,0.10134548,-0.072906494,-1.241128922
14.56,0.104123145,-0.071526527,-1.215058208
14.57,-0.23896727,1.761283875,-0.594397962
14.58,-0.808721006,2.387194633,-0.053622723
14.59,-1.41006279,2.577153206,0.18666324
14.6,-2.063576698,2.319190025,0.176098973
14.61,-2.586360455,1.503336906,-0.072835088
14.62,-2.673036575,0.89627552,-0.826745391
14.63,-2.379269123,0.943908691,-1.532591224
14.64,-1.58445549,1.474013329,-1.630433917
14.65,-0.709054351,2.055328369,-1.49592495
14.66,0.363345861,2.965023994,-0.937539816
14.67,0.942928672,3.816884041,-0.112122178
14.68,0.867147327,4.1941576,0.764584124
14.69,1.09601903,4.219073296,1.544914365
14.7,1.692057848,4.284276009,2.343753099
14.71,1.890752196,3.795645714,2.19467783
14.72,1.882730484,3.796444893,2.209220648
14.73,1.875978589,2.945723534,1.559012175
14.74,0.642199516,0.573227882,1.365515709
14.75,0.11425066,-0.291442871,1.331261039
14.76,0.106125176,-0.294137955,1.30529809
14.77,0.158989936,-1.354844093,1.312576294
14.78,0.695851326,-1.455377579,1.184610844
14.79,1.002316117,-1.139312744,1.163986206
14.8,1.007626772,-0.500040054,1.132058382
14.81,0.82650888,0.055235863,1.270906925
14.82,0.836456776,0.578999519,1.263856411
14.83,0.827511787,0.575584412,1.217568994
14.84,0.670344591,1.096007347,1.462286472
14.85,-0.185234219,1.532781601,2.097388029
14.86,-0.320516914,1.179958344,1.88973999
14.87,-0.328032702,1.177260399,1.831582427
14.88,-0.143109202,0.526291847,1.376979351
14.89,-0.029243141,-0.803972244,0.742576182
14.9,-0.029283464,-0.804952622,0.704307377
14.91,-0.215347499,-1.633982658,0.642737567
14.92,-0.112157434,-1.751636505,0.406060129
14.93,-0.105997443,-1.751729012,0.380975515
14.94,0.918672204,-1.493180275,0.378134072
14.95,0.854463756,-1.407134056,0.504110932
14.96,0.653720498,-1.256418228,0.332162678
14.97,0.652935207,-1.256574631,0.318447888
14.98,0.97233367,-0.531388283,1.129369378
14.99,1.062316298,-0.579755783,0.492506772
15,0.807031751,-0.56355381,0.356079727
15.01,0.594869018,-0.494786263,0.916770816
15.02,0.540623367,-0.720591545,1.542175412
15.03,0.510300636,-1.149940491,1.937498331
15.04,0.491101116,-1.150649071,1.914900899
15.05,0.522566021,-1.517612457,1.51047194
15.06,0.366771042,-1.374677658,1.14435482
15.07,0.326279163,-1.374283791,1.06250751
15.08,0.396050274,-0.614409447,0.456982523
15.09,0.407984227,-0.129779816,0.213022888
15.1,0.38346529,-0.128910065,0.17600894
15.11,0.500731945,0.333821297,-0.090935886
15.12,0.177807242,1.265790939,0.12103495
15.13,0.093830898,1.613441467,0.266758174
15.14,-0.185275465,1.812529564,0.222572029
15.15,-0.293855697,1.76955986,-0.144826472
15.16,-0.382249177,1.580206871,-0.509381115
15.17,-0.804047287,1.220747948,-0.571199596
15.18,-1.218332171,0.859061241,-0.492112845
15.19,-1.388149381,0.387321472,-0.420519143
15.2,-1.370941043,0.387233734,-0.412241012
15.21,-1.06968236,-0.254622459,0.024194986
15.22,-0.622712374,-0.592469215,0.161938369
15.23,0.035513207,-0.834615707,0.117747217
15.24,-0.043030888,-0.885229111,0.431553572
15.25,-0.114031881,-0.88055706,0.577543914
15.26,0.006633595,-0.830323219,0.33914721
15.27,0.019954562,-0.830365181,0.349441946
15.28,0.400162041,-0.768201828,-0.685079098
15.29,0.298838258,-0.677243233,-0.835136175
15.3,0.167935401,-0.52147007,-0.690865398
15.31,0.171746492,-0.521227837,-0.694663405
15.32,-0.423842013,-0.255164146,-0.423371613
15.33,-0.421792388,-0.254900932,-0.429058969
15.34,-0.627933264,-0.101496697,-0.026732892
15.35,-0.74502182,-0.034353256,0.178685933
15.36,-0.950204432,-0.055905342,0.004826039
15.37,-1.252208352,0.027765274,-0.406661302
15.38,-1.21277535,0.051511765,-0.65950042
15.39,-0.912988186,0.027364731,-0.246384651
15.4,-0.739730239,-0.18774128,-0.093648747
15.41,-0.695262432,-0.359631538,-0.173269674
15.42,-0.294738323,-0.263249397,0.079758704
15.43,-0.275749534,-0.262623787,0.083869845
15.44,-0.389710993,-0.096776009,-0.132763937
15.45,-0.42191878,0.033156395,-0.369188935
15.46,-0.409055203,0.033790588,-0.371250391
15.47,-0.455010235,0.036768913,-0.037074894
15.48,-0.447032094,0.037453651,-0.046745658
15.49,-0.259493142,-0.076795578,0.137041599
15.5,-0.418675423,-0.054671288,-0.071234137
15.51,-0.44432205,-0.073324203,-0.398153871
15.52,-0.354406714,-0.010712624,-0.716376066
15.53,-0.293577313,0.034964561,-0.724928618
15.54,-0.228871286,0.10214901,-0.493734181
15.55,-0.011570454,0.219574928,-0.323003292
15.56,0.140257269,0.33449173,-0.173476368
15.57,0.185652971,0.501896858,-0.190073311
15.58,0.190190613,0.50159359,-0.167360902
15.59,0.197455198,0.477254868,-0.629220963
15.6,0.198603243,0.476845741,-0.604741991
15.61,0.047175586,0.033488274,-0.496145755
15.62,0.045671642,0.033101082,-0.47547847
15.63,-0.160233021,-0.458071709,-0.389457226
15.64,-0.18294549,-0.561380386,-0.321390837
15.65,-0.281297088,-0.566529274,-0.173890799
15.66,-0.195577383,-0.528544426,-0.140781149
15.67,-0.265775144,-0.406748772,-0.088582322
15.68,-0.307058513,-0.212984085,-0.03034056
15.69,-0.308028817,-0.213046074,-0.028977603
15.7,-0.418970704,0.016868591,-0.188746795
15.71,-0.363907218,0.031454086,-0.371332526
15.72,-0.291057944,0.077214241,-0.435129672
15.73,-0.285080314,0.077493668,-0.428803384
15.74,-0.26539439,0.171124458,-0.109724924
15.75,-0.164552629,0.130665779,0.003526274
15.76,-0.160797656,0.130827904,0.009749241
15.77,-0.014701128,0.030379295,-0.396321267
15.78,-0.148134053,0.032896996,-0.480891585
15.79,-0.144369781,0.03309536,-0.471979827
15.8,0.044013023,0.033157349,-0.294756651
15.81,0.099574953,-0.02188015,0.051826932
15.82,0.065284133,-0.007562637,0.064497538
15.83,-0.012342095,0.064208031,-0.090551503
15.84,-0.065017283,0.080960274,0.030189898
15.85,-0.024200976,0.049837112,0.603386402
15.86,0.089602828,-0.175289154,-0.001519246
15.87,0.08689326,-0.17543602,0.006321677
15.88,0.010185957,-0.319235802,-0.762124062
15.89,0.060778767,-0.213991165,0.011988324
15.9,0.086977333,-0.063289642,-0.306573987
15.91,0.098850638,0.065854073,-0.232085586
15.92,-0.071350336,0.173472405,0.173508972
15.93,-0.073786616,0.173316956,0.171582535
15.94,-0.27812326,0.206659317,0.21426104
15.95,-0.192284942,0.105939865,0.026832113
15.96,-0.199682772,0.031578064,-0.122761957
15.97,-0.196446717,-0.025965691,-0.254010737
15.98,-0.196893871,-0.025992393,-0.251912594
15.99,-0.098968565,-0.119372368,-0.165149435
16,0.060913622,-0.102635384,-0.028427126
16.01,0.05930531,-0.10270977,-0.025761852
16.02,0.067687929,-0.090790749,0.154820785
16.03,-0.019347131,0.040863037,-0.017435923
16.04,-0.091135919,0.028920174,-0.290238351
16.05,-0.212888777,0.031377792,-0.362443477
16.06,-0.15710038,-0.016429901,-0.386525333
16.07,-0.085103452,0.031535149,-0.237850443
16.08,-0.070234239,0.031629562,-0.131873995
16.09,-0.069092393,0.031799316,-0.120811775
16.1,-0.213169277,0.032018662,-0.172721475
16.11,-0.294061124,0.032348633,-0.266444802
16.12,-0.132363498,-0.106137276,-0.397632241
16.13,-3.34978E-05,-0.139280319,-0.413785696
16.14,0.093310118,-0.150918007,-0.271889806
16.15,0.099655539,-0.141115189,-0.020978272
16.16,-0.068811178,0.014698982,0.178700611
16.17,-0.004672587,0.034033775,-0.011222318
16.18,-0.003371716,0.034213066,-0.005708963
16.19,-0.114052653,0.065564156,-0.183845013
16.2,-0.316717982,0.034732819,-0.135360211
16.21,-0.312633336,0.035065651,-0.130221546
16.22,-0.081950903,-0.110681534,-0.286534071
16.23,-0.121990502,-0.170193672,-0.257727921
16.24,-0.135388851,-0.191390038,-0.065926775
16.25,-0.132393181,-0.191072464,-0.059903711
16.26,-0.046144128,-0.17882061,-0.051514134
16.27,-0.1250875,-0.022899628,-0.101039574
16.28,-0.308998406,-0.003445625,-0.239111975
16.29,-0.278995872,0.138162613,-0.360900134
16.3,-0.091334403,0.085772514,-0.072365284
16.31,0.011206388,0.088335991,0.5324983
16.32,0.012617111,0.088412285,0.532405496
16.33,0.069319487,-0.117279053,-0.330009073
16.34,-0.228152573,-0.18161583,-0.406362206
16.35,0.028623343,-0.193273544,-0.032711238
16.36,0.029515624,-0.193198204,-0.032188803
16.37,0.185267121,-0.217119217,0.064475328
16.38,0.267298251,-0.154946327,0.060562387
16.39,0.094295383,-0.076158524,-0.012277663
16.4,-0.007150531,0.060040474,0.035237312
16.41,0.060697734,0.169826508,0.21490261
16.42,0.058298886,0.205307961,0.20928815
16.43,0.054817736,0.20501709,0.206545264
16.44,-0.004073679,0.190626144,0.070017755
16.45,-0.245813608,0.06150341,-0.077525526
16.46,-0.129620552,-0.014827728,-0.096315622
16.47,-0.129929483,-0.014595985,-0.087334901
16.48,-0.02533108,-0.069452286,-0.193404257
16.49,0.071276724,0.038419724,0.034306169
16.5,0.071578085,0.038519859,0.103590295
16.51,0.122368842,0.038612366,0.102668583
16.52,0.146707952,0.007522583,0.126924187
16.53,0.192069203,-0.054800034,0.06006372
16.54,0.18873921,-0.05494976,0.061246216
16.55,-0.003647923,-0.08862114,0.167165369
16.56,-0.014390767,-0.139143944,0.264147997
16.57,-0.16452235,-0.050813675,0.148647055
16.58,-0.270639062,0.001708031,0.048664451
16.59,-0.273012519,0.032747269,-0.179498017
16.6,-0.224648476,0.032752037,-0.35131681
16.61,-0.2023471,0.027997971,-0.35945794
16.62,-0.129070044,0.037606239,-0.220240265
16.63,-0.070354462,0.071099281,0.058523625
16.64,-0.085925102,0.147632599,0.170518562
16.65,-0.134555876,0.288905144,0.071541458
16.66,-0.091864288,0.260284424,0.001079321
16.67,-0.013462842,0.217341423,0.12136969
16.68,0.100394994,0.052254677,0.296415359
16.69,0.237892211,0.037987709,0.47631669
16.7,0.107997865,-0.045584679,0.380341619
16.71,0.109265417,-0.045171738,0.389352441
16.72,-0.125074923,-0.166717529,-0.171727866
16.73,-0.122314811,-0.166107178,-0.160051167
16.74,-0.143909514,-0.31880188,-0.085503072
16.75,-0.295282245,-0.258566856,-0.030885339
16.76,-0.217844307,-0.114534378,-0.231904149
16.77,-0.183220387,-0.059028625,0.032462925
16.78,-0.179806233,-0.058670998,0.036027074
16.79,0.045423031,-0.013011932,0.891377807
16.8,-0.141172051,-0.096680641,0.201305091
16.81,-0.206827104,-0.108299255,-0.322363555
16.82,-0.104315639,0.02614212,-0.163982898
16.83,-0.148999095,-0.021561623,-0.101885468
16.84,-0.000555336,-0.03104496,-0.102951199
16.85,0.098105907,0.011991501,0.376313865
16.86,-0.022559702,0.042824745,0.461817026
16.87,-0.303483605,0.042498589,0.36193049
16.88,-0.431663632,0.059081078,0.344076335
16.89,-0.292906165,0.04221344,0.149006665
16.9,-0.204016209,-0.008028984,0.102911145
16.91,-0.109502375,0.042477608,0.153661758
16.92,-0.135379791,0.033352852,0.161931127
16.93,-0.100588799,0.000385284,0.151827216
16.94,0.137108594,-0.075750351,0.308682948
16.95,0.088286281,-0.070597649,0.304539621
16.96,0.027810514,-0.034296036,0.245492831
16.97,-0.013186574,-0.091268539,0.173553988
16.98,-0.121056259,-0.105019569,0.095022857
16.99,-0.11611706,-0.1043396,0.103218883
17,-0.188344657,-0.007961273,-0.174546599
17.01,-0.214345396,0.047567368,-0.034117669
17.02,-0.252926529,0.047933578,-0.055625558
17.03,-0.147648096,0.086562157,0.008295536
17.04,-0.251248717,0.079670906,0.169670612
17.05,-0.284581304,0.075175285,0.253873199
17.06,-0.274313033,0.053959847,0.187156081
17.07,-0.206061423,0.018425941,0.101529092
17.08,-0.202472746,0.018810272,0.104749531
17.09,-0.146605194,-0.004796028,0.236673355
17.1,-0.047563791,-0.052380562,0.281194806
17.11,0.062559307,-0.080899239,0.213053197
17.12,0.054372489,-0.056774139,0.166793376
17.13,-0.038215935,-0.082945824,0.178791314
17.14,-0.099598527,-0.116305351,0.209551454
17.15,0.063758433,-0.135333061,0.196899772
17.16,0.062950909,-0.135308266,0.198694259
17.17,-0.04828465,-0.125717163,0.274651349
17.18,-0.058862448,-0.108972549,0.206208587
17.19,-0.082315624,-0.042010307,0.130337209
17.2,-0.041555882,-0.046917915,0.013797194
17.21,-0.123506188,-0.047062874,-0.092669755
17.22,-0.257754147,-0.001633644,-0.248577833
17.23,-0.247027814,0.070284843,-0.156654388
17.24,-0.18818301,0.036950111,0.027914047
17.25,-0.007376373,-0.094503403,0.34488219
17.26,-0.086229563,-0.269262314,0.446441442
17.27,-0.087447107,-0.269236565,0.44834128
17.28,-0.163826287,-0.18531704,0.050453067
17.29,0.023595512,-0.053476334,-0.057412088
17.3,0.022698283,-0.053355217,-0.05413717
17.31,0.247173339,0.001747131,0.15379867
17.32,0.166304112,0.013515472,0.626809359
17.33,0.161267877,0.01303196,0.623504639
17.34,-0.057992756,-0.047533989,0.15119797
17.35,-0.063468814,-0.048146248,0.145999849
17.36,-0.226324439,-0.063128471,0.00596559
17.37,-0.230653405,-0.063727379,-0.00043869
17.38,-0.121184766,-0.040225029,0.200478584
17.39,-0.035234272,0.00021553,0.155543774
17.4,-0.05404675,0.002515793,0.271144658
17.41,-0.055205584,0.002532959,0.272790521
17.42,-0.036223471,-0.061936378,-0.087245286
17.43,-0.067484081,-0.047201157,-0.34120363
17.44,-0.146696866,-0.097065926,-0.206309021
17.45,-0.188034833,-0.111154556,0.07282865
17.46,0.019170463,-0.134953499,0.253627688
17.47,0.064363658,-0.053596497,0.186615109
17.48,0.061470866,-0.053587914,0.190014958
17.49,-0.201466739,0.049469948,-0.002500415
17.5,-0.355402052,0.049671173,-0.067098737
17.51,-0.292482495,0.023675919,-0.09552902
17.52,-0.181967139,-0.007160187,0.050542593
17.53,-0.120104671,0.002581596,0.224027246
17.54,-0.022809744,-0.004542351,0.300255984
17.55,0.012149572,0.000257492,0.193565756
17.56,0.011087477,0.000253677,0.194649607
17.57,-0.037749588,-0.002160072,0.034602582
17.58,-0.15092206,0.050321579,0.367362142
17.59,0.109175116,0.026102066,0.246211886
17.6,0.113164365,0.049776077,0.206515253
17.61,-0.021245182,0.035218239,0.179528534
17.62,-0.016008854,-0.008026123,0.116699278
17.63,0.008218348,-0.096752167,0.118766964
17.64,-0.020414114,-0.132833481,0.094302088
17.65,0.106209844,-0.113886833,0.155744225
17.66,0.18633461,-0.095012665,0.164213091
17.67,0.124410361,0.045906067,0.327830911
17.68,0.12051186,0.045567513,0.325608432
17.69,-0.105049312,0.184218407,-0.252176046
17.7,-0.011763096,0.081360817,-0.437001348
17.71,0.173989922,0.057476044,-0.001897871
17.72,0.29285714,-0.09128952,0.630134404
17.73,0.285917133,-0.091878891,0.626405776
17.74,0.09980163,-0.181056976,0.421171218
17.75,0.13326636,-0.200656891,0.463235825
17.76,0.146518856,-0.287276268,-0.147072256
17.77,0.01445359,-0.189278603,-0.527966797
17.78,0.079217166,-0.002626419,-0.058370829
17.79,0.049681634,0.044866562,0.481053263
17.8,-0.071317077,0.159127235,0.673246741
17.81,-0.115019858,0.215958595,0.530441999
17.82,-0.112078369,0.165242195,0.203074843
17.83,-0.170063853,0.126796722,0.021203965
17.84,-0.130344331,0.043084145,0.098090529
17.85,-0.128359318,0.043261528,0.099617004
17.86,0.064570904,-0.009236336,0.372208595
17.87,0.066149712,-0.009099007,0.373153627
17.88,-0.003896654,0.026964188,0.381325007
17.89,-0.128271282,0.0272789,0.021098465
17.9,-0.21035105,-0.036750793,-0.093464673
17.91,-0.205572307,-0.036031723,-0.084881127
17.92,-0.065328479,-0.234228134,0.088646501
17.93,-0.02919054,-0.176409721,0.126111388
17.94,-0.049133897,-0.080438614,0.181071341
17.95,-0.041123092,0.046544075,0.229477823
17.96,-0.117734909,0.080025673,0.19763726
17.97,-0.232305884,0.092007637,0.195261806
17.98,-0.226981938,0.048938751,0.109086633
17.99,-0.226790786,0.048998833,0.10979563
18,-0.23632431,-0.013223648,0.045752883
18.01,-0.085636437,-0.082720757,0.185876399
18.02,-0.063400745,-0.070972443,0.281653196
18.03,-0.036698937,-0.073599815,0.303454518
18.04,-0.062651217,-0.013911247,0.165825307
18.05,-0.146021724,0.045805931,0.110310644
18.06,-0.04489398,-0.023749352,0.088123471
18.07,0.002325237,-0.011960983,0.070912749
18.08,0.065333486,0.009343147,0.175917268
18.09,0.106021345,-0.005278587,0.331353277
18.1,0.05605942,-0.017506599,0.287990511
18.11,-0.093752444,0.044617653,0.1310969
18.12,-0.117795676,0.044629097,-0.074704409
18.13,-0.086776108,0.032726288,-0.114298582
18.14,-0.090500087,0.032654762,-0.112185419
18.15,-0.080421001,-0.075253487,0.020315409
18.16,-0.083882838,-0.075377464,0.021263242
18.17,-0.134685725,0.044284821,-0.194940209
18.18,-0.060907036,0.044204712,0.495687127
18.19,0.093935281,0.036751747,0.862312138
18.2,0.083147138,0.012516975,0.31204325
18.21,-0.234855562,-0.013816834,-0.146089494
18.22,-0.148409188,0.043812752,0.106036902
18.23,0.057393253,-0.073431969,0.119046629
18.24,0.192571312,-0.150037766,0.03432709
18.25,0.183053047,-0.035117149,0.431237847
18.26,0.180095941,-0.035480499,0.42738834
18.27,-0.115108222,0.028595924,0.472596228
18.28,-0.239900976,0.06396389,0.256538153
18.29,-0.287077665,0.041957855,0.299551785
18.3,-0.239929795,0.0415802,0.116197467
18.31,-0.230218858,-0.018390656,-0.015326679
18.32,-0.228715152,-0.018241882,-0.013937831
18.33,-0.076063275,-0.075557709,0.126081705
18.34,-0.084785223,-0.063455582,0.18278262
18.35,0.11463812,-0.049015999,0.078191608
18.36,0.113687962,-0.048980713,0.079653651
18.37,0.088564485,-0.00584507,0.029020786
18.38,0.003845125,-0.008207321,0.305816948
18.39,-0.064405411,-0.029781342,0.296865404
18.4,0.025690883,-0.044137955,0.180156231
18.41,0.093379796,-0.053740501,0.061677158
18.42,-0.047587216,0.042004585,0.247160047
18.43,-0.147059411,0.058678627,0.325763404
18.44,-0.147260189,0.058680534,0.326079607
18.45,-0.251878828,0.044436455,0.17905584
18.46,-0.150598854,-0.046352386,-0.078920186
18.47,-0.149435669,-0.046180725,-0.076535761
18.48,-0.14838469,-0.036529541,0.096344173
18.49,-0.049784243,0.04005909,0.428037643
18.5,0.087190062,0.035178185,0.42855078
18.51,0.086658418,0.035051346,0.426516652
18.52,0.092862189,0.008579254,0.120653361
18.53,0.091643751,0.008419991,0.119045645
18.54,0.016179413,-0.013324738,0.23129487
18.55,-0.066989124,-0.035133362,0.235021114
18.56,-0.068117827,-0.03528595,0.233358622
18.57,-0.037767351,-0.090406418,0.139513224
18.58,-0.038480759,-0.090426445,0.139631182
18.59,-0.03704071,0.029271126,0.190659583
18.6,-0.126367122,0.041176796,0.276138902
18.61,-0.083914638,-0.035526276,0.255986601
18.62,-0.109124005,-0.150524139,0.207534254
18.63,-0.14361915,0.000239372,-0.099182665
18.64,-0.144053459,0.000293732,-0.097794831
18.65,-0.075301886,0.048218727,0.276930034
18.66,0.110654533,0.038566589,0.577722251
18.67,0.066265494,-0.014297485,0.489241093
18.68,-0.180280536,-0.023934364,0.073819667
18.69,-0.35044536,-0.117156029,-0.025742829
18.7,-0.054939628,-0.114520073,0.256000906
18.71,-0.054314166,-0.114510536,0.255629033
18.72,0.148387015,-0.181547165,-0.085786045
18.73,0.198856264,-0.06908989,0.012726247
18.74,0.04503879,0.014443398,0.144230276
18.75,-0.134800017,0.040417671,0.24743104
18.76,-0.137362272,0.040027618,0.242247462
18.77,-0.189551413,0.061272621,0.288419128
18.78,-0.118924648,0.041981697,0.054226696
18.79,-0.157688081,-0.010656357,-0.006720245
18.8,-0.124027968,0.006280899,-0.070395589
18.81,-0.06156987,-0.050974846,0.024485648
18.82,0.092812926,-0.058021545,0.231579334
18.83,0.066991836,-0.03155899,0.213756144
18.84,-0.068464398,0.014094353,0.25149098
18.85,-0.05235827,0.031032562,0.114174843
18.86,-0.052931666,0.03123951,0.118349254
18.87,-0.192017078,0.041054726,-0.08551544
18.88,-0.191821873,0.041199684,-0.083011746
18.89,-0.145924062,0.053299904,0.187260062
18.9,-0.14494586,0.05346489,0.189472765
18.91,-0.197853237,0.111210823,0.171166807
18.92,-0.208836526,0.15468502,0.132087857
18.93,-0.204959393,0.155063629,0.135989517
18.94,-0.186893761,0.100354195,0.23041597
18.95,0.028795809,-0.040596008,0.271831274
18.96,-0.003156632,-0.143351555,0.276484132
18.97,0.005664885,-0.174307823,0.153520316
18.98,0.015667796,-0.188597679,0.034939229
18.99,0.030001312,-0.114456177,-0.002461076
19,-0.066217154,0.01468277,0.119834065
19.01,-0.066034466,0.014481544,0.116369486
19.02,-0.14686349,0.040647507,0.33545801
19.03,-0.210107505,0.043010712,0.077496111
19.04,-0.277599722,0.043143272,-0.041262329
19.05,-0.145526201,0.043416977,-0.033976197
19.06,-0.124136806,0.12749958,0.184634477
19.07,-0.121968538,0.127755165,0.187304109
19.08,0.159723759,0.111249924,0.307822973
19.09,0.073775619,0.044490814,0.187841386
19.1,0.074565321,0.044848442,0.193240911
19.11,-0.163134277,-0.014578819,-0.392083466
19.12,-0.16138655,-0.014086723,-0.385245919
19.13,-0.105721444,-0.167037964,0.377800047
19.14,-0.105981261,-0.16708374,0.377377868
19.15,0.216955096,-0.227355003,0.93762517
19.16,-0.331481159,-0.213168144,0.163846135
19.17,-0.424912334,-0.141329765,-0.106016338
19.18,-0.282454789,-0.019062042,-0.010339022
19.19,-0.276762068,-0.047595978,-0.227694452
19.2,-0.273593962,-0.047225952,-0.224127233
19.21,-0.008132309,0.163756371,0.162156075
19.22,-0.008484185,0.163640022,0.160478503
19.23,0.049943805,0.225646019,0.337026984
19.24,-0.071156114,0.165499687,0.378916234
19.25,-0.071470588,0.165285111,0.375499159
19.26,-0.066080868,0.177164078,0.390157223
19.27,-0.105563641,-0.009545326,0.224733234
19.28,-0.021731049,-0.107424736,0.239397675
19.29,0.042613238,-0.183767319,0.474768043
19.3,0.044294894,-0.183564186,0.476671398
19.31,0.127355903,-0.279108048,0.531753242
19.32,0.074399769,-0.295469284,0.139384449
19.33,-0.097307414,-0.261347771,-0.162303865
19.34,-0.288805336,-0.174657822,-0.330975711
19.35,-0.103493124,0.045977592,-0.299651384
19.36,-0.06569007,0.139529228,0.108270884
19.37,-0.06706661,0.139526367,0.109100342
19.38,-0.070721984,0.163403511,0.389439464
19.39,-0.245655686,0.153992653,0.334606797
19.4,-0.174833834,0.089567184,0.174319297
19.41,-0.127709746,-0.013097763,0.223169357
19.42,-0.166706175,-0.142110825,0.304921717
19.43,0.010369271,-0.237685204,0.121903718
19.44,0.040295035,-0.270998955,-0.057765901
19.45,0.021633595,-0.206254959,-0.054218948
19.46,-0.057310253,-0.081823349,0.030698061
19.47,-0.102821916,0.023334503,0.281583369
19.48,-0.023875207,0.049406052,0.378190517
19.49,-0.02427268,0.049145699,0.374368012
19.5,-0.146515101,0.065765381,0.302696466
19.51,-0.185946465,0.072989464,0.266486287
19.52,-0.184841424,0.073030472,0.266411007
19.53,-0.01475057,0.049183846,0.269989103
19.54,-0.014715225,0.049239159,0.352447182
19.55,0.0743213,0.049351692,0.215007544
19.56,0.167544305,0.02796936,0.016518056
19.57,-0.091232896,-0.034128189,0.009516239
19.58,-0.358176768,-0.105872154,-0.01622504
19.59,-0.234141052,-0.034002304,0.032963276
19.6,-0.233081579,-0.034085274,0.030644059
19.61,0.075584382,-0.113321304,0.563564956
19.62,-0.023850203,-0.108846664,0.454310775
19.63,-0.086912066,-0.18098259,0.38070789
19.64,-0.023103684,-0.186084747,0.072278976
19.65,0.117414177,-0.047417641,-0.066755593
19.66,0.221338362,0.048184395,-0.101837456
19.67,0.192867518,0.048088074,0.252546787
19.68,0.084968597,0.062261581,0.550922632
19.69,0.048607379,0.169682503,0.548073232
19.7,-0.124605715,0.126251221,0.334383428
19.71,-0.151054263,0.05654335,-0.039211929
19.72,-0.210153252,0.046881676,-0.178053916
19.73,-0.211369932,0.046919823,-0.176426709
19.74,-0.104649037,0.020590782,0.128685296
19.75,0.089048445,-0.055972099,0.299864233
19.76,0.019619465,-0.06061554,0.352407157
19.77,0.084308416,-0.106013298,0.531083345
19.78,0.071457356,-0.153954506,0.303281069
19.79,-0.036630154,-0.168185234,-0.295215249
19.8,-0.086732268,-0.14628315,-0.404724419
19.81,-0.11549452,-0.122012138,-0.114316285
19.82,-0.07746321,0.007452011,0.116086841
19.83,-0.127931744,0.117714882,0.259456515
19.84,-0.338108927,0.213635445,0.30693233
19.85,-0.216272742,0.127754211,0.061101913
19.86,-0.214546353,0.128124237,0.065738618
19.87,-0.167566657,0.049513817,-0.123115838
19.88,-0.149741113,0.011499405,-0.054803252
19.89,-0.101162106,-0.029057503,0.179114878
19.9,-0.014787644,-0.08408165,0.316188574
19.91,0.111887127,-0.105530739,0.233998716
19.92,0.057477564,-0.122171402,0.19231236
19.93,-0.166207463,-0.081321716,0.229348183
19.94,-0.181754738,-0.129068375,0.158673942
19.95,-0.011851877,-0.18403244,0.066955686
19.96,0.01164344,-0.224677086,0.10878104
19.97,-0.051177323,-0.205482483,0.136235237
19.98,-0.044831246,-0.152793884,0.091611862
19.99,-0.044003785,-0.033107758,0.283907503
20,0.081210852,-0.006875038,0.283608049
20.01,0.078371227,-0.007023811,0.283450097
20.02,0.16777581,-0.014335632,0.126301527
20.03,-0.0989393,0.050112724,0.2840707
20.04,-0.142174721,0.047499657,0.194015354
20.05,-0.14433834,0.047341347,0.193200141
20.06,-0.430144668,0.044939995,-0.249315202
20.07,-0.31443882,0.040301323,-0.056178629
20.08,-0.080335021,-0.065063477,0.205099672
20.09,0.049147934,-0.156216621,0.493579269
20.1,0.046308309,-0.156607628,0.489786923
20.11,0.101798415,-0.05413723,0.605998099
20.12,0.084157348,-0.025792122,0.255895197
20.13,0.084752679,-0.011528969,0.059851944
20.14,-0.003871739,-0.064188957,-0.061867297
20.15,-0.050632864,0.005213737,0.221198708
20.16,-0.215809405,0.050426483,0.565736055
20.17,-0.155992776,0.047478676,0.352817953
20.18,-0.244893849,0.008654594,-0.077021122
20.19,-0.23899141,-0.032273293,-0.242340744
20.2,-0.188926488,-0.120934486,-0.061581612
20.21,-0.01841566,-0.140123367,0.112314165
20.22,0.132953227,-0.128158569,0.269879818
20.23,-0.039273232,-0.006054878,0.456474543
20.24,-0.131557196,0.039443016,0.606707275
20.25,-0.130980283,0.039478302,0.606898367
20.26,0.112207025,-0.113668442,0.003320277
20.27,-0.111711115,-0.079857826,-0.158941627
20.28,-0.112445265,-0.079550743,-0.153527796
20.29,0.015309721,-0.1105299,-0.123732746
20.3,0.102213949,0.001877785,0.049513519
20.31,0.092454612,0.061451912,0.247462392
20.32,0.087987125,0.061169624,0.245951235
20.33,-0.285845846,0.199877739,0.003695905
20.34,-0.285811663,0.199932098,0.004314184
20.35,-0.411016911,0.10424614,0.064456463
20.36,-0.162557125,-0.029722214,0.119952381
20.37,-0.05145517,-0.144516945,0.183605939
20.38,0.061953396,-0.149112701,0.317638755
20.39,0.062484145,-0.148924828,0.320007086
20.4,-0.09454459,-0.057739258,0.186219871
20.41,-0.092458725,-0.057429314,0.189360559
20.42,-0.124869734,-0.009303093,-0.0280357
20.43,-0.086478084,-0.071476936,-0.167917013
20.44,-0.065521985,-0.002099037,-0.012942195
20.45,-0.066953748,-0.002308846,-0.015090168
20.46,-0.020792633,0.047654152,0.498217374
20.47,-0.022640884,0.047502518,0.497118324
20.48,0.009388715,0.047446251,0.341859192
20.49,-0.020025581,0.037950516,-0.046630979
20.5,0.038441569,0.023657799,-0.003975809
20.51,-0.020789474,-0.012248039,0.16021356
20.52,-0.022075117,-0.012317657,0.159984559
20.53,-0.204378724,-0.005167007,-0.053336322
20.54,-0.198684484,0.02618885,-0.321132064
20.55,-0.092908233,-0.02382946,-0.176034033
20.56,0.107328504,-0.016580582,0.594072163
20.57,-0.005510062,-0.069600105,0.612147272
20.58,-0.00760588,-0.069998741,0.607571065
20.59,0.104928613,-0.096758842,0.624225617
20.6,0.199087188,-0.089976311,0.559247017
20.61,-0.176677734,-0.039885521,-0.425421298
20.62,-0.126460522,0.046319962,-0.267102838
20.63,-0.128219932,0.046099663,-0.269287169
20.64,-0.12904346,0.052671433,0.49621883
20.65,-0.132576019,0.051915169,0.486597627
20.66,-0.10487017,0.043955803,0.603549123
20.67,0.05494687,0.043409348,0.527043283
20.68,-0.182579935,0.031209946,0.078471243
20.69,-0.131022722,0.024059296,0.013340056
20.7,0.04293716,-0.076374054,0.007394075
20.71,0.096328378,-0.078624725,0.147981703
20.72,0.010338783,0.002848625,0.52717483
20.73,0.077318877,0.04341507,0.398173571
20.74,0.076299161,0.043330193,0.397439241
20.75,-0.05427441,0.005155563,0.173063964
20.76,-0.054696441,0.005354881,0.176694483
20.77,0.082927048,-0.121320725,-0.170878708
20.78,0.004339546,-0.106742859,-0.21383667
20.79,0.002229124,-0.10660553,-0.210306883
20.8,-0.03786993,0.056224823,0.128697723
20.81,-0.072797924,0.099359512,0.264358729
20.82,-0.257437348,0.121021271,0.508030891
20.83,-0.256094992,0.121148109,0.5093382
20.84,-0.218481094,0.054312706,0.331739634
20.85,-0.159197658,-0.09147644,0.004315019
20.86,-0.238370121,-0.038539886,0.049999058
20.87,-0.214265555,-0.016890526,0.090854883
20.88,-0.059167355,0.004715919,0.097459733
20.89,-0.057987511,0.004701614,0.096727371
20.9,-0.166386038,0.045376778,0.372931957
20.91,-0.107286245,0.04539299,0.343308657
20.92,-0.065036327,-0.031103134,0.1716654
20.93,0.0268296,-0.088448524,0.005274832
20.94,-0.013509482,-0.054858208,0.09713167
20.95,0.00081411,-0.050074577,0.185749084
20.96,-0.000240684,-0.050174713,0.184767336
20.97,0.084058791,-0.033514023,0.134210646
20.98,0.02230832,0.028648376,0.119827628
20.99,-0.103531331,0.040463448,0.278732806
21,-0.124289453,-0.055437088,0.155363172
21.01,-0.237887442,-0.002873421,-0.309888601
21.02,-0.262164503,0.045068741,-0.521786153
21.03,-0.205020189,0.018854141,-0.191834629
21.04,0.163796708,0.00664711,0.620004177
21.05,0.159432367,0.006191254,0.615678847
21.06,0.2563743,-0.085132599,0.842547655
21.07,-0.211338699,-0.006120682,0.129294425
21.08,-0.054475456,0.005963326,0.128059238
21.09,0.072674781,-0.108879089,-0.086219072
21.1,0.204767361,-0.034667015,0.046418965
21.11,0.174793735,-0.015802383,0.295856357
21.12,-0.033458352,-0.009115219,0.345846593
21.13,-0.222086251,0.021445274,0.368021786
21.14,-0.225065857,0.020814896,0.35966748
21.15,-0.325010687,0.039392471,0.32738933
21.16,-0.273111999,0.031904221,0.157365561
21.17,-0.253775448,0.036547661,0.030319393
21.18,-0.253232122,0.036487579,0.028949738
21.19,0.062363803,0.002929688,0.224941135
21.2,-0.129605442,-0.011424065,0.441042543
21.21,0.019712269,0.024526596,0.376348436
21.22,0.113051862,0.012657166,-0.031379879
21.23,-0.04311201,-0.003871918,-0.012638271
21.24,-0.007588953,-0.037183762,0.072429121
21.25,-0.008932173,-0.037068367,0.07530421
21.26,0.069632709,-0.029862404,0.223611265
21.27,-0.038630694,0.041796684,0.392426789
21.28,-0.040660173,0.041618347,0.39061904
21.29,-0.369383961,0.041471481,0.197429419
21.3,-0.296952486,-0.044755936,0.026398957
21.31,-0.12920475,-0.102232933,-0.048317313
21.32,-0.058477789,-0.140623093,0.082717896
21.33,-0.059396654,-0.1407938,0.080418289
21.34,-0.088497072,0.005031586,0.438447803
21.35,-0.026267827,0.03352356,0.357774735
21.36,-0.021289021,0.033352852,0.213289648
21.37,-0.057246387,0.025989532,0.222450316
21.38,-0.074438006,0.04256916,0.221720934
21.39,-0.075006157,0.042361259,0.218644142
21.4,-0.058842719,0.05417347,0.208982945
21.41,-0.063628346,0.020606041,0.184043437
21.42,-0.065460056,-0.039224625,0.150876522
21.43,-0.055273592,-0.122940064,0.12331292
21.44,-0.054738462,-0.122876167,0.123902112
21.45,-0.075715244,-0.079712868,0.14162609
21.46,-0.074965894,-0.079706192,0.141212493
21.47,-0.112498641,0.040017128,0.26045078
21.48,0.042829961,0.040002823,0.217536032
21.49,-0.000531495,-0.019874573,0.176519603
21.5,-0.065419465,-0.051041603,-0.063581109
21.51,-0.089157909,0.049546242,-0.261831403
21.52,-0.122993708,0.008868217,0.062031209
21.53,0.04352209,-0.060710907,0.491168946
21.54,0.282812893,-0.003608704,0.845644355
21.55,-0.080040634,0.038961411,0.431688547
21.56,-0.276585996,0.029177666,0.080913514
21.57,-0.27559641,0.029131889,0.079594702
21.58,-0.124077559,0.00273037,0.118425429
21.59,0.03690818,-0.167417526,0.038734972
21.6,0.035780936,-0.167527199,0.037428856
21.61,0.018721223,-0.055206299,0.178977937
21.62,-0.01335153,0.028066635,0.351286739
21.63,-0.016919434,0.027503014,0.34286353
21.64,-0.119951218,0.046129227,0.459129602
21.65,-0.140518487,0.038591385,0.146838576
21.66,-0.141034037,0.038440704,0.144386619
21.67,-0.024152964,0.009658813,0.212982833
21.68,0.065827608,-0.019081116,0.167969763
21.69,0.107162818,-0.066942215,0.157643199
21.7,0.033379018,0.00494957,0.114872485
21.71,-0.080596238,-0.002118111,0.072289258
21.72,-0.024120897,-0.052257538,-0.008092344
21.73,0.002652556,-0.092915535,0.035018146
21.74,0.041105121,-0.059391022,0.213721484
21.75,0.181876674,-0.045072556,0.171453595
21.76,0.178361073,-0.045145035,0.172549725
21.77,0.163739204,0.009867668,0.244612485
21.78,-0.294388264,0.040873528,0.310195804
21.79,-0.166866541,-0.004600525,0.037032962
21.8,-0.231201291,-0.059624672,-0.005399406
21.81,-0.182337046,-0.078731537,-0.09835434
21.82,-0.179250062,-0.021217346,-0.004261911
21.83,-0.17874825,-0.021150589,-0.003634572
21.84,-0.054148644,0.036352158,0.167266429
21.85,-0.106457979,0.038862228,0.281701297
21.86,-0.004891574,0.031819344,0.264280766
21.87,0.096298367,-0.051860809,0.127368808
21.88,-0.030466974,-0.097215652,0.081932694
21.89,0.013263583,-0.097108841,0.114584625
21.9,0.013006121,-0.097125053,0.114568412
21.91,0.024528861,-0.051652908,0.207855851
21.92,0.04109329,-0.022878647,0.175200492
21.93,-0.263339758,0.075435638,0.293940485
21.94,-0.415534407,0.140268326,0.288300693
21.95,-0.095609725,0.073462486,-0.050905228
21.96,-0.142374426,0.133468628,0.183464915
21.97,-0.140623778,0.133546829,0.183992416
21.98,-0.110075176,0.080962181,0.418794453
21.99,-0.060015589,0.033192635,0.436019033
22,-0.196772486,-0.081609726,0.283828288
22.01,-0.267580867,0.023981094,-0.271825612
22.02,-0.23255387,0.038797379,-0.472103357
22.03,-0.119916946,-0.015856743,-0.181363821
22.04,0.222708374,-0.092362404,0.574747682
22.05,0.165053576,-0.1477108,0.789199472
22.06,-0.050232053,-0.12411499,0.552102566
22.07,-0.050208688,-0.124287605,0.54899919
22.08,-0.072618842,-0.035725594,0.303388029
22.09,-0.07117331,-0.03567791,0.303253204
22.1,-0.060398787,-0.095265388,-0.648042619
22.11,-0.125380337,-0.001630783,-0.200117171
22.12,-0.139434636,0.038801193,0.320633411
22.13,-0.142544001,0.038308144,0.313787937
22.14,-0.102485687,0.037804604,0.562991619
22.15,-0.176160157,0.059056282,0.321454227
22.16,-0.295010537,0.063811302,0.076177001
22.17,-0.170138925,0.037721634,-0.203893602
22.18,-0.050719827,-0.026511192,-0.175949454
22.19,0.036766142,-0.059659004,0.150678903
22.2,0.03746143,-0.059397697,0.154961556
22.21,0.322304726,-0.028094292,0.399853826
22.22,0.158885241,-0.039810181,0.198851377
22.23,0.159156472,-0.039453506,0.204880863
22.24,-0.020404786,-0.118225098,-0.003641844
22.25,-0.021288872,-0.118060112,-0.000571668
22.26,-0.080857217,-0.05099678,0.0825212
22.27,-0.171345115,0.056656837,0.24258396
22.28,-0.122602582,0.063695908,0.267637223
22.29,-0.102092236,0.049320221,0.265580386
22.3,-0.195449382,0.042203903,0.383939982
22.31,-0.193372279,0.042283058,0.384056151
22.32,-0.292331457,-0.022273064,0.419173122
22.33,-0.137613267,-0.115469933,-0.135482013
22.34,-0.067446113,-0.036193848,-0.221771419
22.35,-0.064853162,-0.036044121,-0.22048825
22.36,0.009145111,0.040642738,-0.11083734
22.37,0.028289616,0.10765934,0.526638091
22.38,0.030813277,0.102863312,0.556063712
22.39,0.110161841,0.055045128,0.371204376
22.4,-0.088658333,-0.018946648,0.124368817
22.41,-0.147702485,-0.157467842,-0.127785683
22.42,-0.144966036,-0.157087326,-0.123158634
22.43,-0.090534061,-0.24533844,0.003354311
22.44,-0.041527718,-0.206801415,0.157268107
22.45,-0.095772743,-0.130001068,0.17870298
22.46,-0.127902329,-0.012468338,0.028438151
22.47,-0.016375095,0.040504456,-0.082721114
22.48,0.060998648,0.059916496,-0.062289417
22.49,0.061464518,0.060091972,-0.059599996
22.5,0.161996007,0.069716454,0.288489342
22.51,0.162005633,0.069684029,0.287871063
22.52,-0.08097586,0.029015541,0.273033112
22.53,-0.144140095,0.043479919,-0.013415813
22.54,0.01208514,0.012408257,0.324464679
22.55,0.02998668,-0.090686798,0.526696324
22.56,-0.000461042,-0.167546272,0.550241947
22.57,-0.052094847,-0.275533676,0.223828763
22.58,-0.051712006,-0.17976284,-0.14043051
22.59,-0.050563991,-0.179677963,-0.139695346
22.6,0.021620214,-0.143715859,-0.254131615
22.61,0.119446158,0.021429062,0.161761135
22.62,-0.066399723,0.12646389,0.593305051
22.63,-0.184514403,0.200248718,0.799642861
22.64,-0.244417489,0.156861305,0.443014115
22.65,-0.243237346,0.156810761,0.441220969
22.66,-0.174557447,0.015678406,-0.173049152
22.67,-0.17300874,0.015886307,-0.170470655
22.68,0.050001025,-0.070098877,0.012265265
22.69,0.089205474,-0.050790787,0.404431671
22.7,0.104326904,-0.088991165,0.470486522
22.71,0.129205495,-0.04094696,0.489162773
22.72,0.060756445,-0.043169022,0.199322164
22.73,-0.122267932,-0.095593452,0.013591588
22.74,-0.049083352,-0.174356461,-0.016878843
22.75,0.076542169,-0.17201519,0.019069314
22.76,-0.01690343,-0.093195915,0.139689207
22.77,-0.122390866,0.023841858,0.239515096
22.78,-0.124409527,0.023546219,0.236153513
22.79,-0.321832836,0.114390373,-0.129469335
22.8,-0.388364255,0.119188309,-0.165572405
22.81,-0.458384574,0.124012947,0.190701932
22.82,-0.278202027,0.085744858,0.407201052
22.83,-0.083997846,0.040287018,0.537659228
22.84,-0.005314469,-0.007555008,0.429102331
22.85,-0.002892226,-0.007414818,0.429877251
22.86,0.099750251,-0.047926903,0.223464578
22.87,0.053949445,-0.165032387,-0.081039965
22.88,0.068967164,-0.167332649,-0.048669636
22.89,0.068596274,-0.167369843,-0.049087882
22.9,0.017112672,-0.043142319,0.53609544
22.91,-0.141735971,-0.017068863,0.534652889
22.92,-0.141470879,-0.017237663,0.531596422
22.93,-0.059242845,-0.019647598,-0.036827266
22.94,-0.024483442,-0.081903458,-0.035766184
22.95,-0.004618406,-0.053207397,0.146604329
22.96,0.074883163,0.006503105,0.289044768
22.97,0.072635084,0.006321907,0.287552923
22.98,0.049452603,0.042099953,0.281683266
22.99,0.047991306,0.042006493,0.28119272
23,-0.067834347,-0.001161575,0.318773836
23.01,-0.051434785,-0.061079025,0.188657641
23.02,-0.223910838,-0.089881897,0.022265375
23.03,-0.222462952,-0.08990097,0.020945251
23.04,-0.179838717,-0.070764542,-0.030707121
23.05,0.083189875,-0.037337303,0.331685215
23.06,0.087934107,-0.099945068,0.571380854
23.07,0.085066736,-0.100502968,0.56394589
23.08,-0.050564885,-0.072232246,0.41775763
23.09,-0.007248163,-0.000619888,0.157512635
23.1,0.110412091,-0.043778419,-0.06623888
23.11,0.095121443,-0.005396843,-0.069256663
23.12,-0.083893508,0.040077209,0.348519325
23.13,-0.085860431,0.039820671,0.345079958
23.14,-0.214205712,0.056138992,0.489206046
23.15,-0.243743062,0.02948761,0.096207827
23.16,-0.345995188,-0.020856857,-0.015743315
23.17,-0.223807126,-0.097381592,0.060980767
23.18,-0.063408077,-0.149894714,0.035579979
23.19,-0.006545871,-0.19520855,0.085575879
23.2,-0.005789787,-0.19504261,0.088032186
23.21,0.130447745,-0.125489235,0.040061533
23.22,0.189682692,-0.106293678,0.491466671
23.23,0.073854119,-0.015311241,0.358058006
23.24,-0.11069119,-0.027178764,-0.051949918
23.25,-0.186406702,-0.024523735,-0.277636886
23.26,-0.186060369,-0.024308205,-0.274022341
23.27,-0.210178733,-0.00987339,0.0529387
23.28,-0.236860901,0.040370941,0.298980773
23.29,-0.138835043,0.042672157,0.244938493
23.3,-0.222793698,0.04744339,0.156361699
23.31,-0.257492006,0.045228958,0.081784874
23.32,-0.109278232,-4.48227E-05,-0.011510611
23.33,-0.076459259,-0.042933464,0.019584
23.34,-0.074768841,-0.042750359,0.021618903
23.35,-0.075161725,-0.056959152,0.080286354
23.36,0.019547999,-0.013802528,0.298294365
23.37,-0.10149473,0.007831573,0.428321838
23.38,-0.076472372,0.007873535,0.332627565
23.39,0.036192983,-0.028012276,0.081478745
23.4,0.03273198,-0.051931381,-0.099053323
23.41,-0.059994072,-0.004012108,-0.094953239
23.42,-0.030522436,0.041440964,0.037066162
23.43,-0.03274712,0.041292191,0.036185324
23.44,0.001259983,0.062768936,0.110565692
23.45,-0.175161064,0.04839325,0.252623677
23.46,-0.034361482,0.036428452,0.262625784
23.47,0.074537396,0.010066032,0.210295111
23.48,0.065396458,0.012372971,0.188782573
23.49,-0.044149458,0.040979385,0.319397152
23.5,0.088238925,-0.059793472,0.412579
23.51,0.073513269,-0.129501343,0.335602224
23.52,-0.036765635,-0.165605545,0.192631751
23.53,-0.229908019,-0.168112755,-0.16503638
23.54,-0.275459439,-0.060281754,-0.37893033
23.55,-0.275848448,-0.060192108,-0.377098739
23.56,0.091100216,0.013967514,0.398760855
23.57,0.08799991,0.013607979,0.394588232
23.58,-0.00362134,0.022712708,0.73077333
23.59,-0.005023599,0.022326469,0.724898279
23.6,0.096133024,-0.011296272,0.090257406
23.61,0.010381341,-0.08068943,-0.454886138
23.62,0.000145197,0.022377014,-0.191480637
23.63,-0.002495676,0.02216053,-0.193873346
23.64,-0.028503478,0.038243294,0.924441457
23.65,-0.078121126,0.030306816,0.518417537
23.66,-0.228716075,0.041782379,0.043544739
23.67,-0.188499421,0.034393311,-0.149117351
23.68,-0.138165563,-0.032682419,-0.032444119
23.69,-0.13812086,-0.032714844,-0.033171833
23.7,0.081820726,-0.025617599,0.372627378
23.71,0.172195256,-0.001730919,0.458114296
23.72,0.159362599,-0.016177177,0.457087845
23.73,0.179835841,0.03646946,0.457113892
23.74,0.041998774,0.036437035,0.18920204
23.75,-0.042672098,-0.030529976,-0.064814448
23.76,-0.014639556,-0.097399712,-0.154372752
23.77,-0.003790498,-0.068509102,-0.047627747
23.78,-0.004913956,-0.068408012,-0.044976056
23.79,0.022536665,0.036951065,0.240984261
23.8,-0.143763989,0.082448006,0.220152408
23.81,-0.143357456,0.082505226,0.22095117
23.82,-0.258567959,-0.015525818,-0.034008741
23.83,-0.256074369,-0.015303612,-0.031468093
23.84,-0.198269934,-0.134778976,-0.014463902
23.85,-0.191099703,-0.134590149,0.202729911
23.86,-0.131702364,-0.101047516,0.328946412
23.87,-0.120531857,-0.079481125,0.273047775
23.88,-0.118667841,-0.079394341,0.273534983
23.89,-0.09022215,-0.09356308,-0.102729201
23.9,-0.11019066,-0.06698513,-0.123405635
23.91,-0.154169112,-0.011665344,-0.014588416
23.92,-0.129275352,0.007633209,0.093022078
23.93,-0.128871143,0.00777626,0.095252603
23.94,-0.121645093,0.027103424,0.081350654
23.95,-0.178545922,0.039248466,0.038784385
23.96,-0.23240751,0.039452553,0.029667854
23.97,-0.159403771,0.027742386,-0.122072041
23.98,-0.137313485,0.004109383,0.002647221
23.99,-0.053059131,-0.009975433,0.059830248
24,-0.098417372,0.026236534,0.062364101
24.01,-0.097687572,0.026544571,0.067182899
24.02,-0.103706896,-0.004277229,-0.01935339
24.03,-0.096235335,-0.109388351,-0.09684974
24.04,-0.172520965,-0.125938416,0.004662752
24.05,-0.320289165,-0.049163818,-0.213377059
24.06,-0.258958697,0.03494072,-0.257390916
24.07,-0.2574296,0.035286903,-0.252425134
24.08,0.14042452,0.01640892,0.460402548
24.09,0.073942542,-0.064816475,0.17241019
24.1,0.072890401,-0.064520836,0.177857935
24.11,-0.142451704,-0.126440048,0.120783031
24.12,-0.037300617,-0.202867508,-0.043949425
24.13,-0.038864225,-0.202740669,-0.040693045
24.14,-0.08844012,0.044067383,-0.168250263
24.15,-0.087099671,0.132457733,0.323850125
24.16,-0.265780836,0.065066338,0.433076739
24.17,-0.246421933,0.04323864,0.240822554
24.18,-0.264491499,-0.04071331,-0.03132391
24.19,-0.319572657,-0.119685173,-0.109812379
24.2,-0.329879016,-0.176968575,-0.105611622
24.21,-0.298725754,-0.17911911,-0.10775727
24.22,-0.147614151,-0.133284569,-0.024957597
24.23,-0.100137323,-0.128181458,-0.054677486
24.24,0.047625244,-0.156561852,-0.043320298
24.25,-0.004452318,-0.151451111,-0.096037805
24.26,-0.044704914,-0.158328056,-0.211158335
24.27,-0.07793656,-0.172369957,-0.161111951
24.28,-0.077876955,-0.172157288,-0.15792805
24.29,-0.03060025,-0.131322861,0.059799194
24.3,-0.091652155,-0.045046806,-0.053130746
24.31,-0.09296149,-0.044919968,-0.050539851
24.32,-0.294601381,-0.075881004,-0.376030326
24.33,-0.210548073,-0.130730629,-0.425564647
24.34,-0.21045047,-0.130526543,-0.422415793
24.35,-0.180656821,-0.245249748,-0.250206947
24.36,-0.163168579,-0.180404663,-0.295396328
24.37,-0.252800465,-0.160943985,-0.301484108
24.38,-0.226338983,-0.103151321,-0.341273904
24.39,-0.176242858,-0.10044384,-0.402520597
24.4,-0.229330212,-0.066560745,-0.35768652
24.41,-0.159915924,-0.06856823,-0.379668295
24.42,-0.124825746,-0.075304985,-0.486958683
24.43,-0.111680359,-0.036447525,-0.544656158
24.44,-0.259354711,-0.047847748,-0.537010312
24.45,-0.258135378,-0.047195435,-0.528675079
24.46,0.011730254,-0.17825222,-0.608348608
24.47,-0.474083662,-0.11068058,-0.381193817
24.48,-0.694388032,-0.172055244,-0.668971419
24.49,-0.571398199,-0.199192047,-0.868063808
24.5,-0.532855749,-0.302465439,-0.959406138
24.51,-0.470399231,-0.225660324,-1.07276988
24.52,-0.427244514,-0.141195297,-1.137192965
24.53,-0.377754986,-0.087530136,-0.926945448
24.54,-0.385789067,-0.069940567,-0.590628386
24.55,-0.344641984,-0.151284218,0.017215788
24.56,-0.120554686,-0.319857597,0.186668575
24.57,-0.113790572,-0.319140434,0.190760791
24.58,-0.287769675,-0.670255661,-1.259268045
24.59,-0.525819719,-0.486441612,-1.676841497
24.6,-0.76505357,-0.399412155,-1.495151043
24.61,-0.587951005,-0.383737564,-0.610676527
24.62,-0.740112305,-0.54378891,-0.319836617
24.63,-0.881090522,-0.498297691,-0.505743623
24.64,-0.619014919,-0.653411865,-0.730048299
24.65,-0.261945427,-0.95674324,-0.238876939
24.66,-0.167347908,-1.280807495,-0.254668355
24.67,-0.057555676,-1.442874908,-0.536944628
24.68,-0.06208396,-1.446633339,-0.56943965
24.69,-0.120070458,-1.616201401,-0.160799027
24.7,-0.229838073,-1.501569748,0.146390319
24.71,-0.239854813,-1.305918694,0.112077177
24.72,-0.355733693,-1.148677826,-0.099138379
24.73,-0.495123982,-1.118138313,-0.492097735
24.74,-0.503128767,-1.123293877,-0.554403067
24.75,-0.199546516,-1.473202705,-0.723641634
24.76,-0.088265538,-1.643708229,-0.596304596
24.77,-0.014804423,-1.855125427,-0.661640883
24.78,-0.140677095,-2.05177021,-0.518993795
24.79,0.090495348,-2.324402809,-0.578998625
24.8,0.06470418,-2.32813549,-0.674311161
24.81,0.957490087,-3.080447197,-0.552119017
24.82,1.803601265,-3.209400177,-0.626896918
24.83,2.797094584,-2.985722065,-0.414351732
24.84,3.374418497,-2.684720516,0.052553996
24.85,3.551793337,-2.073773384,0.333744705
24.86,3.185451746,-1.379570961,-0.029371828
24.87,2.433451176,-0.826631546,-0.546443224
24.88,1.202042222,-0.431101799,-0.820808888
24.89,-0.213904545,-0.083077431,-1.32151401
24.9,-1.110075831,0.085043907,-2.163895845
24.91,-1.22413063,0.196781158,-2.564674139
24.92,-1.075620651,0.091547012,-2.482917786
24.93,-1.139198542,0.107237816,-2.591806412
24.94,-0.824935436,-0.178941727,-2.285810471
24.95,-0.616328359,-0.484265328,-2.128374815
24.96,-0.20534575,-1.329914093,-0.736495256
24.97,-0.259803593,-1.302695274,-0.872961879
24.98,0.379527867,-1.398281097,0.590192437
24.99,0.688015521,-1.159316063,1.126224995
25,0.712470412,-0.599525452,1.328304052
25.01,0.784729183,0.148264885,1.242914438
25.02,0.872696757,0.769064903,1.148895264
25.03,0.745878995,1.464771271,1.132035732
25.04,0.34392482,2.146935463,1.264131069
25.05,0.329437733,2.184153557,1.149670124
25.06,-0.167789459,3.027821541,2.281212568
25.07,-0.149234355,3.047347069,2.217571259
25.08,0.118106902,3.198334694,1.309226751
25.09,0.155527711,3.199765205,1.295320511
25.1,0.679028392,2.846357346,-1.664514899
25.11,0.717036903,2.840892792,-1.657566667
25.12,0.510249376,3.480127335,-2.5732131
25.13,0.347418606,4.025642395,-1.809365511
25.14,0.290569007,4.64233017,-0.532916546
25.15,0.135127127,5.076462746,0.369368076
25.16,-0.360637546,5.280334473,0.841298103
25.17,-0.503081679,5.555006981,1.489618778
25.18,-0.383327365,5.373688698,1.27980566
25.19,-0.349658012,5.368740082,1.289067984
25.2,-0.280566812,4.716217995,0.814769507
25.21,-0.358436942,1.42818737,2.459973097
25.22,-0.368330836,1.440728188,2.424826145
25.23,-0.612976551,-0.45712471,3.222027779
25.24,-1.0807482,-2.606049538,3.564481258
25.25,-2.272206306,-4.183471203,5.40161705
25.26,-2.25906229,-3.329146862,6.054751396
25.27,-1.384670973,-1.638339996,4.443091393
25.28,-1.374692321,-1.621077538,4.397260666
25.29,-0.873719573,3.583877563,0.580351353
25.3,-2.296892881,6.54411602,0.414168358
25.31,-5.058806419,8.654745102,1.580802679
25.32,-7.197944641,10.11621475,2.499410868
25.33,-7.06459856,10.10264874,2.527485847
25.34,-3.518531084,9.434606552,2.315673113
25.35,-1.492953658,9.191859245,1.300194263
25.36,-0.58774209,9.321302414,0.698423863
25.37,-0.442146957,8.52215004,0.146132946
25.38,-0.319008797,7.853130341,-0.695011139
25.39,-0.449929982,6.99217701,-2.50732255
25.4,-0.470754147,6.974872589,-2.458709717
25.41,-1.240939736,4.75709343,-4.083332062
25.42,-0.623189092,3.071209908,-3.331276178
25.43,1.148160577,1.043371201,0.796194315
25.44,2.092012405,-0.891345978,4.796300888
25.45,1.562936902,-3.250057697,5.633797646
25.46,0.568611085,-5.735370636,3.492499113
25.47,-0.205817461,-8.448102951,-1.366550326
25.48,-1.29943037,-10.24170017,-5.891381264
25.49,-1.313378572,-10.27387905,-5.77644825
25.5,-1.77573204,-11.96398449,-6.978676796
25.51,-0.3801108,-12.23906708,-4.567242622
25.52,1.061344504,-12.59888744,-2.31302166
25.53,1.340446472,-12.40336418,-1.576479554
25.54,-0.033415645,-11.8642807,-0.802683592
25.55,-0.091945291,-11.84328651,-0.867426634
25.56,-1.615054846,-10.339674,-1.279591799
25.57,0.582007349,-9.362511635,-3.734607935
25.58,3.472659588,-6.905558109,-3.694875002
25.59,3.376339436,-6.878685474,-3.760027409
25.6,8.712812424,-1.133406639,0.985014916
25.61,8.626806259,-1.093413353,0.887960196
25.62,8.610876083,5.191173553,5.819717884
25.63,5.445320129,8.126185417,6.311169147
25.64,3.752873421,11.13402367,5.209321022
25.65,1.342849016,14.14222527,4.311407089
25.66,-0.392546296,16.02946854,3.869076252
25.67,0.145071864,15.33393002,2.964882612
25.68,-0.041005969,13.30567169,0.964069367
25.69,-2.212724209,10.64596176,2.374357462
25.7,1.963000894,7.403622627,1.244834661
25.71,-0.203731477,5.126526833,3.132528305
25.72,-1.503204346,3.292003632,5.957194328
25.73,-0.668011129,1.966309547,5.759606361
25.74,-0.113019109,0.586622238,4.232327938
25.75,-0.480318695,-0.514038086,4.610960007
25.76,-2.176306725,-1.738902092,6.32075882
25.77,-3.15651536,-3.888877869,4.571115494
25.78,-3.112584352,-6.250896454,-0.212962389
25.79,-3.074113131,-6.254235268,-0.208585262
25.8,-5.672197342,-9.256737709,-5.825860023
25.81,-5.836872578,-9.845537186,-5.140098572
25.82,-5.738790512,-9.84535408,-5.149194717
25.83,-4.280204773,-10.37695312,-3.744953156
25.84,-4.485020161,-11.33714294,0.175692082
25.85,-3.492907763,-12.23341846,-0.959183931
25.86,-2.494450331,-13.74399853,-2.154300213
25.87,-1.826759696,-14.25317669,-1.55506897
25.88,-0.113686957,-13.81888771,-1.469798088
25.89,1.647630334,-11.97780132,-1.410853863
25.9,1.608960748,-11.95945072,-1.461133718
25.91,1.947761536,-4.785078526,-0.630451202
25.92,3.502020121,-0.138763428,0.827043057
25.93,4.997226715,4.715829849,2.585519552
25.94,3.857306004,9.12761116,3.3545928
25.95,-0.721569479,14.15614223,3.183007479
25.96,-6.668352127,17.71146202,4.927719116
25.97,-6.407474041,18.27061653,8.964784622
25.98,-3.394666433,15.97556496,14.17136574
25.99,-3.414276838,15.97018433,14.18647194
26,-3.079294205,12.82344437,5.227540016
26.01,-3.51051116,11.91875458,-1.938984275
26.02,-3.498959064,10.4925766,-4.255968094
26.03,-2.657876492,8.89703846,-2.390852451
26.04,-1.079682112,7.081927299,-0.83105278
26.05,-1.093154192,7.073702812,-0.802997351
26.06,0.495262355,5.263288498,0.610540628
26.07,0.444631726,3.787837982,2.238046408
26.08,-0.443938315,0.119239807,5.71400547
26.09,1.354565024,-3.550944328,4.183142662
26.1,2.077966928,-6.447527885,0.788418531
26.11,1.946891308,-8.926490784,-1.408996701
26.12,1.214135885,-11.12903976,-2.90803647
26.13,0.813559651,-12.35758972,-3.685308456
26.14,0.684672475,-13.39033604,-4.203578472
26.15,0.63331902,-13.40516663,-4.132958889
26.16,0.840384305,-14.62780762,-2.315033436
26.17,0.475941509,-14.80972099,-0.490177512
26.18,1.300053596,-14.58009911,0.437643051
26.19,2.073711872,-13.76791573,0.173391342
26.2,1.906283975,-12.56350327,-1.718261242
26.21,1.487523317,-11.28551388,-4.085237503
26.22,0.708360434,-9.0867033,-5.889215469
26.23,0.63582319,-4.884192467,-6.016938686
26.24,1.885937452,0.460666657,-2.541395187
26.25,3.629399776,5.275547028,2.580912352
26.26,7.267834663,8.538803101,3.678245068
26.27,6.072191238,11.25210762,5.698586941
26.28,5.746431828,12.21402359,7.791103363
26.29,5.789463043,13.03102398,7.368447781
26.3,2.884356022,15.29834843,5.808884144
26.31,4.42707777,14.1863966,4.649964809
26.32,3.279336214,12.54684925,3.632805347
26.33,3.294532776,12.54405403,3.63510561
26.34,0.247810364,10.74611187,1.206528425
26.35,0.607470751,10.1388588,-0.901160359
26.36,0.163654566,9.07719326,-0.020714402
26.37,0.275607824,9.062718391,-0.016898036
26.38,-1.956442356,4.479737282,7.584280968
26.39,-1.833124638,4.462314606,7.612458229
26.4,-0.0704391,-2.681800365,7.809032917
26.41,-0.852955401,-6.235323906,4.372933388
26.42,-3.232032776,-8.938902855,0.108309746
26.43,-3.153558493,-8.954735756,0.181028962
26.44,-5.58740139,-11.98969364,-2.464290619
26.45,-6.668162346,-12.11603069,-3.101003408
26.46,-5.198284626,-11.77934551,-2.42047286
26.47,-5.86672163,-12.29479122,-0.605387688
26.48,-5.453533649,-12.68050575,0.4943856
26.49,-5.450405598,-12.68341446,0.518115997
26.5,-3.741411448,-15.84085846,0.289165258
26.51,-3.772610903,-15.83759308,0.26518321
26.52,-2.382399082,-14.51836681,-2.587467909
26.53,-2.408199787,-14.51335144,-2.623063564
26.54,-2.042461872,-11.91003799,-3.456074238
26.55,-1.484607935,-5.465048313,-2.095517874
26.56,0.094058365,-1.792061329,-0.687492192
26.57,0.102677435,-1.784898281,-0.736898363
26.58,2.959830284,1.607859612,2.332830429
26.59,5.988462448,5.165773392,5.189171791
26.6,1.274093032,14.02086926,3.715792656
26.61,-7.212470531,18.98657799,6.998062611
26.62,-9.833258629,20.16158295,12.50486088
26.63,-6.69965744,18.07670975,13.05134106
26.64,-5.177662849,16.30038452,6.536572933
26.65,-5.181679249,16.29460526,6.567157745
26.66,-6.711933613,15.6885004,-2.715991497
26.67,-3.686457634,10.55666542,-3.496670008
26.68,-1.212574244,7.054323196,0.787718535
26.69,0.627766967,3.676811218,3.115753889
26.7,2.001716852,1.572656631,3.874767065
26.71,1.953159571,1.570936203,3.887809992
26.72,3.271213055,-2.896513462,2.235616922
26.73,2.614285469,-4.54003191,1.981268287
26.74,0.472122639,-5.985804558,0.976141691
26.75,-1.36337328,-7.785293579,-0.774801672
26.76,-0.958087444,-9.912675858,-1.815930605
26.77,0.311736107,-11.53433895,-2.679589033
26.78,0.262176544,-11.54008198,-2.626591206
26.79,1.91048646,-14.3621912,-3.324537754
26.8,1.823398113,-14.36047459,-3.304535151
26.81,3.577832699,-16.01544762,-0.731813729
26.82,2.477907181,-15.46991348,1.881733418
26.83,1.423336506,-13.82393074,2.463314533
26.84,1.319071531,-12.19703102,0.137645721
26.85,0.844086826,-9.595657349,-3.641123533
26.86,1.105642319,-4.321144104,-4.504596233
26.87,4.481789589,0.026615143,-1.89457202
26.88,4.4248209,0.040812492,-1.939250231
26.89,8.443695068,4.202933311,1.519566536
26.9,6.35734272,10.21038342,5.288066387
26.91,1.58732307,12.34574127,5.64793396
26.92,-2.14168644,15.28442669,5.226147175
26.93,-1.608718872,15.63260651,6.603066444
26.94,2.213499546,13.01198769,6.833242416
26.95,3.352844238,10.70205688,3.975019693
26.96,2.92967701,9.932536125,0.95576191
26.97,1.605752468,9.867944717,-0.111358404
26.98,1.685997963,10.47833061,-1.214584112
26.99,0.497704387,10.35255527,1.522720814
27,-0.222561121,10.33670425,5.889492512
27.01,-0.730945408,8.244849205,9.976660728
27.02,-2.566910982,4.610100746,11.99956512
27.03,-2.99913311,0.118004799,10.66885662
27.04,-3.322877645,-5.492284775,6.384234428
27.05,-4.209639549,-9.627407074,0.723507047
27.06,-5.433458805,-12.55889034,-2.626694202
27.07,-5.218989372,-14.17187119,-5.016968727
27.08,-4.253261566,-14.9964819,-6.868187428
27.09,-4.235147476,-15.09383774,-5.514592648
27.1,-3.779988527,-13.69128895,-3.385228872
27.11,-5.872653484,-12.89317226,1.596665978
27.12,-5.864253521,-12.88548279,1.534265876
27.13,-5.802546501,-13.17725277,3.533370256
27.14,-4.050382137,-13.54871559,0.564966083
27.15,-3.258765697,-13.01644707,-1.227558374
27.16,-2.975513697,-11.17033291,-2.038724422
27.17,-2.51276207,-8.757648468,-1.897155762
27.18,-1.662083745,-5.591268063,-0.804368675
27.19,-0.571694374,-1.346291542,1.513558984
27.2,2.697096109,3.437454224,4.335530758
27.21,2.715323687,3.437763214,4.327999115
27.22,4.519833088,11.91909885,5.951900005
27.23,4.553607941,11.93034172,5.880567551
27.24,-2.595950127,17.98077202,8.894069672
27.25,-5.140798092,16.77983093,10.17590427
27.26,-6.793284416,15.51480961,7.565935135
27.27,-6.77679348,15.51842117,7.545838356
27.28,-6.729653835,14.60856342,-1.078064442
27.29,-6.705537319,14.59314728,-1.004371405
27.3,-2.880764961,9.901034355,-2.007877827
27.31,-0.396737397,7.405714989,0.286786079
27.32,-0.414607972,7.403392792,0.302087069
27.33,1.90358448,2.396282196,0.781244159
27.34,0.966834307,1.449926376,1.62922287
27.35,0.290923923,-0.446221352,3.928361893
27.36,-0.234977454,-1.925502777,4.525569916
27.37,-0.273143202,-1.928304672,4.549690247
27.38,0.819577873,-7.463180542,0.761511922
27.39,0.644221306,-9.66758728,-1.63783896
27.4,-0.00890699,-11.24412251,-2.987213612
27.41,0.10577026,-12.85731697,-4.006954193
27.42,0.978432357,-14.3281908,-3.852599144
27.43,0.925914824,-14.33378029,-3.791606188
27.44,2.605978489,-15.5088253,-1.232271433
27.45,3.003248215,-16.2081871,0.301894188
27.46,3.21176815,-16.21011543,1.99326241
27.47,3.127764225,-16.19266891,1.924346924
27.48,3.600483894,-15.31979084,1.100626826
27.49,2.178796768,-13.38531113,-1.652487278
27.5,-1.317169189,-7.157199383,-6.761799812
27.51,-1.317376375,-7.152157307,-6.791969299
27.52,0.893771648,4.728869438,-4.034384251
27.53,0.900512695,4.732811928,-4.061450481
27.54,10.74640942,12.12739658,4.226372242
27.55,9.852832794,14.31132603,5.480072498
27.56,9.759652138,14.32626915,5.462718964
27.57,5.548598289,16.65565872,7.784850121
27.58,2.231528282,17.24726295,9.511818886
27.59,1.666552544,12.47408581,3.847803354
27.6,-1.007490873,10.51877308,0.498612166
27.61,-3.283314228,9.175299644,-0.88722682
27.62,-2.630513191,8.114243507,0.538057327
27.63,-0.801952541,6.541794777,1.78058517
27.64,-1.83240366,4.999077797,3.220667362
27.65,-6.216218472,4.518393517,5.198539734
27.66,-5.293004513,2.545722961,7.063698769
27.67,-2.593785286,-1.344789505,9.350307465
27.68,-0.694134831,-5.298140526,9.447052956
27.69,-0.787704468,-8.461650848,5.876383305
27.7,-0.729593039,-8.472782135,5.927255154
27.71,-3.092812061,-10.16404629,0.514370322
27.72,-4.190298557,-12.28987694,-9.241503716
27.73,-4.747489929,-12.92276573,-6.574261189
27.74,-5.699892044,-13.33454418,-1.20728898
27.75,-6.519235611,-14.21408463,2.764387131
27.76,-6.115299702,-15.255476,3.739216805
27.77,-4.355638027,-15.9061203,0.922055721
27.78,-2.906158209,-14.96656036,-3.104454279
27.79,-2.957093716,-14.96321297,-3.117959976
27.8,-2.313600302,-10.77415562,-2.725969791
27.81,-2.335816383,-7.320707321,-0.629807353
27.82,0.130350649,-1.515509605,-0.470277071
27.83,0.128651738,-1.510789871,-0.497469306
27.84,5.641730785,4.341616631,1.708693862
27.85,10.5771513,9.17507267,3.130432606
27.86,2.622693539,20.746418,9.452656746
27.87,-4.929160118,22.64631653,20.3813076
27.88,-4.844485283,22.68008804,20.22179413
27.89,-13.09087372,21.158535,26.91223145
27.9,-8.693880081,12.88565445,0.158865213
27.91,-7.469040871,10.72661686,-13.64489174
27.92,-7.454856873,10.68668652,-13.46660519
27.93,-5.191100121,9.39222908,-10.98472023
27.94,-2.044292688,7.711007118,-3.163876772
27.95,1.60564208,5.145373344,1.776079655
27.96,3.695547104,2.847054482,3.559112549
27.97,4.105936527,1.685372353,3.609992504
27.98,1.104488015,-0.71832943,5.078544617
27.99,-0.192115754,-2.039797306,4.91203022
28,-0.480042726,-4.920962334,1.684940577
28.01,-0.716421247,-8.076566696,-2.440591812
28.02,-0.757452965,-8.09258461,-2.352255106
28.03,-0.79365468,-10.2768383,-5.552015781
