Time (s),Linear Acceleration x (m/s^2),Linear Acceleration y (m/s^2),Linear Acceleration z (m/s^2)
0,0.008199528,-0.099536896,-0.100602359
0.01,0.008763298,-0.099517822,-0.098052084
0.02,-0.157468736,-0.032458305,-0.087511405
0.03,-0.166123465,0.015453339,-0.090400472
0.04,-0.187710226,0.020251274,0.041989349
0.05,-0.187971219,0.020251274,0.038735606
0.06,-0.211569086,0.020272255,0.517493129
0.07,-0.103789046,0.022704124,0.367328793
0.08,-0.216238424,0.049052238,0.106231593
0.09,-0.214740291,0.049089432,0.105805479
0.1,-0.300986558,0.09942627,0.017539386
0.11,-0.043468475,0.020451546,-0.101055875
0.12,-0.042885423,0.020451546,-0.100107193
0.13,-0.089971006,-0.032187462,0.464560568
0.14,0.181197256,-0.094419479,0.591161728
0.15,0.179968,-0.094414711,0.587945402
0.16,0.159069896,-0.072914124,0.465604246
0.17,0.158419311,-0.072912216,0.463993281
0.18,-0.029190168,-0.041804314,0.322268128
0.19,-0.04302381,-0.240581513,-0.115249962
0.2,-0.270492971,-0.152056694,-0.206607461
0.21,-0.176104114,-0.147316933,-0.111174673
0.22,0.001541674,-0.298217773,0.052743681
0.23,0.05254522,-0.37731266,0.336378187
0.24,-0.013979062,-0.343869209,0.712930024
0.25,-0.03885524,-0.248137474,0.701051831
0.26,-0.15132089,-0.135597229,0.241673067
0.27,-0.058600292,-0.073354721,-0.126549497
0.28,0.165298909,-0.071007729,-0.188441545
0.29,0.042919457,-0.106999397,0.036660269
0.3,0.130613387,-0.123828888,0.642720223
0.31,0.186019704,-0.085559845,0.865240336
0.32,0.056439966,-0.030488968,0.780131102
0.33,0.05257979,-0.030441284,0.768214464
0.34,-0.121842414,0.046205521,-0.055404417
0.35,-0.38304168,0.113272667,-0.067631453
0.36,-0.381697536,0.113312721,-0.068084449
0.37,-0.062514931,-0.11652565,0.193258584
0.38,-0.063542232,-0.116560936,0.194624603
0.39,0.209340304,-0.226770401,0.507142305
0.4,0.03607282,-0.229185104,0.461855084
0.41,0.033633247,-0.265113831,0.27603662
0.42,0.045234323,-0.293879509,-0.013763666
0.43,0.044577032,-0.293933868,-0.010255948
0.44,-0.025730804,-0.126386643,-0.154335186
0.45,-0.174991846,0.019605637,-0.070184931
0.46,-0.309190452,0.086657524,0.033038944
0.47,-0.259079039,0.06510067,0.123856545
0.48,-0.182891265,0.079454422,0.266763687
0.49,-0.183226496,0.07946682,0.265506089
0.5,-0.180686101,0.019629478,0.462538987
0.51,-0.075805113,-0.030599594,0.21773231
0.52,-0.076720268,-0.064125061,-0.041607879
0.53,-0.127439365,-0.100016594,-0.105501674
0.54,-0.072670698,-0.100006104,-0.148127571
0.55,-0.070833251,-0.099989891,-0.145078123
0.56,0.059907213,-0.138303757,0.154545754
0.57,0.094633222,-0.174196243,0.236461699
0.58,0.095442489,-0.174167633,0.236277282
0.59,0.031890988,-0.001749992,0.113885179
0.6,-0.025699601,0.022195816,0.084711991
0.61,0.002417952,0.053305626,-0.03785342
0.62,-0.09225525,0.091580391,-0.092383683
0.63,-0.245581478,0.208883286,-0.131513119
0.64,-0.17555657,0.038860321,-0.140416056
0.65,-0.126274839,0.002898216,-0.146440998
0.66,-0.129009232,0.002842903,-0.145476252
0.67,-0.097049117,-0.064255714,0.155414805
0.68,0.026814654,-0.047488213,0.732702971
0.69,0.025312722,-0.047475815,0.727724612
0.7,0.190528199,-0.0378685,0.518731833
0.71,-0.020456523,0.019639015,0.23778218
0.72,0.038265139,0.031636238,-0.065885335
0.73,0.048542857,0.01964283,0.330730468
0.74,-0.157089979,0.019669533,0.702785254
0.75,-0.25808996,-0.018553734,0.730219424
0.76,-0.276264191,-0.032786369,0.365134835
0.77,-0.167047367,-0.09256649,-0.123179302
0.78,-0.180231407,-0.157196045,-0.261044771
0.79,-0.121452197,-0.181147575,-0.176535919
0.8,-0.068076715,-0.099732399,0.080036968
0.81,-0.017562851,-0.049435616,0.267774522
0.82,-0.046110302,0.020031929,0.220412567
0.83,0.057408154,0.020042419,0.07422851
0.84,-0.057427019,0.043964386,0.111910522
0.85,-0.056631193,0.043956757,0.113930628
0.86,-0.181929961,0.103826523,0.586176753
0.87,-0.18145971,0.103818893,0.587639809
0.88,-0.048729986,0.094165802,0.080262385
0.89,-0.221260116,0.060566902,0.089141048
0.9,-0.272777081,0.01980114,0.127167195
0.91,-0.129604951,-0.028102875,-0.012438335
0.92,-0.12829183,-0.028141022,-0.005886719
0.93,-0.050525278,-0.255643845,-0.164506465
0.94,-0.049198702,-0.255649567,-0.159506738
0.95,-0.214834228,-0.123937607,0.024899393
0.96,-0.293788135,-0.023326874,0.2347188
0.97,-0.372093439,0.019878387,0.506659031
0.98,-0.217545033,0.019997597,0.578999817
0.99,0.017700568,0.020104408,0.455441654
1,0.194030434,0.012979507,0.383445442
1.01,0.094105676,0.024980545,0.252236784
1.02,-0.084237739,0.044163704,0.194537431
1.03,-0.101335287,0.02025795,0.064230919
1.04,-0.135711238,0.017884254,-0.043344345
1.05,-0.13432242,0.017894745,-0.040824469
1.06,-0.268839657,0.010712624,-0.209771171
1.07,-0.339193165,0.020310402,-0.072001994
1.08,-0.338295937,0.020312309,-0.070863053
1.09,-0.070087984,-0.008444786,0.641850531
1.1,0.142231554,-0.221582413,0.673748732
1.11,-0.094189271,-0.21920681,0.326393664
1.12,-0.124512881,-0.216785431,-0.108758777
1.13,-0.114400655,-0.238363266,-0.466334701
1.14,-0.115778968,-0.238431931,-0.462216467
1.15,-0.074327081,-0.121214867,-0.483854353
1.16,0.11563918,0.003201485,0.745526969
1.17,0.142193571,0.019892693,1.015421271
1.18,-0.05143851,0.019888878,0.938538611
1.19,-0.147220478,0.048663139,0.409704417
1.2,-0.235769123,0.053458214,-0.083339825
1.21,-0.220236674,0.019892693,-0.194996297
1.22,-0.221806124,0.01982975,-0.192626059
1.23,-0.009138495,-0.035321236,0.020160973
1.24,-0.014844373,0.002918243,0.195622534
1.25,-0.017725185,0.002855301,0.196000427
1.26,0.080046475,-0.002028465,0.142284304
1.27,0.068245262,-0.002141953,0.088072762
1.28,0.032711446,-0.028575897,-0.042846479
1.29,0.027030408,-0.004750252,0.017513812
1.3,0.022588044,-0.0048666,0.021116808
1.31,0.000351444,0.01898098,0.25651592
1.32,-0.145824477,0.021256447,0.088758856
1.33,-0.153166667,0.021141052,0.088816717
1.34,-0.027041733,0.00187397,0.247675061
1.35,-0.084813625,-0.170619011,-0.01149784
1.36,-0.36518383,-0.062933922,0.106198058
1.37,-0.359091401,-0.062975883,0.168887392
1.38,-0.140364394,-0.110873222,0.128008246
1.39,-0.049638689,-0.091757774,0.253761888
1.4,-0.028450735,-0.017544746,0.335126162
1.41,0.072130583,0.018383026,0.389749199
1.42,0.161258698,-0.000768661,0.30591175
1.43,0.169969037,0.016000748,0.315143466
1.44,-0.021114029,0.025592804,0.407660395
1.45,-0.097638175,0.037621498,0.312678665
1.46,-0.137843996,0.018515587,0.200036779
1.47,-0.163921803,-0.022192955,0.163475007
1.48,-0.242756039,0.018512726,-0.109058194
1.49,-0.242311508,0.018461227,-0.104980566
1.5,-0.183621645,0.01837635,-0.173510134
1.51,-0.105073147,-0.156484604,-0.16898565
1.52,0.138924703,-0.21163559,0.408003509
1.53,0.142972231,-0.106331825,0.435642034
1.54,-0.093918502,-0.039310455,0.457970351
1.55,-0.093775004,0.018157959,0.510105491
1.56,-0.092947319,0.018177986,0.509709179
1.57,-0.103897527,-0.106340408,-0.178248853
1.58,-0.047389746,-0.072860718,-0.265785843
1.59,-0.091158234,-0.065713882,-0.03706716
1.6,-0.163067877,-0.022619247,0.193283707
1.61,-0.143750757,0.018116951,0.316940069
1.62,-0.102436803,0.022946358,0.301840991
1.63,-0.076794714,0.039750099,0.170648158
1.64,-0.047660019,0.044548988,0.139897943
1.65,-0.000807662,0.018216133,0.246543452
1.66,-0.001697306,0.018223763,0.24601008
1.67,-0.00255743,0.018210411,0.236288607
1.68,-0.239116281,0.018204689,0.335894138
1.69,0.008964665,-0.024920464,0.203658029
1.7,0.11899171,-0.11833477,0.046804279
1.71,0.028878815,-0.089680672,-0.015343264
1.72,-0.027255669,-0.032274246,0.067793071
1.73,-0.029496726,-0.032319069,0.070544712
1.74,0.072626553,0.003554344,0.081765771
1.75,0.095511973,0.005910873,0.199833423
1.76,0.050018489,-0.039571762,0.348230243
1.77,-0.144920513,0.003525734,0.132435113
1.78,-0.264307499,-0.008462906,0.030499265
1.79,-0.189227492,0.008295059,0.122481525
1.8,-0.210429043,0.017875671,0.251396507
1.81,-0.207446471,0.017897606,0.369577944
1.82,-0.139506891,0.008346558,0.163977832
1.83,-0.038153574,-0.037149429,-0.024725638
1.84,-0.025737084,-0.046746254,-0.010441311
1.85,-0.058528621,-0.037180901,0.158471644
1.86,0.018976063,-0.02281189,0.249493539
1.87,0.050608419,-0.0251894,0.25599274
1.88,0.065108217,-0.001257896,0.207838684
1.89,-0.054500606,-0.015620232,0.251350641
1.9,-0.054022178,-0.015636444,0.252309829
1.91,-0.110902578,-0.065940857,0.132527039
1.92,-0.210053429,0.082475662,0.122042626
1.93,-0.208887309,0.082446098,0.125944018
1.94,0.104563661,-0.022953987,0.206609204
1.95,0.100126773,-0.197769165,0.314496756
1.96,0.086937547,-0.140330315,0.165139794
1.97,-0.162428558,-0.044573784,0.116513349
1.98,-0.160655409,-0.044588089,0.117839336
1.99,-0.089965306,-0.097249985,0.228974044
2,-0.101553813,-0.056559563,0.093430057
2.01,-0.064058781,0.010479927,0.339699596
2.02,-0.027932987,0.027261734,0.427544892
2.03,-0.06929639,0.032068253,0.363087863
2.04,-0.122037284,0.04168129,0.179497182
2.05,-0.073258281,0.034502983,-0.052179247
2.06,-0.073622435,0.034488678,-0.050573267
2.07,-0.152023852,-0.020602226,0.004949734
2.08,-0.150898352,-0.02063179,0.007875562
2.09,-0.085132703,-0.087700844,0.102117293
2.1,-0.098087892,-0.10446167,0.37663874
2.11,0.010927271,-0.094912529,0.256740809
2.12,0.054822087,-0.092535973,0.069128267
2.13,-0.023892626,-0.066228867,-0.065207578
2.14,-0.016758613,0.012736321,-0.120532066
2.15,-0.002856486,0.022281647,-0.116441585
2.16,-0.113770828,0.079714775,0.044632338
2.17,-0.215997815,0.046187401,0.090033472
2.18,-0.213864893,0.046167374,0.093442693
2.19,-0.192516089,0.046143532,-0.067214973
2.2,-0.275985807,0.079663277,0.167111099
2.21,-0.272968203,0.079656601,0.170748577
2.22,0.028319865,-0.087950706,0.126488283
2.23,0.029280528,-0.087953568,0.132505357
2.24,0.111591876,-0.119091988,0.07274244
2.25,0.075056627,-0.123888969,0.262811869
2.26,0.033632584,-0.085564613,0.290485978
2.27,-0.055744752,0.017383575,0.304605246
2.28,-0.11840748,0.024598122,0.30336082
2.29,-0.116221078,0.024616241,0.302917451
2.3,-0.108970814,0.029417992,0.164355502
2.31,-0.139761239,0.017459869,0.048571579
2.32,-0.206309706,0.015084267,0.013208587
2.33,-0.250953734,-0.027996063,-0.026310792
2.34,-0.252249777,0.036678314,-0.072762236
2.35,-0.248596519,0.036701202,-0.068583488
2.36,-0.133605927,0.027147293,0.19765763
2.37,0.372011006,-0.229052544,0.708048761
2.38,0.369690448,-0.229054451,0.704937339
2.39,-0.129274696,-0.094981194,0.50802654
2.4,-0.275676817,-0.030305862,0.055927858
2.41,-0.150184125,0.017611504,-0.079095602
2.42,-0.267246783,-0.056595802,-0.321831971
2.43,-0.223977774,-0.003905296,-0.505572856
2.44,-0.072470352,0.017653465,-0.132634014
2.45,-0.074460648,0.017626762,-0.13350758
2.46,-0.021986134,0.046348572,0.40843606
2.47,-0.207528949,0.178022385,0.644606948
2.48,-0.189704895,0.17805481,0.457382768
2.49,-0.098643623,0.032016754,0.235236004
2.5,-0.095784433,0.032027245,0.239375591
2.51,-0.049454793,-0.18342495,0.101197839
2.52,0.037460327,-0.293535233,0.061092988
2.53,-0.012375861,-0.28153038,-0.024243265
2.54,-0.008971021,-0.281494141,-0.017712988
2.55,-0.315680325,-0.109042168,-0.228568956
2.56,-0.311735988,-0.108998299,-0.221947491
2.57,-0.136583999,0.032302856,-0.202216819
2.58,-0.136129826,0.032312393,-0.200147897
2.59,-0.047682822,0.137670517,0.304713249
2.6,-0.047642201,0.137662888,0.303251356
2.61,-0.206619218,0.171201706,0.607756913
2.62,-0.180803672,0.049123764,0.5471825
2.63,-0.047693193,-0.034654617,0.233269393
2.64,-0.198996961,-0.25012207,-0.032175742
2.65,-0.204316929,-0.178251267,-0.085501015
2.66,-0.198341221,-0.144712448,-0.027822146
2.67,-0.132878363,-0.022609711,0.173348442
2.68,-0.001544237,-0.048957825,0.418347865
2.69,-0.002273142,-0.0489645,0.414497048
2.7,0.021513253,0.018069267,0.442324162
2.71,-0.083468929,0.056376457,0.208224818
2.72,-0.074875951,0.051612854,-0.038056396
2.73,-0.069594949,0.018101692,-0.128745779
2.74,0.04962898,0.018089294,-0.07941629
2.75,0.102595359,-0.070512772,-0.050648533
2.76,-0.036362231,-0.11365509,-0.006074497
2.77,-0.038284421,-0.11367321,-0.005850626
2.78,-0.133228257,0.015602112,0.173995584
2.79,-0.019448146,-0.039495468,0.417342156
2.8,0.173320025,-0.12094307,0.666052759
2.81,0.091676921,-0.118626595,0.842600286
2.82,-0.065237693,-0.188101769,0.565131187
2.83,-0.06719584,-0.188117981,0.560243666
2.84,-0.251079202,0.017772675,-0.259409875
2.85,-0.118964165,-0.015742302,-0.63873452
2.86,0.116577044,0.008200645,-0.535341561
2.87,0.005483322,0.017729759,0.145727605
2.88,-0.047861092,0.072778702,0.675124347
2.89,-0.048121423,0.075137138,0.739924908
2.9,-0.060282983,0.075104713,0.487269729
2.91,-0.061329573,0.075101852,0.485260725
2.92,-0.142576218,0.012850761,0.367420167
2.93,-0.074696571,-0.08770752,0.314961523
2.94,0.045478649,-0.183458328,0.227365866
2.95,0.147535518,-0.267278671,0.231705725
2.96,0.143136919,-0.308016777,0.037285119
2.97,0.141291291,-0.308029175,0.040372271
2.98,-0.070677094,-0.181154251,-0.316868156
2.99,-0.190816373,-0.015956879,-0.283831269
3,-0.23643823,0.017578125,0.044248894
3.01,-0.174521163,0.053482056,0.192924231
3.02,-0.115211979,0.094174385,0.267078072
3.03,-0.16542393,0.108545303,0.300942481
3.04,-0.136036813,0.108555794,0.253498882
3.05,-0.163897157,0.067863464,0.225567222
3.06,-0.203271791,0.005631447,0.260254651
3.07,-0.113059551,-0.087729454,0.129650027
3.08,0.036024369,-0.171518326,0.035968993
3.09,0.148352459,-0.195466042,-0.028961159
3.1,0.06412819,-0.102083206,0.101835109
3.11,-0.026526913,-0.116441727,0.216589034
3.12,0.036114678,-0.114062309,0.215085641
3.13,0.14822036,-0.097310066,0.135053426
3.14,0.146833003,-0.078166008,0.196701348
3.15,-0.048058078,0.003230095,0.339499474
3.16,-0.01032982,0.017587662,0.253785223
3.17,0.088663504,0.012784958,0.160099894
3.18,-0.047935769,-0.039920807,0.197221354
3.19,-0.186478347,0.015134811,0.045320176
3.2,-0.187696785,0.098921776,-0.09526027
3.21,-0.16758126,0.017518997,-0.031452902
3.22,-0.045052327,-0.118969917,0.11532639
3.23,-0.048397839,-0.118991852,0.116405711
3.24,0.081762336,-0.174096108,0.325795472
3.25,0.072635397,-0.152565002,0.643553734
3.26,-0.018536143,-0.075966835,0.248766169
3.27,0.031748597,-0.071175575,0.056568641
3.28,0.030770402,-0.071177483,0.057331733
3.29,0.123866037,-0.104718208,0.009291341
3.3,0.000682279,0.017354012,0.707632363
3.31,-0.002407208,0.017329216,0.698095858
3.32,-0.186856896,0.017311096,0.25539735
3.33,-0.187519148,0.017318726,0.249522597
3.34,-0.267557293,0.03168869,-0.011947773
3.35,-0.05025997,-0.001817703,-0.00488273
3.36,0.046698771,-0.085605621,0.179043517
3.37,0.062065121,-0.143066406,0.374252558
3.38,0.119947687,-0.188549042,0.503204644
3.39,0.08337979,-0.138278008,0.381792009
3.4,-0.029600337,-0.133489609,0.167530477
3.41,-0.093797714,-0.116722107,0.098909877
3.42,-0.109844528,-0.116722107,0.159388393
3.43,-0.111536793,-0.085585594,0.190470696
3.44,-0.110699177,-0.08557415,0.189487234
3.45,-0.192597359,-0.023312569,0.251505226
3.46,-0.129042417,-0.059206963,0.072074398
3.47,-0.127951413,-0.059196472,0.071014956
3.48,-0.245937884,0.003058434,0.081847981
3.49,-0.179585367,-0.018466949,0.159781486
3.5,-0.145248652,-0.035216331,0.135112464
3.51,-0.043997325,0.017459869,0.067837492
3.52,-0.077566274,0.017459869,0.111638501
3.53,-0.165507957,0.017475128,0.193435773
3.54,-0.190778822,0.015086174,0.210098952
3.55,0.037105743,-0.075903893,0.17169264
3.56,0.129032254,-0.102238655,0.256335139
3.57,0.12681751,-0.078334808,0.427212149
3.58,0.069923133,-0.051997185,0.388964832
3.59,0.068656772,-0.052010536,0.389497638
3.6,0.02663834,0.012609482,0.29908976
3.61,-0.137379676,-0.049637794,0.160739735
3.62,-0.226876199,0.0173769,-0.156083211
3.63,-0.339073628,0.101174355,-0.213912442
3.64,-0.295734704,0.04370594,-0.195010901
3.65,-0.067316398,0.017354965,0.071659535
3.66,-0.071019933,0.017339706,0.072120138
3.67,0.073552363,-0.030581474,0.833029091
3.68,0.020601913,-0.049740791,0.620222211
3.69,-0.001921833,-0.085670471,0.205591336
3.7,0.04570033,-0.157484055,-0.312976122
3.71,0.058291961,-0.097653389,-0.400571853
3.72,-0.091369107,-0.047393799,0.241395995
3.73,-0.226997405,-0.00429821,0.913301826
3.74,-0.141807348,0.017240524,0.850234926
3.75,-0.145603821,0.017270088,0.839797735
3.76,-0.07937099,-0.025835991,-0.064013407
3.77,-0.231971473,0.012464523,-0.026666621
3.78,-0.155776694,0.017226219,0.071910083
3.79,0.080369785,-0.01390934,0.139777392
3.8,0.078405797,-0.013924599,0.143247694
3.81,0.08184059,-0.023523331,0.287962675
3.82,-0.091233999,0.017170906,0.219785929
3.83,-0.124637827,0.01716423,0.061991617
3.84,-0.103232861,0.045881271,-0.055354953
3.85,-0.089245386,0.048268318,-0.00600662
3.86,-0.109071501,0.017146111,0.031116076
3.87,-0.212237194,0.005177498,0.044036493
3.88,-0.214418709,0.005189896,-0.012415102
3.89,-0.204572439,-0.080985069,-0.032629326
3.9,-0.077256769,-0.124045372,-0.131837085
3.91,0.025376726,-0.162317276,-0.094977438
3.92,-0.119002231,-0.176653862,0.064616337
3.93,-0.147235811,-0.119171143,0.24934426
3.94,-0.120538719,-0.049733162,0.264558047
3.95,-0.067966968,-0.023400307,0.217423081
3.96,-0.08501038,-0.011425018,0.093469068
3.97,-0.214564249,0.017318726,0.228888184
3.98,-0.271493197,0.014917374,0.341219187
3.99,-0.104047097,-0.047343254,0.173051804
4,0.01448942,-0.035359383,0.088062607
4.01,0.067793362,-0.05928421,0.057309888
4.02,0.066384077,-0.059271812,0.060956724
4.03,-0.003912939,0.007797241,0.020059843
4.04,-0.071049951,0.003046989,-0.010771275
4.05,-0.070376873,0.003096581,-0.004844807
4.06,-0.216903806,0.031890869,-0.268457234
4.07,-0.256226718,-0.03028965,-0.128015935
4.08,0.000440288,-0.066166878,0.427180976
4.09,0.058273256,-0.240933418,0.780097961
4.1,0.073996603,-0.288849831,0.441700339
4.11,-0.03903693,-0.267292023,-0.074533053
4.12,-0.01662329,-0.15472889,-0.406347156
4.13,-0.066446185,-0.14511776,-0.51507926
4.14,-0.020913681,-0.046946526,-0.415643215
4.15,-0.069791913,0.015268326,0.058805529
4.16,-0.136564627,0.000828743,0.415306032
4.17,-0.208065406,0.003141403,0.474199832
4.18,-0.292841375,0.010255814,0.082273722
4.19,-0.287645936,0.017419815,-0.305921376
4.2,-0.329447806,0.017420769,-0.297928989
4.21,-0.329257816,0.017446518,-0.296059102
4.22,-0.173422769,-0.047187805,0.031882234
4.23,-0.175516009,-0.044780731,0.157376468
4.24,-0.081946097,-0.032806396,0.126422733
4.25,-0.041578356,0.0007267,-0.124133244
4.26,-0.041578356,0.000746727,-0.121144004
4.27,-0.263318002,0.017544746,-0.167953447
4.28,-0.173480988,-0.01115799,-0.227929637
4.29,-0.149039939,-0.06141758,-0.281075448
4.3,-0.149053082,-0.06140995,-0.280054867
4.31,-0.287456632,0.005622864,0.038093731
4.32,-0.387070417,0.012787819,0.04735877
4.33,-0.385705262,0.012756348,0.045777638
4.34,-0.191045359,-0.075821877,-0.188698798
4.35,-0.216954812,-0.152441025,-0.246218085
4.36,-0.249410808,-0.195544243,-0.258712053
4.37,-0.288518608,-0.219485283,-0.298294663
4.38,-0.336726576,-0.188383102,-0.281905294
4.39,-0.312642723,-0.111798286,-0.146445096
4.4,-0.309995145,-0.111856461,-0.151441589
4.41,-0.28330189,-0.116686821,0.121925637
4.42,-0.170880377,-0.210104942,0.019395825
4.43,-0.161318839,-0.181395531,-0.151026577
4.44,-0.158442408,-0.181427002,-0.155866429
4.45,-0.343413979,-0.121592522,-0.12560463
4.46,-0.377183884,-0.10484314,-0.171380371
4.47,-0.387694031,-0.11203289,-0.088039443
4.48,-0.522170425,-0.006676674,-0.20432058
4.49,-0.448057175,0.031640053,-0.329254687
4.5,-0.603339791,-0.059311867,-0.083844334
4.51,-0.293032736,-0.155034065,0.050412897
4.52,0.052631155,-0.418380737,0.326729715
4.53,0.078046605,-0.39204216,0.035551429
4.54,0.079368792,-0.392041206,0.02843955
4.55,-0.452581018,-0.171710014,0.041939668
4.56,-0.36156866,-0.183606148,-0.061124407
4.57,-0.326874077,-0.291291237,-0.515914202
4.58,-0.302903414,-0.284041405,-0.406856477
4.59,-0.289521396,-0.224115372,-0.157904789
4.6,-0.287084222,-0.224031448,-0.173510939
4.61,-0.441792667,-0.085008621,0.384681821
4.62,-0.337659955,-0.024964333,0.169609189
4.63,-0.398498386,0.003972054,0.12438678
4.64,-0.412433446,0.009001732,0.16618827
4.65,-0.203651458,-0.139163017,0.152614594
4.66,-0.174856812,-0.169988632,0.278250277
4.67,-0.372306764,-0.104988098,0.281197548
4.68,0.018766657,-0.339187622,0.189025715
4.69,0.175661907,-0.400971413,0.270452797
4.7,0.067231707,-0.366916657,0.335951865
4.71,-0.009153754,-0.282479286,0.448363155
4.72,-0.070179604,-0.154840469,0.404870123
4.73,-0.209666789,-0.034343719,0.254689187
4.74,-0.321902365,-0.024079323,0.10831061
4.75,-0.314546078,-0.052099228,-0.027394354
4.76,-0.319743931,-0.051391602,-0.04717809
4.77,0.037679233,-0.247040749,-0.175809562
4.78,0.401406765,-0.370783806,-0.224640533
4.79,0.74520129,-0.468081474,-0.236508936
4.8,0.821579456,-0.555652618,-0.07582292
4.81,0.976160288,-0.587960243,0.075140208
4.82,1.157967567,-0.438141823,-0.107742727
4.83,1.139419556,-0.436735153,-0.133908868
4.84,1.319881558,0.038833618,-0.497398555
4.85,1.175944328,0.493032455,-0.356727958
4.86,1.086069942,0.937824249,-0.300380677
4.87,0.72228241,1.361106873,-0.185255081
4.88,0.455006063,1.688558578,-0.057775617
4.89,0.385171533,1.776159286,-0.150649667
4.9,0.099093407,1.657335281,-0.355421901
4.91,-0.145156294,1.293743134,-0.392177701
4.92,-0.24489063,1.106836319,-0.633323908
4.93,-0.200634211,0.634525299,-0.76263088
4.94,-0.211802453,0.05410862,-0.934820473
4.95,-0.006810263,-0.260515213,-0.604233325
4.96,-0.01453881,-0.26121521,-0.591332912
4.97,-0.175496936,-0.790872574,-0.397069097
4.98,-0.177426949,-0.98522377,-0.472666681
4.99,0.014929131,-1.052327156,-0.35307461
5,0.175604641,-1.15742588,-0.580454648
5.01,0.210572273,-1.164067268,-0.866750896
5.02,0.28272897,-0.978787422,-1.019506574
5.03,0.205274165,-0.754735947,-0.807517409
5.04,0.196788937,-0.752794266,-0.832508087
5.05,0.052255034,-0.55887413,-0.649629235
5.06,0.067950159,-0.283509255,-0.899249613
5.07,0.060034573,-0.281274796,-0.925056815
5.08,-0.099755615,-0.106929779,-1.148122907
5.09,-0.103819192,-0.105204582,-1.167776942
5.1,-0.068479285,-0.173093796,-1.103755832
5.11,-0.071988478,-0.171874046,-1.1168679
5.12,0.018461525,-0.307377815,-1.059841633
5.13,-0.088372111,-0.462376595,-0.860596895
5.14,-0.089123219,-0.462127686,-0.863134921
5.15,0.001774162,-0.668186188,-1.23247695
5.16,0.02902481,-0.778898239,-1.52556777
5.17,-0.021459907,-0.789297104,-1.73943305
5.18,-0.017823011,-0.7902565,-1.729719996
5.19,-0.239743412,-0.70985508,-1.791770935
5.2,-0.380698383,-0.612665176,-1.615212202
5.21,-0.329779655,-0.505842209,-1.453611732
5.22,-0.123619229,-0.327234268,-1.227363467
5.23,0.030908227,-0.258737564,-1.245826125
5.24,0.247934312,-0.15192318,-1.321830034
5.25,0.257791698,-0.152751923,-1.314575195
5.26,0.345750034,0.35662365,-1.129942656
5.27,0.503917813,0.631581307,-1.065086007
5.28,0.655390024,0.873265266,-1.086387873
5.29,0.662105918,1.206040382,-0.903007746
5.3,0.705239534,1.550902367,-0.821490407
5.31,0.474175781,2.036877632,-0.695569038
5.32,0.160800532,2.431674004,-0.337832272
5.33,0.187313914,2.811833382,-0.22705096
5.34,0.480059087,3.114762306,-0.632758081
5.35,0.514421582,3.312005997,-1.086328387
5.36,0.278852999,3.265007973,-0.842182756
5.37,-0.082397573,2.993492126,0.67622447
5.38,-0.061842568,2.993501663,0.673223257
5.39,-0.067505851,2.395436287,2.852886915
5.4,0.07144516,1.952731133,2.867554903
5.41,0.424594462,1.713201523,2.535298824
5.42,0.715837359,1.56942749,2.811833382
5.43,0.865587235,1.222686768,3.498029709
5.44,0.935312986,1.068218231,3.83463192
5.45,0.45741716,1.151465416,4.165745258
5.46,-0.302972883,1.292669296,4.537161827
5.47,-0.974835694,1.230537415,4.512084007
5.48,-1.233046889,1.070268631,3.855689049
5.49,-1.236592293,1.072495461,3.831110001
5.5,-1.538819194,0.94265461,2.927424669
5.51,-2.098505259,0.903818131,1.9234128
5.52,-2.049264431,0.937010765,1.566430569
5.53,-1.989172339,1.030437469,1.421637297
5.54,-1.982061625,1.033374786,1.392313004
5.55,-1.948101401,1.043953896,1.469499946
5.56,-1.12265718,0.57124424,1.506337166
5.57,-1.128788829,0.237473488,1.8694731
5.58,-1.114216089,0.241241455,1.836619139
5.59,-0.296374798,-0.826066017,1.103969812
5.6,-0.221919298,-0.807139397,0.97606945
5.61,0.460102022,-2.155525208,-0.114147067
5.62,0.691154242,-2.681998253,-0.388999939
5.63,0.613456488,-3.120390892,-0.502035618
5.64,0.599313974,-3.121167183,-0.499157667
5.65,0.606080473,-3.436601162,-0.801315963
5.66,0.067046046,-3.894107342,-0.760228813
5.67,0.070548944,-3.902042389,-0.162183523
5.68,0.061096646,-3.906094551,-0.13717711
5.69,-0.12564373,-4.083580494,-0.454098344
5.7,-0.121976733,-4.113226414,-0.799510717
5.71,0.026127175,-4.102311611,-1.001775861
5.72,0.345985323,-3.942682743,-1.166589975
5.73,0.496880889,-3.612453938,-1.280063987
5.74,0.256851196,-3.060734749,-1.25573945
5.75,0.135395363,-2.656620502,-1.13875711
5.76,0.081051707,-2.089086056,-1.037955523
5.77,-0.369921207,-1.542757034,-1.049683213
5.78,-0.379952759,-1.544697762,-1.03461957
5.79,-0.755990446,-0.5770998,-0.896101713
5.8,-0.784199059,-0.187072754,-0.95129776
5.81,-0.870836616,0.147265434,-0.95044291
5.82,-0.86698693,0.246544838,-0.643478036
5.83,-0.962633312,0.146911621,-0.29300338
5.84,-0.765429556,0.015989304,-0.758346379
5.85,-0.752358794,0.011027336,-0.710251033
5.86,-0.206720263,0.214196205,-1.670507312
5.87,0.132135853,0.558760643,-1.663878679
5.88,0.247981668,1.050097466,-1.078116298
5.89,0.226569459,1.789171219,-0.139396012
5.9,0.231624991,1.787179947,-0.114076853
5.91,-0.571871758,2.973695755,0.280427158
5.92,-1.644174457,3.533317566,0.011258245
5.93,-3.27311945,3.836893082,-0.740110219
5.94,-3.967311859,3.97491169,-1.212088585
5.95,-3.582241297,4.492927551,-1.406168699
5.96,-1.443799853,4.828198433,-1.312367678
5.97,0.429071009,4.870394707,-0.946344137
5.98,1.459225535,4.819466591,0.329709351
5.99,2.394894123,4.56098938,1.792145371
6,3.112946749,3.92480278,3.029969215
6.01,3.104674101,3.92345047,3.054280996
6.02,3.464703798,1.76047039,4.945203304
6.03,2.687676191,0.476755142,5.479462624
6.04,2.191681862,-0.590932846,5.063708782
6.05,2.1724298,-0.590601921,5.049687862
6.06,2.20021081,-2.031673908,1.249853134
6.07,1.871401429,-1.859000206,-0.492247522
6.08,1.67727375,-1.427501678,-1.129189968
6.09,1.625513673,-0.710874558,-0.85648936
6.1,1.5718894,-0.159201622,-0.448441118
6.11,1.78080833,0.433361054,-0.106662393
6.12,1.759304881,0.434652329,-0.129469276
6.13,1.288894176,1.681012154,0.547810137
6.14,0.847047269,1.92223835,0.941595554
6.15,0.34271118,1.610598564,1.786881208
6.16,-0.154192865,0.753049851,2.504720926
6.17,-0.385276437,-0.313402176,2.116212368
6.18,-0.396100313,-0.313295364,2.116179466
6.19,-0.075394116,-2.77352047,0.054622412
6.2,0.016654268,-3.932504177,-0.978135407
6.21,0.020467982,-3.935364246,-0.934784889
6.22,0.048053622,-4.639532566,-1.567539454
6.23,-0.111851707,-5.209108829,-1.670745134
6.24,-0.097931892,-5.210409641,-1.648197174
6.25,0.062501393,-4.707803726,0.503916919
6.26,0.180532441,-4.389101982,0.911869049
6.27,0.229239106,-4.007982254,0.792602778
6.28,0.307084799,-3.756158829,0.278763413
6.29,0.098530814,-3.523647308,-0.715320528
6.3,0.114342719,-3.5236063,-0.715858877
6.31,-0.181292534,-2.807499886,-1.808931112
6.32,-0.366972297,-2.373653412,-1.63244319
6.33,-0.355046272,-2.373045921,-1.642116308
6.34,-0.45949921,-2.233595371,-1.498097181
6.35,-0.162628681,-1.608166695,-1.120587111
6.36,-0.105992608,-1.059463501,-0.671374023
6.37,-0.112037651,-0.558926582,-0.312973976
6.38,0.299695402,-0.254906654,-0.041986108
6.39,0.665982366,0.094435692,0.171997368
6.4,0.673380971,0.09414959,0.178285658
6.41,0.661044061,1.048973083,-0.599428415
6.42,0.349539042,1.768911362,-1.362896919
6.43,-0.059055045,2.510238647,-1.938280821
6.44,-0.051223338,2.509442329,-1.920914173
6.45,-0.624630392,3.332468033,-2.158797264
6.46,-0.988799393,3.499640465,-2.0052495
6.47,-0.871492863,3.722036362,-1.552694201
6.48,-0.265534878,4.217479706,-0.523352623
6.49,-0.264949471,4.217373848,-0.521119773
6.5,0.886460543,4.935649872,0.846208096
6.51,0.984799385,5.014696121,1.181570292
6.52,0.076097526,4.78503418,2.333281994
6.53,-1.376084924,4.079209328,4.051324844
6.54,-1.693559051,3.160448074,5.107548237
6.55,-1.119091272,1.784288406,5.147815704
6.56,0.307418108,0.446312904,4.483409405
6.57,1.104066133,-0.273983002,3.851328135
6.58,1.094694734,-0.273597717,3.838773966
6.59,0.031461298,0.064614296,2.489541292
6.6,-0.615353763,0.62797451,1.265791416
6.61,-1.286925316,1.153039932,0.318456829
6.62,-1.81520915,1.78115654,-0.05746901
6.63,-2.21066165,2.189076424,0.330280006
6.64,-2.206385612,2.1902771,0.311737239
6.65,-2.893914461,2.491353035,1.632059336
6.66,-2.323381424,2.08856678,1.230180502
6.67,-2.312260151,2.089922905,1.214094162
6.68,-0.530542135,0.256902695,0.845101953
6.69,0.186324835,-0.884567261,0.462190509
6.7,0.720107555,-2.054901123,0.446656644
6.71,1.31181407,-3.018668175,0.554600835
6.72,1.823306799,-3.977261066,0.136749923
6.73,1.787508368,-3.975506306,0.104337871
6.74,1.734979987,-4.928745747,-0.437050641
6.75,1.009685636,-5.014789581,-0.157054722
6.76,0.367945939,-4.99276495,0.146467209
6.77,0.129433975,-5.00721693,-0.113126695
6.78,0.015070874,-5.065688133,-0.389840901
6.79,-0.329938591,-5.057953835,-0.349956691
6.8,-0.290491402,-4.92151165,-0.72732532
6.81,-0.281040758,-4.802523613,-1.197317839
6.82,-0.303062916,-4.80368042,-1.183086395
6.83,-0.33916688,-4.500491619,-1.556422472
6.84,-0.227778554,-3.91456461,-1.361305952
6.85,-0.110399023,-2.842747688,-1.247746348
6.86,-0.130642474,-2.843871117,-1.230900764
6.87,-0.365593404,-1.569214821,-1.296652198
6.88,-0.585378051,-0.986816406,-0.983094096
6.89,-0.857013583,-0.3782444,-0.556447446
6.9,-0.961866379,0.05800724,-0.183365107
6.91,-0.919213533,0.434372902,-0.025295734
6.92,-0.931360364,0.82744503,-0.124094248
6.93,-1.0443331,1.356916428,-0.551159918
6.94,-0.904215217,1.91501236,-1.061413765
6.95,-0.670858502,2.413426399,-1.459724188
6.96,-0.810647368,2.996146202,-1.126523733
6.97,-1.03136301,3.495824814,-0.632457197
6.98,-1.037143111,3.495980263,-0.633183718
6.99,-1.742246509,3.973414421,-0.107931078
7,-2.51446104,4.324270248,-0.648695827
7.01,-3.620908022,4.870747566,-0.759946883
7.02,-3.476944208,5.748977661,-0.372955859
7.03,-1.335960627,6.159241676,0.022530913
7.04,0.845974922,5.948778152,0.195426345
7.05,2.443074942,5.448740005,0.685867488
7.06,2.904283524,4.908769608,1.940270782
7.07,2.955444098,4.283220291,3.443207502
7.08,2.90026474,3.143246651,5.027691841
7.09,1.898944378,2.151932716,5.887599468
7.1,1.693677187,0.823366165,5.989531994
7.11,2.156465769,-0.349328995,4.962200165
7.12,2.478079796,-1.706458092,2.23464942
7.13,1.933226228,-1.96239233,-0.538734019
7.14,0.816607595,-1.437924385,-2.509266853
7.15,-0.024278462,-0.82487011,-3.159305573
7.16,-0.026159763,-0.18307209,-2.584046364
7.17,-0.029799283,-0.181732178,-2.609007359
7.18,0.449014068,0.256278038,0.423854947
7.19,0.43744114,0.259431839,0.374888957
7.2,0.727015615,0.160115242,2.021426678
7.21,0.050243765,-0.202432632,2.637606859
7.22,0.04497838,-0.199249268,2.595956802
7.23,-0.584208548,-0.931726456,2.940124273
7.24,-1.050701261,-1.775408268,2.589792728
7.25,-1.265494108,-2.891046524,1.524239063
7.26,-1.353426218,-3.938543797,0.335878253
7.27,-0.730051935,-5.470687389,-1.523214102
7.28,-0.702097476,-5.473062992,-1.501767397
7.29,-0.415534735,-5.836663246,-1.899270296
7.3,0.094271705,-5.69188261,-1.118357658
7.31,0.359583676,-5.232426167,-0.318502605
7.32,0.517125547,-4.633323193,0.376140833
7.33,0.534657359,-4.632270336,0.35912776
7.34,0.686992109,-3.520183563,0.191461206
7.35,0.819615126,-2.903651237,-0.409525216
7.36,0.727660656,-2.414071083,-0.901035607
7.37,0.437499076,-1.883842468,-1.506234407
7.38,0.160647214,-1.40155983,-2.15103507
7.39,-0.223513812,-0.83319664,-2.384861231
7.4,-0.399428755,-0.425559044,-2.229153633
7.41,-0.18298626,-0.032612801,-1.523919106
7.42,-0.007664099,0.379360199,-0.481867075
7.43,0.138128817,0.743510246,0.362925708
7.44,0.245982975,1.114702225,0.864409864
7.45,0.253013909,1.113845825,0.873745859
7.46,0.427778184,1.514526367,0.573244572
7.47,0.359388262,1.873856544,-0.092678487
7.48,0.004683994,2.819560051,-1.228688598
7.49,-0.475211501,3.016137123,-1.270736456
7.5,-1.018837929,3.064780235,-1.431114435
7.51,-0.975772917,3.209620476,-1.771365047
7.52,-0.969389439,3.443241119,-1.440882444
7.53,-0.129399195,4.254116058,-0.105304778
7.54,-0.121299475,4.253851891,-0.101259828
7.55,0.948045492,4.723261833,1.450811863
7.56,0.958296478,5.240597725,2.640945435
7.57,0.121260747,5.087669373,4.564163685
7.58,-1.059930801,4.111537933,6.321333885
7.59,-1.751246691,2.79573822,6.539762497
7.6,-1.739818454,2.796815872,6.525918484
7.61,-0.42612195,-0.191070557,3.729196787
7.62,0.100480333,-0.610053062,2.217063665
7.63,0.083920248,-0.609800339,2.212531328
7.64,-0.826078236,0.382079125,0.005236447
7.65,-1.722214222,1.438733101,-0.797772348
7.66,-2.236470699,2.569162369,-1.252274036
7.67,-2.614563704,3.184470177,-0.861477137
7.68,-2.895723343,3.304495811,0.372778058
7.69,-2.86420846,2.8960886,1.471574545
7.7,-2.040053606,1.741199493,2.17864275
7.71,-0.682880104,0.404492378,2.22796607
7.72,-0.685732603,0.405613899,2.214237928
7.73,0.715608478,-2.16737175,1.506491661
7.74,0.86312449,-3.354104042,1.160530806
7.75,1.115125656,-4.306100368,0.54089731
7.76,1.093738914,-4.305270672,0.530694485
7.77,1.087542057,-5.398937225,-0.828166187
7.78,0.849763989,-5.618889332,-1.039524794
7.79,0.509568453,-5.697726727,-1.01847589
7.8,0.487261921,-5.697730541,-1.016700387
7.81,-0.303525627,-5.087199211,0.012441397
7.82,-0.113617979,-4.905231476,0.122842789
7.83,-0.136891887,-4.905445099,0.128947496
7.84,0.043917477,-4.613882065,-0.150419533
7.85,-0.377657563,-3.800753117,-0.894632578
7.86,-0.539021313,-3.500253201,-1.250331998
7.87,-0.39986068,-3.199869633,-1.594983697
7.88,-0.578291655,-2.643182278,-1.751169205
7.89,-0.882164896,-2.120221615,-1.632522225
7.9,-0.479569733,-1.525704384,-1.32664156
7.91,-0.482632041,-1.527369499,-1.303011656
7.92,-0.889507473,-0.310407639,-0.331506133
7.93,-1.536892295,0.334042549,0.028933764
7.94,-1.916374087,0.956400871,-0.233907849
7.95,-1.631925821,1.339108467,-0.740206897
7.96,-0.830424547,1.755350113,-0.936352193
7.97,-0.461651683,2.076293945,-0.120493084
7.98,-0.481702805,2.247113228,0.123292983
7.99,-0.478584707,2.245995522,0.145467401
8,-0.280947089,3.03047657,-0.290866375
8.01,-0.28459686,3.02996254,-0.277928531
8.02,-2.514357328,3.771821022,-1.487878084
8.03,-3.482910395,4.137617111,-2.076049805
8.04,-3.732848883,4.622701645,-1.763474345
8.05,-3.70549798,4.621179581,-1.732036471
8.06,-0.579272568,5.550873756,0.139390856
8.07,2.0548563,5.369722366,0.010318279
8.08,2.051002741,5.368476868,0.061245933
8.09,2.826531649,4.632715225,3.020425797
8.1,2.824787378,4.632334709,3.044488907
8.11,2.106019974,1.900224686,5.775282383
8.12,2.168440342,0.698236466,5.036948204
8.13,2.63245821,-0.448586464,3.281113625
8.14,2.617020369,-0.448536873,3.289413929
8.15,1.431509972,-0.819615364,-0.866664052
8.16,0.501550376,-0.319210053,-1.621288061
8.17,0.195805579,0.310516357,-1.458426952
8.18,0.205727547,0.31050396,-1.468340516
8.19,0.007272042,1.18201828,-0.178598687
8.2,0.035638668,1.261063576,0.076400742
8.21,0.048831031,1.261165619,0.062713578
8.22,0.769000053,0.483374596,0.664624691
8.23,0.701517344,-0.224786758,1.224110126
8.24,0.418959439,-0.96625042,1.586550951
8.25,0.414994329,-0.965355873,1.55303216
8.26,-0.296747685,-2.681221008,0.813064218
8.27,-0.84287715,-3.542480469,0.280751377
8.28,-1.053641558,-4.31565237,0.011313856
8.29,-1.033670187,-4.31574297,0.010744542
8.3,-0.880291522,-4.996017933,-0.286442697
8.31,-0.765108526,-5.635667324,-0.768021345
8.32,-0.689436555,-5.748525143,-0.703796089
8.33,-0.356320024,-5.729424477,-0.337633669
8.34,0.099378079,-5.492024899,0.181188732
8.35,0.712440014,-5.216094971,0.37962386
8.36,1.094558358,-4.805983543,0.222296059
8.37,1.038905263,-4.240147114,-0.255376518
8.38,0.891761243,-3.585699081,-0.977174521
8.39,0.740968823,-2.976798058,-1.574606419
8.4,0.815054834,-2.162050247,-1.140555382
8.41,0.558423936,-1.658576012,-0.880195737
8.42,0.174517125,-1.054602623,-1.166296005
8.43,0.265967339,-0.292819023,-1.032153845
8.44,0.270898074,-0.292593002,-1.034848452
8.45,0.282407224,0.147867203,-0.642589688
8.46,0.57798779,0.885046005,-0.744340181
8.47,0.531181097,1.464025497,-0.652743697
8.48,0.376962423,2.011940956,-0.72164309
8.49,0.143634498,2.600611687,-0.80083257
8.5,-0.17511043,3.313892365,-1.187594414
8.51,-0.522075772,3.835689545,-1.367184997
8.52,-0.527083039,3.835648537,-1.368573785
8.53,-0.715765595,4.223567009,-1.578114271
8.54,-0.521582246,4.28359127,-1.802622914
8.55,-0.882565022,4.370176315,-0.735798359
8.56,-0.310696423,4.732432365,0.667374551
8.57,0.276057839,4.747790337,1.753036261
8.58,0.277171969,4.748867035,1.729998469
8.59,0.520672023,4.43858242,2.387629032
8.6,-0.25529623,3.625330925,3.063191414
8.61,-0.229168683,3.625934601,3.063542128
8.62,-0.634209752,0.468063355,3.103847027
8.63,-0.618249357,0.468223572,3.110093117
8.64,0.050692871,-1.102118492,2.749071598
8.65,1.050680757,-2.059353828,2.116809845
8.66,0.66750437,-1.280723572,1.599956751
8.67,0.647284865,-1.280310631,1.581811428
8.68,0.118522838,0.944293022,0.249599695
8.69,-0.371121526,2.608535767,0.065125763
8.7,-0.381691128,2.608920097,0.054772675
8.71,-3.964991093,4.95157814,2.899436951
8.72,-4.271588802,4.819450378,4.055706024
8.73,-2.722414255,3.550411224,3.935042858
8.74,-2.71906352,3.551521301,3.919433117
8.75,0.050994411,0.628408432,0.92846781
8.76,0.497640163,-0.511413574,-0.612616301
8.77,0.422197342,-1.517407417,-1.188167691
8.78,0.336166799,-2.259779453,-0.885173798
8.79,0.731326342,-3.032477856,-0.516308308
8.8,0.708329201,-3.030900478,-0.54555428
8.81,0.800247967,-4.05147934,-0.643094957
8.82,0.775618792,-4.049753189,-0.670775533
8.83,0.153463811,-4.558089256,0.31009686
8.84,-0.531490743,-4.625757217,1.37729311
8.85,-0.552919924,-4.624773979,1.363423586
8.86,0.120127216,-5.381519318,-0.221224546
8.87,0.180445418,-5.535534859,-0.222286344
8.88,0.041390218,-5.608189106,-0.633655906
8.89,0.028850397,-5.491985321,-1.30675745
8.9,0.010455493,-5.493491173,-1.286905766
8.91,-0.348972023,-4.675873756,-1.566928983
8.92,-0.630840778,-4.128615856,-1.605070114
8.93,-0.639214039,-4.129520893,-1.592079043
8.94,-0.727310836,-3.354764462,-1.656781673
8.95,-1.076302528,-1.859671593,-0.956288993
8.96,-1.075941443,-1.049512863,-0.468574226
8.97,-1.060244679,-1.051410675,-0.441519022
8.98,-1.001861215,-0.282626152,-0.166616291
8.99,-0.895305097,0.35663414,-0.373752058
9,-0.640707612,1.829080582,-1.426937938
9.01,-0.524347723,2.358626366,-1.338035941
9.02,-0.389066994,2.881596565,-1.146006107
9.03,-0.515258908,3.498416901,-0.628322542
9.04,-0.717416585,4.043944359,-0.28968662
9.05,-0.976684034,4.290616035,-0.073191762
9.06,-0.987571597,4.290975571,-0.081729293
9.07,-1.64864552,4.22674942,-0.536007047
9.08,-3.657642603,3.815110207,-1.444926977
9.09,-3.90678668,3.936976433,-1.458739281
9.1,-3.878133297,3.936126709,-1.438222528
9.11,-2.92191577,4.475973129,-0.81982851
9.12,-0.278143644,4.728394508,0.368066758
9.13,3.680890322,4.494829178,1.312772512
9.14,3.669938326,4.493822098,1.343241215
9.15,3.249991417,4.308828354,2.246608734
9.16,2.357246876,3.903830528,3.658855677
9.17,2.22573185,1.791916847,4.425040245
9.18,2.441724539,0.367444992,3.866374493
9.19,2.385821342,-0.776490212,2.461737871
9.2,1.763224602,-1.17555809,1.230065346
9.21,0.742420435,-0.738779068,0.011266351
9.22,0.12163002,-0.397644997,-0.65125531
9.23,0.258202761,-0.044513702,-0.433774054
9.24,0.248684108,-0.042884827,-0.471309722
9.25,0.470207691,0.708367348,0.346317053
9.26,0.464251697,0.710473061,0.30504632
9.27,0.558732152,1.129405975,0.927761257
9.28,-0.803209245,0.820727348,2.173719645
9.29,-1.787644625,0.037679672,1.292685032
9.3,-1.765527606,-0.921240807,0.932049155
9.31,-1.737235546,-2.347319126,0.787202358
9.32,-1.596700072,-3.807068348,-0.346119255
9.33,-1.093903303,-4.917628765,-1.250499725
9.34,-0.339330822,-5.784051895,-1.303039074
9.35,0.014071195,-6.50646019,-0.962741971
9.36,0.338371635,-6.842502117,-0.686893582
9.37,0.35256967,-6.840482235,-0.713022828
9.38,0.586134136,-6.316105843,-0.085007012
9.39,0.599642396,-6.313633919,-0.11456573
9.4,0.668127239,-5.592982769,-0.397707164
9.41,0.35331741,-4.065570354,-0.841517568
9.42,0.157630354,-3.373739243,-0.985318363
9.43,0.167669237,-3.371538162,-1.008173704
9.44,0.374148369,-2.150980949,-1.319655061
9.45,0.306873351,-1.512705803,-1.290880084
9.46,0.029919259,-0.776685715,-1.231475949
9.47,0.086463213,-0.127545357,-1.085834265
9.48,0.175628305,0.303245544,-0.502122283
9.49,0.175769746,0.712378502,0.40581286
9.5,0.200241208,0.922786713,0.669963896
9.51,0.401364386,1.079994202,-0.044705749
9.52,0.400197089,1.078370094,-0.02770257
9.53,0.262257457,1.710792542,-1.166731
9.54,0.293463469,2.264243126,-1.638030291
9.55,0.307982028,2.968619347,-1.635565996
9.56,0.166712299,3.398065567,-1.19206214
9.57,0.165042311,3.397341728,-1.183722734
9.58,-0.954375863,3.643975258,-0.87015754
9.59,-1.113754034,3.201280594,-1.078091145
9.6,-1.104306698,3.201163292,-1.075336814
9.61,-1.219918251,3.047590256,-0.716821849
9.62,-0.59408176,3.61924839,0.353096604
9.63,1.302855849,4.571578979,2.12168169
9.64,0.287281334,4.381766319,2.714852333
9.65,-1.185466409,3.615151405,3.863548756
9.66,-2.180164099,2.200094223,4.880853653
9.67,-2.046053171,0.850081444,4.654360294
9.68,-1.233986378,-0.272288322,3.412223339
9.69,-1.21659255,-0.271874428,3.41389513
9.7,0.743722916,-0.833937645,2.225663662
9.71,0.34737429,0.127613068,2.653404236
9.72,-0.35905093,1.006269455,1.096627474
9.73,-0.603648722,1.892115593,0.160864472
9.74,-0.622093558,1.894264221,0.131148577
9.75,-1.219069481,3.76904583,1.021520495
9.76,-1.7535671,4.105628967,2.011613846
9.77,-1.719237089,4.069214821,2.999355316
9.78,-1.497315049,3.427142143,3.91657877
9.79,-0.727361679,1.798196793,3.778584957
9.8,-0.73786962,1.800987244,3.751813412
9.81,0.231802315,0.289069176,2.969106674
9.82,1.031177282,-2.596686363,-0.242169261
9.83,0.797432423,-3.373956203,-1.216396213
9.84,0.586259604,-4.094234943,-2.008699417
9.85,0.307189137,-4.783416271,-2.150919437
9.86,0.448046774,-5.13457489,-1.979584336
9.87,0.248982593,-5.413356781,-1.505719304
9.88,0.217397064,-5.414072037,-1.497957945
9.89,-0.059063084,-5.63265419,-0.508275151
9.9,-0.334068447,-5.530784607,0.466503024
9.91,-0.113978922,-5.501286983,0.249738097
9.92,-0.09623079,-5.359622955,-0.238242805
9.93,-0.161905035,-5.18262434,-0.817840517
9.94,-0.362579674,-4.905259609,-1.468660474
9.95,-0.45856446,-4.524886131,-2.236613989
9.96,-0.760810614,-3.842498302,-2.511603832
9.97,-1.184699535,-3.006696224,-2.238188028
9.98,-1.524375439,-2.149769306,-1.822587729
9.99,-1.590298891,-1.308033943,-1.207572937
10,-1.564188004,-1.311562538,-1.167987943
10.01,-1.60650003,0.001777649,-0.657050014
10.02,-1.224558949,0.675919533,-0.646502793
10.03,-0.770415247,1.223503113,-0.52810204
10.04,-0.741891503,1.220869064,-0.486232787
10.05,-0.714707077,2.377573013,-0.477820069
10.06,-0.660844028,2.66089344,-0.545296192
10.07,-0.184406728,3.028550148,-0.480494767
10.08,-0.190062121,3.298664093,-0.157613993
10.09,-0.826827645,3.504770279,-0.18364048
10.1,-0.834884405,3.505696297,-0.202698827
10.11,-3.995851755,4.224955559,-1.426175594
10.12,-5.293211937,4.893378258,-2.006250381
10.13,-4.446696281,5.675792694,-1.368807793
10.14,-4.406714439,5.674656868,-1.339875221
10.15,1.21711874,6.02038002,0.752376199
10.16,2.522849798,5.542315483,1.289136291
10.17,3.243895292,4.619271278,2.7245965
10.18,2.875007391,3.624862671,4.520013332
10.19,2.869803667,3.624462128,4.530289173
10.2,2.500313044,-0.046058655,5.029827118
10.21,2.717723131,-1.250217438,3.466789007
10.22,2.962144613,-1.884686947,1.704736233
10.23,2.940255404,-1.884502888,1.696977258
10.24,2.476517916,-1.491430283,-0.031967074
10.25,0.572749198,0.542010307,-1.388703108
10.26,0.715105295,1.230037689,-0.761354566
10.27,0.713041067,1.231193542,-0.787702441
10.28,0.606308162,2.566246033,1.034142852
10.29,0.674343288,2.6397686,1.641871929
10.3,0.851209641,2.143691063,2.043875933
10.31,0.838107884,2.145913124,2.005075932
10.32,0.921657622,0.084684372,2.130797863
10.33,0.901987314,0.087342262,2.091667175
10.34,-0.104612827,-1.967115402,0.559327364
10.35,-0.737739384,-3.014532566,-0.513861299
10.36,-1.020803094,-3.86923027,-1.0614779
10.37,-1.001714706,-3.870055199,-1.051733971
10.38,-1.078922868,-5.252696514,-1.285687685
10.39,-0.80482018,-5.763592243,-1.273025751
10.4,-0.629543543,-5.950780869,-0.779920578
10.41,-1.292765141,-5.864378929,0.2818591
10.42,0.749861121,-5.774924755,0.171670735
10.43,0.765724123,-5.773975849,0.160130501
10.44,1.015563607,-5.224998474,-0.548885584
10.45,0.684377849,-4.616084099,-0.775614321
10.46,0.519251049,-4.102787018,-1.104122519
10.47,0.361239076,-3.48885107,-1.354557276
10.48,0.443073511,-3.011402607,-1.432640314
10.49,0.470731258,-2.519884586,-1.537057042
10.5,0.411275804,-1.873169422,-1.213275671
10.51,0.319699347,-1.229117393,-0.814503372
10.52,0.355734617,-0.52281189,-0.599900723
10.53,0.276938796,-0.005767822,-0.240090907
10.54,0.166745022,0.379664421,0.059006333
10.55,0.285910338,0.724383354,-0.116001427
10.56,0.322089255,1.111727715,-0.831777036
10.57,0.320055693,1.110834122,-0.820192933
10.58,0.404702723,2.816953659,-0.872189343
10.59,0.400727391,2.816431999,-0.866013825
10.6,0.145458713,3.759666443,-0.461225927
10.61,-0.214066759,4.202643394,-1.008429885
10.62,-0.772224546,4.406310081,-1.17769742
10.63,-0.731676698,4.186154366,-1.361338139
10.64,-0.572431445,4.638413429,-0.544588447
10.65,0.303836465,5.416234016,1.079088449
10.66,0.98396039,5.526183128,1.263845444
10.67,0.993226767,5.52573204,1.274436355
10.68,1.394825816,5.518005371,1.071953773
10.69,-0.587782979,4.469432831,4.020733833
10.7,-0.628435373,2.87730217,4.449728966
10.71,-0.11466974,1.112314224,4.261760235
10.72,0.614436805,-0.202669144,3.828770399
10.73,0.586852908,-0.842458725,3.453016758
10.74,0.011027515,-0.622439385,2.839081526
10.75,0.008048803,-0.62258625,2.839548588
10.76,-0.816738367,0.136321068,1.807254434
10.77,-0.823522091,0.136416435,1.80126667
10.78,-1.119869947,0.830760956,1.346621752
10.79,-1.646983862,1.628170967,0.751719356
10.8,-2.473103046,2.700982094,0.367884338
10.81,-2.369933605,2.591349602,0.809657574
10.82,-1.794046044,1.83806324,1.022618055
10.83,-0.607750177,0.816752434,1.033373117
10.84,0.176741943,-0.207042694,1.144593716
10.85,0.344466716,-1.180591583,1.052859306
10.86,0.263566554,-2.020183086,0.796922147
10.87,0.3122226,-2.816806316,0.187408984
10.88,0.071525976,-3.51565218,-0.234228492
10.89,0.046427771,-3.515628338,-0.242102027
10.9,0.03962189,-4.72729826,-0.670483589
10.91,0.034509733,-5.163629532,-0.791100502
10.92,0.256938726,-5.482995033,-0.640223444
10.93,0.177602887,-5.656592369,-0.451010585
10.94,0.08269275,-5.672438145,-0.421559662
10.95,0.017578255,-5.540016174,-0.507747173
10.96,7.70837E-05,-5.541742325,-0.48405537
10.97,-0.211061955,-5.153068066,-0.685812354
10.98,0.120842964,-4.855234146,-1.068207264
10.99,0.098160595,-4.856426239,-1.048500657
11,0.1800538,-4.474227428,-1.125891209
11.01,-0.772514403,-2.777553558,-1.804243565
11.02,-0.755185485,-1.935764313,-1.314357281
11.03,-0.991169393,-1.359741211,-0.773828626
11.04,-1.461264849,-0.884238243,-0.847302318
11.05,-1.421238542,-0.095221519,-0.594453335
11.06,-1.407398582,-0.096335411,-0.572708488
11.07,-1.010475993,1.018286705,-0.559357762
11.08,-1.038270116,1.749710083,-0.833424687
11.09,-0.929944038,2.189146996,-0.82057792
11.1,-0.629424572,2.535455704,-0.488274217
11.11,-0.242038548,2.707202911,-0.322523862
11.12,-0.069331244,2.929458618,-0.101879761
11.13,-0.075746663,2.929228783,-0.095845744
11.14,-0.750396609,3.075343132,-0.299164951
11.15,-3.149152994,3.403497696,-2.091750622
11.16,-3.137373447,3.403523445,-2.091876268
11.17,-4.754387856,3.515908241,-1.593075395
11.18,-3.120933056,3.992114067,-0.272229374
11.19,-0.176523715,4.439088821,1.178732634
11.2,2.292234421,4.632054329,1.932689667
11.21,3.710762739,4.956647873,1.324586987
11.22,3.723563671,4.955961227,1.400837898
11.23,3.395959377,4.510674477,2.667111158
11.24,2.723294973,3.299689293,4.274348736
11.25,2.400142431,1.614465714,4.808786869
11.26,2.38970685,1.614414215,4.825818539
11.27,2.802518368,-1.122606277,2.327138662
11.28,2.537810326,-1.939560413,0.357393414
11.29,1.643987656,-1.363090515,-1.466885924
11.3,0.282047242,-0.427412033,-2.590855837
11.31,0.114719801,0.630449295,-2.02386713
11.32,0.402547002,1.221596718,-0.410821289
11.33,0.390595287,1.221608162,-0.464770347
11.34,0.831037223,2.270704269,2.305983067
11.35,0.824760079,2.271427155,2.24998188
11.36,0.495956421,2.313002586,2.323417902
11.37,-1.248392344,1.085721016,1.403642893
11.38,-1.235350728,1.086700439,1.368762732
11.39,-1.335558534,-1.591607094,-0.005582899
11.4,-1.105557561,-3.106466293,-0.598124504
11.41,-1.088333726,-3.10587883,-0.610165596
11.42,-0.269522995,-5.207427502,-0.895925641
11.43,0.055616528,-5.917714119,-0.56744653
11.44,0.073668316,-5.916643143,-0.588090122
11.45,0.196966708,-6.217067719,-0.323557705
11.46,0.31822145,-5.947319508,1.151129961
11.47,0.620487213,-5.638838291,1.575285792
11.48,0.904589295,-5.170106411,0.514488578
11.49,1.063745499,-4.651503563,-0.37236172
11.5,1.222255468,-4.152356148,-0.863875032
11.51,1.229069471,-4.151279449,-0.87985754
11.52,0.910352588,-3.625862122,-1.342819452
11.53,0.705086589,-3.038350105,-1.516216874
11.54,0.316038579,-1.814027786,-1.193772554
11.55,0.305086106,-1.813569069,-1.205951691
11.56,-0.014803827,-0.654449463,-0.946664155
11.57,-0.080658704,-0.120197296,-0.603031695
11.58,-0.074358359,0.239291191,-0.0574103
11.59,-0.063973367,0.555419922,0.457834542
11.6,-0.244885549,0.818670273,0.34773761
11.61,0.018288508,1.179598808,-0.683750868
11.62,0.087825656,1.647825241,-1.373321176
11.63,0.100437746,2.386539459,-1.343950391
11.64,0.104692698,3.113620758,-0.908427119
11.65,-0.112772629,3.613850594,-1.038874745
11.66,-0.114868432,3.613842964,-1.039678454
11.67,-1.032577157,3.977934837,-1.218594313
11.68,-1.019507647,3.508994102,-0.846088767
11.69,-1.010149717,3.50936985,-0.848783374
11.7,0.089688018,4.299762726,1.356922865
11.71,0.099987,4.299610138,1.363994479
11.72,0.63685137,4.581642151,1.953850746
11.73,-0.834220886,4.425359726,2.189929008
11.74,-0.807203412,4.424887657,2.21344471
11.75,-1.668332577,3.648925781,2.641131163
11.76,-1.964541674,1.187732697,3.453124285
11.77,-0.687513471,-0.08573246,3.605654001
11.78,0.425797522,-0.933002472,3.518560886
11.79,1.309179902,-0.963619232,2.983198404
11.8,0.798791468,-0.19200325,2.284154654
11.81,0.368252456,0.596805573,1.191257954
11.82,0.214710757,1.311840057,0.39072448
11.83,0.191198066,1.313610077,0.35322386
11.84,-2.762402534,3.98315239,1.333969355
11.85,-3.19641304,4.263983727,2.314249754
11.86,-3.196331024,4.267632484,2.267138958
11.87,-2.568911552,2.99779892,3.332107544
11.88,-1.333625317,1.506199837,2.511944771
11.89,-0.571090162,0.044384956,1.065138102
11.9,-0.575190306,0.044382095,1.064001083
11.91,0.858452559,-2.8412323,-0.403895766
11.92,1.023344278,-3.722800732,-0.914145768
11.93,0.994235098,-3.723110676,-0.917366505
11.94,0.570361495,-4.675924301,-0.515765846
11.95,0.91605556,-4.828909874,-0.377698481
11.96,1.131190181,-5.030077457,-0.486767024
11.97,0.585339069,-5.124119759,-0.340600133
11.98,0.304442972,-5.156458378,-0.342412531
11.99,0.072834574,-5.380707264,-0.216490388
12,-0.004761733,-5.41844368,-0.167952001
12.01,-0.032957166,-5.355625629,-0.515745163
12.02,-0.133648738,-5.154199123,-1.311503887
12.03,-0.270215035,-4.821355343,-1.836543798
12.04,-0.436426044,-4.361390591,-1.695174932
12.05,-0.452793241,-4.362809658,-1.672164679
12.06,-0.613376081,-3.799067497,-1.516200304
12.07,-0.790695906,-2.34487009,-1.182489038
12.08,-0.998894334,-1.604538918,-1.042115092
12.09,-1.22476995,-0.653798103,-1.01795876
12.1,-1.333800554,0.033222198,-0.990240574
12.11,-1.430595636,0.763082504,-0.668863177
12.12,-1.601850271,1.308765411,-0.339291751
12.13,-1.37936461,1.7973032,-0.321047336
12.14,-1.201012731,2.19752121,-0.854139745
12.15,-1.178324223,2.195763588,-0.803485096
12.16,-0.367131114,2.864779472,-1.664347649
12.17,-0.072704509,3.460051537,-1.62245357
12.18,-0.069238007,3.459544182,-1.597319722
12.19,-0.650966525,3.974116325,-1.163502097
12.2,-3.402349949,4.232755661,-0.248317987
12.21,-4.170392036,4.141928673,-0.413372576
12.22,-4.016431808,4.6567173,-0.677127719
12.23,-1.651968241,5.056480408,-0.267822623
12.24,-1.629043937,5.05633831,-0.237523317
12.25,0.516702175,5.163877487,0.080339693
12.26,1.944952965,5.065546036,1.865928888
12.27,1.715542197,4.337628365,3.457848787
12.28,1.722618699,4.337692261,3.467413902
12.29,1.802647471,1.380835533,4.502364159
12.3,1.842707396,0.068818092,3.695959091
12.31,1.889074922,-0.908000946,2.556586981
12.32,1.881536007,-1.2886343,1.033016086
12.33,1.886887074,-1.288553238,1.043853641
12.34,1.820280671,-0.790449143,-0.233249515
12.35,1.650093794,-0.21332264,-0.599079073
12.36,1.62292397,0.955101013,0.159466699
12.37,1.404309869,1.558509827,-0.324193478
12.38,1.249544263,1.905713081,-0.218512997
12.39,0.999885082,2.058978081,0.516444147
12.4,0.288648665,1.778953552,1.00154388
12.41,-0.129236102,1.132867813,1.22604537
12.42,-0.141407609,1.133529663,1.175173879
12.43,-0.355163515,0.234160423,1.626189232
12.44,-0.537574053,-0.952520371,1.690155506
12.45,-1.215495944,-3.171626568,-0.256827354
12.46,-1.35263598,-4.148395061,-0.85266459
12.47,-1.334798694,-4.148405552,-0.842882037
12.48,-0.853595376,-5.553720951,-1.108450413
12.49,-0.279534519,-6.065815449,-0.825722814
12.5,0.041778043,-6.177711487,-0.163255066
12.51,-0.153675288,-5.851174355,0.774840355
12.52,0.51314497,-5.395154953,1.121789694
12.53,1.300974131,-5.073297977,0.590145946
12.54,1.330428958,-4.600841999,-0.288799286
12.55,1.346349001,-4.600166798,-0.293073297
12.56,1.002296567,-3.86434412,-1.152582645
12.57,0.260458201,-2.673610687,-1.947690964
12.58,0.337860107,-2.009852886,-2.146358967
12.59,0.422006041,-1.418287277,-1.828171492
12.6,0.464969575,-0.565928459,-0.846905708
12.61,0.312328011,0.03027153,0.093605548
12.62,0.310050726,0.030462265,0.086286157
12.63,-0.020069063,0.74173069,0.963136792
12.64,-0.014682114,0.741682053,0.969672382
12.65,0.374655664,0.58332634,-0.29293868
12.66,0.430111378,0.63781929,-1.346855879
12.67,0.430106044,0.91973877,-1.959486961
12.68,0.082830995,1.802801132,-1.987808228
12.69,-0.351821959,2.796193123,-1.548378468
12.7,-0.086733073,3.571907997,-0.761608839
12.71,-0.092783749,3.572022438,-0.773496211
12.72,-0.457113475,4.015218735,-0.567914307
12.73,-0.452932388,4.01567173,-0.577101231
12.74,-0.906004369,3.70488739,-0.839652419
12.75,-0.871406138,3.693362236,-0.548142433
12.76,0.526497066,4.840518951,0.928072453
12.77,0.464977086,4.905324936,0.61126411
12.78,0.142897248,4.558346748,1.582688451
12.79,-0.606066644,3.59900856,3.879522562
12.8,-0.586636543,3.599993706,3.875169754
12.81,-1.286954999,1.984846115,5.150420666
12.82,-0.537749767,-0.741523743,3.62802124
12.83,0.328403771,-1.423433304,3.287658453
12.84,0.441536009,-1.418581009,2.513195038
12.85,0.072516382,-0.599703789,1.775269628
12.86,-0.021131724,0.44432354,1.750518441
12.87,0.089385748,1.536342621,1.516685843
12.88,-1.111072302,3.140789032,1.098686337
12.89,-1.118112803,3.141187668,1.082714796
12.9,-2.7475245,4.372756958,1.145074606
12.91,-3.61422348,4.424056053,1.888978004
12.92,-2.284883976,3.115386963,1.629179597
12.93,-1.069009066,1.387239456,0.952985048
12.94,-0.710247755,0.063094139,0.290180266
12.95,-0.357997179,-1.170460701,-0.349595666
12.96,0.233073577,-2.339650154,-0.539185584
12.97,0.611015141,-3.233627319,-0.456599742
12.98,0.594618142,-3.234614372,-0.449892342
12.99,0.979330659,-4.782346725,-0.02532959
13,1.058791637,-5.216671944,0.266568959
13.01,1.034770966,-5.217711449,0.271288961
13.02,1.43800509,-5.43665266,0.109557718
13.03,1.466628909,-5.596170425,-0.3125166
13.04,0.978464603,-5.341517448,0.032799721
13.05,0.401410192,-5.213458538,0.006341845
13.06,0.375849336,-5.214569569,0.021506697
13.07,0.071606413,-4.902094364,-0.326375783
13.08,-0.757882714,-4.436400414,-1.179520488
13.09,-0.847962678,-3.996988773,-1.762772202
13.1,-0.743473709,-3.478455067,-1.735409617
13.11,-1.183952332,-2.899955273,-1.260020018
13.12,-1.72048378,-2.261437416,-0.824119628
13.13,-1.710878968,-2.262056351,-0.792122901
13.14,-1.516396165,-1.209112167,-1.153838396
13.15,-1.135153055,-0.536650658,-1.038478494
13.16,-1.112363935,-0.53674984,-0.994823515
13.17,-0.760834038,0.08349514,-0.541920424
13.18,-0.572146952,1.225860596,-0.368893743
13.19,-0.504090607,1.628493309,-0.53826344
13.2,-0.310654998,1.786869049,-0.745238721
13.21,-0.30781132,1.787068367,-0.724873364
13.22,-0.329970598,2.218152046,-0.8528862
13.23,-1.086478114,3.171075821,-0.174203038
13.24,-1.823706388,3.269145966,0.047086384
13.25,-1.82305634,3.269061089,0.037444111
13.26,-3.148393869,2.838298798,-0.956303775
13.27,-3.790639877,2.563587189,-1.936019897
13.28,-3.226561546,3.022012711,-1.57357657
13.29,-1.185788631,4.081979752,-0.463190436
13.3,0.990779698,4.663249969,-0.326737046
13.31,2.808218479,4.971219063,-0.295007467
13.32,3.084784269,5.175742149,1.170413613
13.33,3.001597404,4.872091293,3.3526752
13.34,2.761494398,3.902228355,5.166786671
13.35,2.516925335,2.084143639,5.698393822
13.36,2.486609221,2.082836151,5.687666416
13.37,2.367591858,-0.781974793,2.493131638
13.38,1.459260225,-1.49405098,0.247527763
13.39,0.530946851,-1.142788887,-1.454938769
13.4,0.369744897,-0.575933456,-1.785614848
13.41,0.944360852,0.127353668,-0.640798986
13.42,1.43260932,0.741723061,0.647646904
13.43,1.426817536,0.74088192,0.608306825
13.44,1.666117072,1.403421402,1.471186876
13.45,1.585567236,2.319893837,2.175281048
13.46,1.214759946,2.343406677,2.170768261
13.47,1.202711582,2.343133926,2.128883839
13.48,0.573535562,1.907287598,2.058401823
13.49,-0.357774854,-0.264226914,0.824448347
13.5,-0.671707332,-1.51627636,-0.169841901
13.51,-1.122368574,-2.538498402,-0.922589064
13.52,-1.112170696,-2.538346767,-0.923215091
13.53,-1.462046266,-4.168622017,-0.681547701
13.54,-1.018962383,-4.86986208,-0.413027138
13.55,-0.863897324,-5.295727253,-0.000215173
13.56,0.247624293,-5.570671082,0.17488268
13.57,0.261311173,-5.570268631,0.167242974
13.58,0.293600321,-5.32071209,0.754960656
13.59,0.315807164,-5.31996727,0.742792606
13.6,0.471979439,-4.514703274,-0.082782328
13.61,0.454579115,-3.979967117,-0.462196231
13.62,0.474602461,-3.979128838,-0.473023355
13.63,0.595646083,-3.001420975,-0.877537906
13.64,0.609056473,-3.000693321,-0.890434802
13.65,0.597451687,-1.908317566,-0.916336477
13.66,0.601027489,-1.907922745,-0.928369463
13.67,0.42452395,-1.349791527,-1.153187275
13.68,0.339590937,-0.269706726,0.546402812
13.69,0.407500833,-0.137777329,0.407238901
13.7,0.400021881,-0.063664436,0.356029302
13.71,0.504287064,0.244992256,0.240326166
13.72,0.381615847,0.400291443,-0.60344696
13.73,0.327306926,0.818824768,-1.455258846
13.74,0.233002618,1.376126289,-1.579371452
13.75,0.005345285,2.168067932,-0.85952425
13.76,-0.020662725,2.775881767,-0.699844241
13.77,-0.038763314,2.775612831,-0.708178282
13.78,0.024074405,3.486562729,-1.210035205
13.79,0.006603926,3.486534119,-1.223238945
13.8,-0.174918041,4.056505203,-0.097740531
13.81,0.210361764,4.703083992,1.170974016
13.82,0.54987514,5.141121864,1.965895414
13.83,0.703408361,5.308392525,1.993923426
13.84,0.706366658,5.307828903,2.013229609
13.85,-0.353353024,4.450093269,2.931983471
13.86,-1.11984694,3.604460716,3.216502666
13.87,-1.565714002,2.172393799,3.102258682
13.88,-1.482288361,0.671140671,2.34257102
13.89,-0.800477445,-0.868331909,1.862149239
13.9,-0.097089916,-1.790088654,1.836091995
13.91,0.427755475,-2.31210947,1.814377308
13.92,0.309203684,-1.656202316,1.907746077
13.93,-0.299436957,-0.947518349,1.795379519
13.94,-0.914849997,0.242631912,1.40775919
13.95,-1.444176078,1.447341919,1.061452985
13.96,-1.900457263,2.484667778,0.893453479
13.97,-2.578323364,3.256402016,1.051872611
13.98,-2.546286106,3.341235161,1.540614486
13.99,-1.936828375,2.784423828,1.955221057
14,-1.925275922,2.785291672,1.937782526
14.01,-0.290168345,0.501582146,1.075562
14.02,0.057067305,-0.492055893,0.505069494
14.03,0.264517784,-1.354291916,0.137095213
14.04,0.381819844,-2.128225327,-0.085599288
14.05,0.359639883,-2.128937721,-0.086107805
14.06,0.906138361,-3.417909145,-0.249318317
14.07,0.768037677,-3.581579208,0.046166509
14.08,0.591774106,-3.819463253,0.284515947
14.09,0.37112385,-3.894506931,0.538161635
14.1,0.104997084,-3.924096584,-0.049620494
14.11,0.077412099,-3.917853832,-0.555743814
14.12,0.058979496,-3.918796062,-0.523387611
14.13,-0.094229035,-3.945932388,-0.573760808
14.14,-0.110141471,-3.946585655,-0.540067196
14.15,0.116999224,-3.61906004,-1.16650486
14.16,0.330222756,-3.35602951,-0.468794704
14.17,-0.010714069,-2.973124504,-0.106611311
14.18,-0.482640475,-2.475230217,-0.075646192
14.19,-0.767566025,-2.099380493,-0.300056577
14.2,-1.067695379,-1.764208794,-0.613917947
14.21,-1.185717702,-1.536771774,-0.536509514
14.22,-1.305615544,-1.16563797,-0.482367426
14.23,-1.310743809,-1.16560936,-0.468766183
14.24,-1.203993797,-0.873464584,-0.460109115
14.25,-0.914139509,-0.691408157,-0.552569985
14.26,-0.760858536,-0.193254471,-0.601044834
14.27,-0.724919319,0.884404182,-0.8620013
14.28,-0.660274386,1.327722549,-0.749901533
14.29,-0.224313498,1.591562271,-0.053036898
14.3,-0.177050367,1.984711647,0.540191233
14.31,0.077673242,2.033204079,0.710428298
14.32,-0.051258698,2.213562965,0.740911126
14.33,0.006677136,2.022959709,0.615832031
14.34,-0.390229315,1.731824875,0.361423641
14.35,-1.157740712,1.490893364,-0.493807316
14.36,-1.752656817,1.295477867,-1.525915861
14.37,-2.004112482,1.571861267,-2.43533659
14.38,-1.807643652,2.475840569,-2.464205503
14.39,-1.787955523,2.477664948,-2.428456783
14.4,0.509531319,4.555516243,-1.040577531
14.41,1.419331551,5.273561478,-0.520846248
14.42,1.426443696,5.275587082,-0.486253679
14.43,0.648984253,5.471107483,1.913453102
14.44,0.658221781,4.638918877,3.331326962
14.45,0.90324986,3.403791428,3.600808382
14.46,0.891913354,3.403889656,3.6055336
14.47,0.745690942,0.502004623,1.55450511
14.48,0.192180365,-0.76235199,0.632830203
14.49,-0.126957133,-1.567105293,0.315910399
14.5,-0.220511347,-2.089524269,0.279130817
14.51,0.320648253,-2.262755394,0.325286031
14.52,1.435466647,-1.96693325,0.568507195
14.53,1.78506875,-1.230862617,1.115446568
14.54,2.137059212,-0.059303284,1.309449196
14.55,2.112211227,1.131185532,1.261591196
14.56,2.041937351,1.897463799,1.531586766
14.57,1.952855229,2.395264626,2.417411089
14.58,1.491930604,2.078907967,3.105846882
14.59,0.935284019,1.305599213,3.168557405
14.6,0.474887371,0.245705605,2.694139242
14.61,0.046816844,-0.736784935,1.737583399
14.62,0.029844375,-0.737036705,1.696472883
14.63,-0.515492976,-2.638152122,-0.255254358
14.64,-0.679502428,-3.277428627,-0.251654357
14.65,-0.36408037,-3.806559563,-0.048626449
14.66,0.023395341,-4.15610075,-0.068527959
14.67,0.427737415,-4.237474442,-0.083589479
14.68,0.543736041,-3.851932526,0.073990613
14.69,0.539871156,-3.85180378,0.054129139
14.7,0.196424276,-2.477300167,0.599301457
14.71,-0.03555413,-1.916781425,0.370986849
14.72,-0.293862909,-1.392158508,0.082559854
14.73,-0.316798031,-1.054264069,0.018786609
14.74,-0.106895395,-0.919816017,0.299924016
14.75,0.238732502,-0.76604557,0.998426437
14.76,0.744045317,-0.698271751,1.517406464
14.77,1.042497516,-0.49621582,1.98077035
14.78,1.458257318,-0.399295807,1.915382504
14.79,1.90100503,-0.201675415,1.610987425
14.8,1.70288527,0.247574806,1.255022049
14.81,1.683503389,0.24932766,1.217312217
14.82,1.529915214,1.510521889,0.336792976
14.83,0.993049502,2.319302559,0.470326901
14.84,0.078689441,3.128101349,0.935326278
14.85,-0.931043208,3.503214836,1.682819605
14.86,-1.187780142,2.972901344,2.228808403
14.87,-1.18637228,2.973581314,2.216694832
14.88,-0.119840071,0.622365952,0.738225997
14.89,0.17453064,-0.03211689,-0.150113493
14.9,0.579761028,-0.593615532,-0.818144858
14.91,0.581068337,-0.594626427,-0.800132811
14.92,0.185000733,-0.224162102,-1.090873241
14.93,-0.490701139,0.177856445,-0.686997891
14.94,-0.479446173,0.178129196,-0.695315599
14.95,-1.418312073,0.499738693,1.787282467
14.96,-1.093360901,0.150874138,2.110076904
14.97,-0.545414627,-0.244013786,1.592525005
14.98,-0.408345699,-0.639427185,1.244607449
14.99,-0.394151151,-0.640082359,1.254425049
15,-0.309495091,-0.942668915,0.512321591
15.01,-0.485734552,-0.697099686,-0.793821394
15.02,-0.386300653,-0.513116837,0.160669267
15.03,-0.316924572,-0.508041382,0.844184637
15.04,-0.485794783,-0.481021881,1.041800976
15.05,-0.438163966,-0.453753471,1.029501677
15.06,-0.421673,-0.371218681,0.875628591
15.07,-0.887925625,-0.173659325,0.201069772
15.08,-1.077281952,0.011968613,-0.377537996
15.09,-0.842949569,0.049297333,-0.275544494
15.1,-0.657584786,0.125308991,0.13795507
15.11,-0.613378108,0.160939217,0.418900371
15.12,-0.490763336,0.115324974,0.576752782
15.13,-0.406358481,0.084029198,0.619512141
15.14,-0.363842666,-0.019619942,0.640962005
15.15,-0.518579066,-0.111823082,0.657255888
15.16,-0.563031912,-0.273954392,0.696606815
15.17,-0.537025094,-0.510698319,0.970457912
15.18,-0.642465591,-0.71167469,1.269814134
15.19,-0.510137856,-0.845726013,1.321735859
15.2,-0.492138803,-0.845700264,1.251964092
15.21,-0.506242156,-0.73075676,0.997913837
15.22,-0.581286967,-0.654224396,0.724093735
15.23,-0.767461121,-0.510772705,0.569253206
15.24,-0.949651659,-0.360134125,0.525320828
15.25,-1.061864495,-0.300386429,0.207444489
15.26,-1.073757887,-0.195222855,-0.103999615
15.27,-1.139195323,-0.082972527,-0.097844601
15.28,-1.057356596,0.086800575,-0.017941654
15.29,-0.874057531,0.211133003,0.22655946
15.3,-0.809400916,0.342626572,0.682099938
15.31,-0.795566142,0.342375755,0.688610911
15.32,-0.395587325,0.61246109,0.625777304
15.33,-0.493121296,0.843951225,0.32341969
15.34,-0.493300796,1.101694107,-0.199038863
15.35,-0.40454188,1.306616783,-0.671896875
15.36,-0.42429474,1.260118484,-0.773914754
15.37,-0.539114475,0.89547348,-0.530926585
15.38,-0.539380789,0.468795776,-0.053964019
15.39,-0.451462299,0.054073334,0.205314219
15.4,-0.335176915,-0.4255867,0.179241657
15.41,-0.13307175,-0.788285255,0.017151713
15.42,0.064667836,-1.062707901,-0.233835131
15.43,0.114853293,-1.169534683,-0.403224349
15.44,0.084783509,-1.144575119,-0.521154106
15.45,0.080290005,-1.145772934,-0.502806544
15.46,-0.232523397,-0.545811653,-0.537782371
15.47,-0.017761663,-0.103692055,0.253644884
15.48,-0.234047681,-0.013370514,0.905987978
15.49,-0.711372852,-0.014101982,0.672625303
15.5,-0.711191952,-0.015082359,0.691566706
15.51,-0.202939883,-0.121604919,-0.578673899
15.52,-0.207171232,-0.122836113,-0.555298865
15.53,-0.273667455,-0.040124893,-1.349531889
15.54,-0.273503929,0.143541336,-0.457445085
15.55,-0.195464209,0.248329163,0.194917738
15.56,-0.281821847,0.216817856,0.287003458
15.57,-0.248157114,0.142222405,-0.178635955
15.58,-0.18743141,0.055555344,-0.33444953
15.59,-0.12678054,0.033546448,-0.101391077
15.6,0.122508928,0.023527145,-0.152046576
15.61,0.17122063,-0.146967888,-0.373608649
15.62,-0.063278586,-0.245657921,-0.357255459
15.63,0.033041254,-0.308355331,-0.370564759
15.64,0.031627595,-0.308781624,-0.35698396
15.65,0.255265892,-0.287631035,-0.152567819
15.66,0.05733034,-0.218540192,-0.17708835
15.67,-0.242193878,-0.03685379,-0.247052789
15.68,-0.391663879,0.03233242,-0.162097782
15.69,-0.27929607,0.001046181,-0.335041672
15.7,-0.182360604,0.015246391,-0.550096333
15.71,-0.158079654,0.022304535,-0.323275179
15.72,-0.057765245,0.036586761,-0.037726358
15.73,-0.008572012,0.022204399,0.112927139
15.74,-0.012102529,0.022201538,0.109115467
15.75,0.052189037,0.046158791,0.007949859
15.76,0.077866197,0.065313339,-0.157402322
15.77,-0.114212602,0.115585327,-0.161987379
15.78,-0.152078435,0.177835465,-0.165885627
15.79,-0.154633388,0.177787781,-0.166786388
15.8,-0.055253908,0.153772354,0.032269284
15.81,-0.039520621,0.10337925,0.087117732
15.82,0.1147784,0.021764755,0.041590124
15.83,0.23484008,-0.15563488,-0.040230438
15.84,0.247107357,-0.26603508,-0.101994902
15.85,0.287499219,-0.29502964,-0.195077241
15.86,0.229200304,-0.209062576,-0.026002809
15.87,0.067527629,-0.063199997,0.283614337
15.88,0.202175677,0.018072128,0.400439262
15.89,0.114728198,0.008286476,0.07299751
15.9,-0.258746594,0.087077141,-0.242102325
15.91,-0.346815527,0.118000031,-0.270997524
15.92,-0.297337681,0.038832664,-0.249777168
15.93,-0.301657319,0.038677216,-0.244613498
15.94,-0.196897373,0.019397736,-0.01430434
15.95,-0.089673929,-0.126749992,0.032959148
15.96,-0.093612731,-0.12681675,0.034007192
15.97,0.028132379,0.019177437,0.145336837
15.98,-0.095116042,0.069353104,-0.165229872
15.99,-0.094824955,0.069260597,-0.159144417
16,-0.164357692,0.045232773,0.212032914
16.01,-0.19713366,0.002058029,-0.066548333
16.02,-0.199007064,0.001984596,-0.062447324
16.03,-0.29308492,-0.019622803,-0.138352826
16.04,-0.178248853,-0.055570602,-0.163852304
16.05,-0.217863441,-0.019715309,0.17804955
16.06,-0.057628594,-0.093979836,0.041723028
16.07,-0.017536834,-0.10841465,-0.154271632
16.08,0.017444037,-0.067789078,-0.025870718
16.09,0.018932223,-0.067862511,-0.018011823
16.1,-0.204606623,0.018277168,0.215624437
16.11,-0.156343311,0.01824379,-0.109297484
16.12,-0.153660938,0.018202782,-0.099139661
16.13,-0.396827519,0.039711952,-0.210944891
16.14,-0.516533256,0.080424309,-0.189850301
16.15,-0.40495798,0.018227577,-0.282152295
16.16,-0.451892257,0.001509666,-0.147641182
16.17,-0.445410192,0.001583099,-0.14197892
16.18,-0.307668328,0.016036987,-0.083133996
16.19,0.001360774,0.018502235,0.314494401
16.2,-0.095958754,0.018544197,0.415639639
16.21,-0.313657016,0.100027084,0.344325692
16.22,-0.239508078,0.052260399,-0.07136932
16.23,-0.017820969,-0.026646614,-0.373044133
16.24,-0.14701961,-0.043328285,-0.322809756
16.25,-0.309058875,-0.148552895,-0.116100438
16.26,-0.164022178,-0.284890175,-0.051290996
16.27,0.045192674,-0.351843834,-0.11489027
16.28,-0.098805547,-0.30150795,-0.052429423
16.29,-0.230349869,-0.200879097,0.106283546
16.3,-0.110572785,-0.105057716,0.179426968
16.31,-0.10447374,-0.114590645,0.142451286
16.32,-0.134763733,-0.07626915,0.062808856
16.33,-0.265781909,-0.049920082,-0.011068288
16.34,-0.334159911,-0.001983643,-0.141836941
16.35,-0.332419813,-0.001930237,-0.137547731
16.36,-0.250575274,0.031682014,-0.189457357
16.37,-0.242647559,-0.095108032,-0.059618384
16.38,-0.239764407,-0.095044136,-0.056745458
16.39,0.242330059,-0.23626709,0.288933188
16.4,-0.213188604,-0.23390007,0.370834291
16.41,-0.242203757,0.031887054,0.406187952
16.42,-0.239102572,0.031959534,0.403454721
16.43,-0.009180054,0.075113297,0.238712683
16.44,-0.006666318,0.075196266,0.242713735
16.45,-0.238567352,-0.068365097,0.239449546
16.46,-0.145293012,-0.120956421,0.014943521
16.47,-0.14441213,-0.120923996,0.018007588
16.48,-0.110208988,-0.156798363,-0.237293184
16.49,-0.261892974,-0.077722549,-0.039047159
16.5,-0.201677024,-0.060926437,0.152845025
16.51,-0.115305483,-0.118331909,0.129312098
16.52,-0.113286257,-0.118289948,0.128917545
16.53,-0.249465704,-0.058357239,0.134129882
16.54,0.056510404,-0.065481186,0.415203422
16.55,-0.055617779,-0.12292099,0.296364725
16.56,-0.338367015,-0.182696343,-0.094813466
16.57,-0.380185098,-0.211268425,-0.3781389
16.58,-0.158939272,-0.191972733,-0.3957811
16.59,0.002979368,-0.108091354,-0.084390506
16.6,0.079202503,-0.053017616,0.149527058
16.61,0.077903986,-0.053064346,0.148668408
16.62,-0.236188531,0.02113533,0.554575801
16.63,-0.14418605,0.021165848,0.439011693
16.64,-0.143333525,0.021211624,0.440970987
16.65,-0.117127478,-0.072133064,0.044194601
16.66,-0.190588623,-0.084012032,0.055922601
16.67,-0.166132987,-0.189266205,0.026433542
16.68,-0.103688359,-0.282557488,0.028461099
16.69,0.027822599,-0.34951973,-0.00858371
16.7,-0.09776926,-0.330320358,0.068311177
16.71,-0.186578661,-0.224944115,0.186343104
16.72,-0.086086065,-0.160291672,0.118020304
16.73,-0.080103546,-0.083691597,0.085598782
16.74,-0.047369003,0.016872406,0.087392673
16.75,-0.184676796,0.074345589,0.103969559
16.76,-0.17238304,0.122272492,0.252201766
16.77,-0.171982646,0.122323036,0.254732162
16.78,0.043268576,-0.009313583,0.086355366
16.79,-0.179017305,-0.08343792,-0.108712152
16.8,-0.225087255,-0.004259109,-0.302756786
16.81,-0.129410476,0.019879341,-0.345078856
16.82,-0.127196878,0.020086288,-0.336688638
16.83,-0.149886996,0.020245552,-0.311211079
16.84,-0.147188485,0.022723198,-0.211448401
16.85,0.160659134,-0.053908348,0.641644657
16.86,0.158966363,-0.053982735,0.640099764
16.87,0.31616196,-0.032474518,0.241847038
16.88,0.050232351,0.015434265,-0.031803548
16.89,0.044777378,0.02273941,0.123003498
16.9,0.008740515,-0.010761261,0.339238763
16.91,-0.045241416,-0.149719238,0.363005042
16.92,-0.145492852,-0.226477623,0.085614778
16.93,-0.257646948,-0.138023377,-0.100989476
16.94,-0.258546829,-0.138136864,-0.104989931
16.95,0.012022316,0.074867249,0.430509448
16.96,0.140002057,0.182512283,0.400619686
16.97,0.005372047,0.218385696,0.218114704
16.98,-0.130127519,0.271151543,0.123206407
16.99,-0.127853721,0.271306992,0.128375337
17,-0.212568253,0.245196343,0.237766475
17.01,-0.258125961,0.132978439,0.093811013
17.02,-0.198756725,0.049538612,-0.054634377
17.03,-0.167246699,0.076256752,0.116959833
17.04,-0.284331352,0.050280571,0.174064994
17.05,-0.357726336,0.036273956,0.182470426
17.06,-0.191882908,0.024675369,0.114294708
17.07,-0.151741236,-0.04442215,0.053136393
17.08,-0.147654831,-0.044093132,0.061039135
17.09,-0.143852502,-0.175460815,0.063441947
17.1,-0.200348079,-0.199109078,-0.126106352
17.11,-0.194838613,-0.213207245,-0.191802383
17.12,-0.116492808,-0.165163994,-0.037355423
17.13,0.000942111,-0.102863312,0.124176264
17.14,-0.000245064,-0.10291481,0.123827308
17.15,-0.183733225,-0.004831314,0.333688229
17.16,-0.067036003,-0.021636963,0.15767163
17.17,0.007221371,0.023792267,-0.10498023
17.18,0.004937947,0.023756027,-0.103779048
17.19,-0.152215779,0.026094437,-0.137520999
17.2,0.044729739,0.078667641,0.200948611
17.21,-0.026543707,0.095317841,0.3258847
17.22,-0.08223924,0.042608261,0.368304759
17.23,-0.129177511,0.025953293,0.2252222
17.24,-0.127549321,0.026133537,0.230021715
17.25,-0.207267463,-0.057443619,0.010172665
17.26,-0.315228522,0.024172783,-0.118947655
17.27,-0.148880899,0.026844025,-0.013424367
17.28,0.002207369,-0.085464478,0.08935979
17.29,0.222778738,-0.118886948,0.400942206
17.3,0.056541264,-0.157245636,0.491320252
17.31,0.057145923,-0.157329559,0.488657743
17.32,-0.050761938,-0.107049942,0.286950141
17.33,-0.13155213,-0.111888886,-0.004807562
17.34,-0.16904664,-0.063980103,-0.443412215
17.35,-0.05781287,0.10840416,0.055756167
17.36,-0.059036285,0.108234406,0.051240727
17.37,-0.04928112,0.079237938,0.466048449
17.38,-0.22998485,0.026339531,0.53847599
17.39,-0.20202449,-0.079163551,0.220076799
17.4,-0.159195572,-0.167852402,0.20951134
17.41,-0.148551434,-0.088911057,0.454328418
17.42,-0.146379352,-0.08895874,0.449964941
17.43,-0.105886012,-0.009919167,0.335730135
17.44,0.07531336,0.026060104,0.082744837
17.45,0.075366259,0.026102066,0.084041297
17.46,-0.015485823,0.016561508,0.135335222
17.47,0.012993842,-0.050485611,0.204843432
17.48,0.012302637,-0.050496101,0.205228627
17.49,-0.114478767,-0.072053909,0.25779745
17.5,-0.236525714,-0.117546082,0.032607034
17.51,-0.198612154,-0.072031975,-0.097978592
17.52,-0.25308919,-0.088845253,-0.161824375
17.53,-0.090221375,-0.055410385,-0.059310704
17.54,-0.093703091,-0.055551529,-0.060270488
17.55,-0.159411401,-0.060502052,0.167607129
17.56,-0.161117047,-0.060605049,0.16559872
17.57,-0.238620281,0.00153923,0.203196406
17.58,-0.112424254,-0.058446884,0.137097925
17.59,-0.132916391,-0.020284653,0.140089139
17.6,-0.218184054,0.025040627,0.190636784
17.61,-0.035357803,0.024867058,0.182749152
17.62,0.088396668,0.060594559,0.183882698
17.63,-0.012976766,0.089159012,0.19549641
17.64,-0.015055627,0.089056969,0.194084212
17.65,-0.038054258,0.007592201,0.104477227
17.66,-0.111182213,0.007536888,0.116191402
17.67,-0.011870027,0.024234772,0.292356521
17.68,0.08138603,0.024121284,0.350507736
17.69,0.078173518,0.024017334,0.349559069
17.7,0.039256692,0.023916245,0.186673567
17.71,-0.035075933,-0.047955513,0.091993883
17.72,-0.036716104,-0.047980309,0.093338877
17.73,-0.286154658,0.004746437,-0.347207189
17.74,-0.222076505,0.00477314,-0.268411875
17.75,0.036881939,-0.079093933,0.263108939
17.76,0.034355134,-0.108059883,0.797443271
17.77,-0.063629687,-0.103571892,0.677670717
17.78,-0.013900727,-0.067871094,0.541947842
17.79,0.0154742,-0.077646255,0.226296544
17.8,-0.096172869,-0.063426018,-0.466003537
17.81,-0.097806901,-0.063480377,-0.466689766
17.82,0.028446794,0.044137955,0.25924322
17.83,-0.05014798,0.022309303,0.543146253
17.84,-0.20997417,0.050750732,0.469487488
17.85,-0.177303851,0.028977394,0.403830469
17.86,-0.04134272,0.028800964,0.360996187
17.87,0.008640185,0.021461487,0.296505243
17.88,0.007772461,0.021419525,0.295535505
17.89,-0.058963269,0.021443367,0.212242693
17.9,0.089731053,-0.007252693,0.141731948
17.91,0.089308441,-0.064712524,0.083494782
17.92,-0.059836552,0.009524345,0.037512496
17.93,0.035799697,0.02152729,0.21447131
17.94,0.135003433,0.007167816,0.31432879
17.95,0.138073206,0.021515846,0.198806137
17.96,-0.126727045,0.021532059,0.19432497
17.97,-0.05533427,0.021547318,0.177050591
17.98,-0.017920494,-0.033526421,0.125300095
17.99,-0.148013309,0.019141197,0.164439097
18,-0.176510796,0.007173538,0.243701503
18.01,-0.182878807,-0.066994667,0.126948446
18.02,-0.174438372,-0.040606499,0.052508995
18.03,-0.273125976,-0.018943787,0.131860182
18.04,-0.213113681,-0.026055336,0.194865927
18.05,-0.211328268,-0.026004791,0.194835544
18.06,0.050352037,-0.016424179,0.285175592
18.07,0.01699321,-0.035589218,0.241612196
18.08,0.067616969,-0.069096565,0.13150011
18.09,0.01950936,0.005121231,0.131749705
18.1,-0.162255034,0.021882057,0.215065926
18.11,-0.089284927,0.017104149,0.24549824
18.12,-0.064803556,0.012331009,0.183386222
18.13,-0.142957985,0.029144287,0.142128184
18.14,-0.141622067,0.02922821,0.144616485
18.15,-0.108678907,0.019743919,0.137784302
18.16,-0.10787198,0.019821167,0.139990881
18.17,0.040917024,0.007883072,0.247051626
18.18,0.040442392,0.007921219,0.249406666
18.19,-0.24198997,0.022348404,-0.142151475
18.2,-0.176364005,0.022498131,-0.136372313
18.21,-0.014244825,-0.001362801,-0.057684645
18.22,-0.016661823,-0.001392365,-0.055824116
18.23,0.096504629,-0.169146538,0.879871547
18.24,0.054739967,-0.241200447,0.59601748
18.25,-0.062141612,-0.155130386,0.312163919
18.26,-0.069524944,-0.071354866,0.059703574
18.27,-0.170077458,-0.03062439,-0.333482474
18.28,-0.055955991,0.010130882,-0.236687452
18.29,-0.020594448,0.022043228,0.151815757
18.3,-0.015766606,0.021867752,0.306472808
18.31,0.009660453,-0.023852348,0.392837524
18.32,-0.031869158,-0.04802227,0.481203139
18.33,-0.035118222,-0.048168182,0.477402568
18.34,-0.167856664,-0.06258297,0.133602634
18.35,-0.105540916,-0.110434532,0.051239759
18.36,-0.105508775,-0.110397339,0.053443417
18.37,0.082904488,-0.076872826,0.320038527
18.38,0.016631767,0.018848419,0.42485702
18.39,-0.03430295,0.021233559,0.17837885
18.4,-0.034550503,0.021279335,0.181485578
18.41,-0.056086123,-0.038509369,0.144122869
18.42,0.027456895,-0.050418854,0.104008727
18.43,0.098538697,-0.036003113,0.125893235
18.44,0.185152933,-0.088709831,0.208948091
18.45,0.092016831,-0.086340904,0.253212333
18.46,-0.265932769,-0.02169323,0.258502394
18.47,-0.276782751,-0.043211937,0.146496981
18.48,-0.275521934,-0.052744865,-0.079739228
18.49,-0.231044039,-0.055043221,-0.069817945
18.5,-0.057435781,-0.021482468,0.03632687
18.51,0.122322746,-0.019081116,0.1585664
18.52,0.122361325,-0.019089699,0.157831654
18.53,-0.003122449,0.021611214,0.297655374
18.54,0.067797959,0.074282646,0.173797861
18.55,-0.034320876,0.052758217,0.154803827
18.56,-0.03313984,0.052775383,0.154882744
18.57,-0.013721138,0.047981262,0.175870061
18.58,-0.099836722,0.021631241,0.295037866
18.59,-0.075502038,0.004854202,0.331990182
18.6,-0.046453059,-0.066991806,0.285214752
18.61,-0.012496576,-0.052639961,0.157357827
18.62,-0.15285629,-0.03104496,0.14621529
18.63,-0.182180658,-0.028583527,0.051537365
18.64,-0.204275727,0.019353867,0.026230261
18.65,-0.203289345,0.019389153,0.026606113
18.66,-0.238310605,0.01940155,0.052549168
18.67,-0.109408259,0.064987183,-0.137017131
18.68,-0.108457536,0.065078735,-0.133813947
18.69,0.12436229,-0.021071434,0.616806388
18.7,0.12978074,-0.188799858,0.660990655
18.71,-0.075075269,-0.074010849,0.110247396
18.72,-0.368681997,0.019382477,0.143105567
18.73,-0.106884301,0.0218153,0.465493321
18.74,-0.245773345,-0.071513176,0.172146738
18.75,-0.080109313,-0.104925156,-0.354143143
18.76,-0.079433307,-0.104783058,-0.348755002
18.77,0.02886121,-0.016192436,0.141518295
18.78,0.026128575,-0.016326904,0.138693884
18.79,-0.116852149,0.021856308,0.617854714
18.8,-0.098041072,0.021751404,0.438926637
18.81,-0.147608891,0.033709526,0.145087913
18.82,-0.098095492,-0.009309769,0.007869482
18.83,-0.029779479,-0.035557747,-0.015167922
18.84,-0.117829606,-0.061826706,0.153203994
18.85,-0.08429575,-0.021115303,0.251502544
18.86,0.013103798,-0.061841965,0.150738984
18.87,0.011615604,-0.061846733,0.152223676
18.88,-0.056577355,-0.013953209,0.203597084
18.89,-0.074345842,0.02193737,0.328562915
18.9,0.065543324,-0.00676918,0.06998232
18.91,-0.060370609,0.021971703,0.029208839
18.92,-0.061360493,0.021976471,0.030795828
18.93,-0.103023529,0.021986008,0.254260063
18.94,-0.15409036,-0.009143829,0.247910798
18.95,-0.233137354,-0.033040047,0.171152473
18.96,-0.23222813,-0.032938004,0.174221218
18.97,-0.161452696,-0.085505486,-0.01887925
18.98,-0.22709246,-0.087828636,0.038746342
18.99,-0.036201417,-0.140439987,0.084948927
19,0.060179234,-0.097326279,0.159244508
19.01,0.057511404,-0.071007729,0.173179954
19.02,-0.088691637,0.010382652,0.174863458
19.03,-0.234178618,0.022340775,0.173815414
19.04,-0.094326347,0.022345543,0.002706617
19.05,-0.053816855,0.02232933,0.04323335
19.06,-0.030638084,0.022297859,0.17648682
19.07,-0.032072797,0.022213936,0.174257457
19.08,0.102652863,0.022162437,0.240394056
19.09,-0.051861718,0.026908875,0.257256866
19.1,-0.056573108,0.02215004,0.169468314
19.11,-0.158990935,0.010232925,0.171287358
19.12,-0.234505609,-0.051960945,0.172740474
19.13,-0.204860687,-0.104590416,-0.039251074
19.14,-0.204014003,-0.104505539,-0.036302164
19.15,-0.16700244,0.103909493,-0.140598193
19.16,0.039168805,0.022549629,0.436240166
19.17,0.12786454,-0.020544052,0.733497381
19.18,0.128102422,-0.020558357,0.731858373
19.19,-0.098136991,-0.164136887,-0.120547429
19.2,-0.096272066,-0.164031029,-0.118008271
19.21,-0.041858792,0.003602028,0.159664497
19.22,-0.143924117,-0.013147354,0.04874225
19.23,0.019490361,-0.003557205,0.075294971
19.24,0.017998084,-0.003592491,0.074875861
19.25,0.067559853,0.087242126,0.349927604
19.26,0.002177998,0.101459503,0.293979675
19.27,-0.057883084,0.091760635,0.241004661
19.28,-0.078366771,0.048604012,0.182347313
19.29,-0.100787357,-0.028011322,0.079921886
19.3,-0.007404804,-0.054283142,0.035385132
19.31,0.023342595,-0.154773712,0.172992677
19.32,-0.036579758,-0.11400032,0.359613359
19.33,-0.086401254,-0.085253716,0.185265601
19.34,-0.084969178,-0.085179329,0.187246546
19.35,-0.06388168,-0.049107552,0.002171785
19.36,0.004447773,0.010868073,0.185369343
19.37,0.191532329,0.025291443,0.264375091
19.38,0.245890468,0.046873093,0.261985421
19.39,0.163450807,0.116354942,0.398451984
19.4,-0.00941132,0.109197617,0.46688813
19.41,-0.071040809,0.020648003,0.28038311
19.42,-0.115064591,-0.137304306,0.095446363
19.43,-0.311580479,-0.158730507,-0.064524144
19.44,-0.308132976,-0.15854454,-0.061044484
19.45,-0.442778349,-0.146347046,-0.300243557
19.46,-0.424389422,0.023873329,-0.190194756
19.47,-0.338277519,0.071939468,0.151855648
19.48,-0.3336972,0.07202816,0.150807023
19.49,0.0078592,0.029006004,0.221487254
19.5,0.147587746,0.026691437,0.22167781
19.51,0.150052697,0.026797295,0.222863227
19.52,-0.002610773,0.043672562,0.231440708
19.53,-0.007008344,0.024677277,0.184173554
19.54,-0.023377001,-0.049376488,0.0964849
19.55,0.081854984,-0.121047974,0.126067787
19.56,0.102259785,-0.125724793,0.236231834
19.57,-0.01632148,-0.128063202,0.290007711
19.58,-0.115730375,-0.051413536,0.261296839
19.59,-0.119187683,-0.060935974,0.223350883
19.6,-0.199338615,-0.070439339,0.116888017
19.61,-0.348266274,-0.015263557,-0.252305001
19.62,-0.352199763,0.109431267,-0.322863191
19.63,-0.338883489,0.035431862,0.082808465
19.64,-0.335511357,0.035523415,0.082364231
19.65,0.052760124,0.021056175,0.882905006
19.66,-0.073570907,-0.038942337,0.681405544
19.67,-0.245978355,-0.098842621,0.224878967
19.68,-0.241509706,-0.09871006,0.224975973
19.69,-0.298684269,-0.029080391,-0.24545756
19.7,-0.158213645,-0.067205429,-0.339051247
19.71,0.108596876,0.011859894,0.214423761
19.72,0.106677875,0.011664391,0.20998548
19.73,0.113679573,0.025723457,0.915729165
19.74,0.030561864,0.018237114,0.683872342
19.75,0.03087604,0.01811409,0.67892319
19.76,-0.323213965,-0.04890728,0.056812823
19.77,-0.355298311,-0.103816986,-0.114668369
19.78,-0.169565558,-0.117990494,0.060680032
19.79,0.038612634,-0.151366234,0.216238827
19.8,0.096988261,-0.067481995,0.24973464
19.81,0.098110229,-0.067340851,0.253409535
19.82,-0.051099718,-0.026455879,-0.041227281
19.83,-0.049363375,-0.026209831,-0.034675986
19.84,-0.215153545,0.031492233,0.060002923
19.85,-0.136629164,0.026877403,0.360820413
19.86,0.038814276,0.026973724,0.40557915
19.87,0.039029092,0.02703476,0.408189595
19.88,-0.083866894,0.027209282,0.337975174
19.89,-0.143109232,-0.075488091,-0.035534203
19.9,-0.207573235,-0.123101234,-0.031845331
19.91,-0.221553773,-0.108483315,0.046840012
19.92,-0.163954765,-0.086807251,0.141246066
19.93,-0.053917557,-0.029280663,0.263378054
19.94,-0.08298561,0.023469925,0.270345151
19.95,-0.079886496,0.023578644,0.270607024
19.96,-0.188092232,0.06446743,0.269180149
19.97,-0.10558483,0.031175613,-0.043946177
19.98,0.00895685,0.033751488,0.047989517
19.99,0.041115552,0.026687622,0.277812958
20,0.173022777,-0.047492027,0.358115226
20.01,0.172315508,-0.04747963,0.359138727
20.02,0.04014495,-0.07616806,0.269669026
20.03,-0.013067424,-0.076176643,0.19873333
20.04,-0.11414808,-0.085757256,0.189239264
20.05,-0.011670649,-0.04507637,0.184125722
20.06,0.015888095,-0.023584366,0.310897768
20.07,0.014711469,-0.023621559,0.311032802
20.08,-0.275321692,-0.021203995,0.168382272
20.09,-0.433901489,0.089148521,-0.143417209
20.1,-0.33502847,0.132565498,-0.19475168
20.11,-0.059867829,0.029934883,-0.037135988
20.12,0.012093693,-0.012961388,0.078313947
20.13,0.077910572,0.001455307,0.691636324
20.14,0.289463729,-0.127951622,0.799911857
20.15,0.130086362,-0.092194557,0.438290536
20.16,-0.180438727,-0.037115097,0.109645337
20.17,-0.142473519,-0.087225914,-0.19706738
20.18,-0.046343893,-0.096641541,-0.036825895
20.19,-0.031280547,-0.022375107,0.406489551
20.2,-0.034170717,-0.022538185,0.40473479
20.21,0.028933406,-0.041986465,0.661760569
20.22,-0.15554437,-0.087621689,0.154653683
20.23,-0.235173583,-0.106768608,0.016721576
20.24,-0.234059483,-0.10664463,0.019462407
20.25,-0.005116642,-0.197461128,0.05806005
20.26,0.115565091,-0.214089394,0.180404127
20.27,0.114866018,-0.214075089,0.181486666
20.28,0.267724097,-0.226178169,0.673909426
20.29,0.151763812,-0.147390366,0.342984587
20.3,-0.040917039,-0.087700844,-0.08180216
20.31,-0.067691803,-0.087716103,-0.235449076
20.32,-0.021172851,-0.027970314,-0.196446866
20.33,-0.056775004,0.029290199,0.101456255
20.34,-0.060911089,0.029051781,0.0986453
20.35,-0.023976207,0.083906174,0.306958377
20.36,-0.125086308,0.043106079,0.096048862
20.37,-0.258310765,0.007212639,0.066738218
20.38,-0.117732137,-0.093314171,-0.005380005
20.39,-0.006696999,-0.179488182,0.099155515
20.4,0.03941533,-0.181922913,0.226184771
20.41,0.006980151,-0.162837029,0.311687172
20.42,0.023088902,-0.126976967,0.311150581
20.43,-0.028141886,-0.103096962,0.154647693
20.44,-0.009725362,-0.098306656,0.006553352
20.45,-0.01082164,-0.098339081,0.006585509
20.46,-0.033767968,0.028453827,0.18695116
20.47,0.010527909,0.028302193,0.272382319
20.48,0.051788569,-0.000612259,0.285756081
20.49,-0.081297368,0.027955055,0.315882206
20.5,-0.091622055,0.027823448,0.295933723
20.51,-0.099138349,0.018139839,0.257756323
20.52,-0.099161744,0.01808548,0.256023794
20.53,-0.106189638,-0.02741909,0.054143071
20.54,-0.129914969,-0.005927086,0.208266974
20.55,-0.038718879,-0.029937744,0.287407875
20.56,-0.194057703,0.017905235,0.020319432
20.57,-0.275791884,0.058747292,-0.20029822
20.58,-0.273628861,0.058941841,-0.19655025
20.59,0.231784329,-0.079821587,0.22744441
20.6,0.18714492,-0.089626312,0.607426286
20.61,0.076065794,-0.092330933,0.783522606
20.62,0.097800523,-0.051915169,0.582893014
20.63,-0.137711972,-0.047316551,-0.068296999
20.64,-0.246194124,-0.061546326,-0.597440004
20.65,-0.166159868,0.000880241,-0.346456885
20.66,-0.167184532,0.02715683,0.280376673
20.67,-0.047092527,0.026893616,0.580569625
20.68,-0.049483508,0.026545525,0.571859002
20.69,-0.173166513,0.042967796,0.433698088
20.7,-0.170849174,0.042931557,0.43041423
20.71,-0.279593557,0.076544762,0.190309882
20.72,-0.237792671,0.02640152,0.107173696
20.73,-0.054786235,0.00256443,0.128847837
20.74,-0.052900285,0.002599716,0.127997935
20.75,0.053473383,-0.011771202,0.296632439
20.76,-0.043566972,0.02418232,0.251266897
20.77,-0.253822237,0.026802063,0.030660301
20.78,-0.309085608,0.024768829,-0.022185802
20.79,-0.096403003,-0.056276321,-0.085138053
20.8,-0.055657148,-0.056034088,-0.041516334
20.81,-0.085487723,0.025505066,0.05937162
20.82,-0.108462513,0.054312706,0.223495171
20.83,-0.035361171,0.107066155,0.310866863
20.84,-0.184801728,0.056927681,0.282245398
20.85,-0.239565581,0.028435707,0.183818102
20.86,-0.171808153,-0.086204529,0.057513535
20.87,-0.021679401,-0.217664719,0.049906164
20.88,-0.040520877,-0.179246903,0.227462977
20.89,-0.069401234,-0.078663826,0.247498035
20.9,-0.062429726,-0.030802727,0.278109223
20.91,0.039976418,0.000264168,0.210315496
20.92,-0.054469407,-0.006939888,0.193879411
20.93,-0.054032177,-0.006884575,0.194836274
20.94,-0.158367574,0.012350082,0.002319813
20.95,-0.183759183,-0.018665314,-0.022101134
20.96,-0.158649117,-0.071242332,-0.003615141
20.97,-0.11209932,-0.066353798,0.002699018
20.98,-0.054317564,-0.013606071,0.035575241
20.99,0.091390654,0.029532433,0.195177332
21,0.090096816,0.029550552,0.311648011
21.01,0.031335145,0.041524887,0.341919512
21.02,-0.031881362,0.01280117,0.282957554
21.03,-0.176395088,-0.035060883,-0.057757258
21.04,-0.185821652,0.020148277,-0.384876937
21.05,-0.181194991,-0.006038666,-0.354390979
21.06,0.12149784,-0.05628109,0.335223228
21.07,0.117639691,-0.056466103,0.333744973
21.08,0.21546492,-0.09265995,0.330869705
21.09,0.211203188,-0.092811584,0.33075574
21.1,0.025525928,-0.200619698,0.27949515
21.11,-0.185200095,0.002809525,0.121661291
21.12,-0.184586048,0.00285244,0.122092679
21.13,0.074639574,0.038755417,-0.173497409
21.14,0.068904161,0.074437141,0.448293954
21.15,0.081852719,0.06689167,0.484791637
21.16,-0.09003371,0.025870323,0.305160999
21.17,-0.281676441,0.028078079,0.144042641
21.18,-0.24399817,0.001677513,-0.029443443
21.19,-0.152832478,-0.03417778,-0.126194179
21.2,-0.133709252,-0.017308235,-0.030049205
21.21,-0.133502334,-0.01722908,-0.027821571
21.22,0.139297128,-0.007623672,0.454459339
21.23,0.19593145,0.02832222,0.310075641
21.24,0.008278728,0.030852318,0.108142763
21.25,-0.108448923,0.028706551,0.040081114
21.26,-0.007182688,-0.042851448,-0.015301317
21.27,-0.007666111,-0.042631149,-0.009697527
21.28,-0.027594209,-0.071227074,0.126183868
21.29,-0.010181576,-0.008926392,0.241266817
21.3,-0.012190014,-0.008936882,0.242764354
21.31,-0.222211838,0.024604797,0.196516112
21.32,-0.222772092,0.02466774,0.198473081
21.33,-0.158357859,-0.04712677,0.074963897
21.34,-0.206053138,-0.066270828,0.164033726
21.35,-0.174203903,-0.05911541,0.304132164
21.36,0.022870123,-0.099870682,0.302025527
21.37,0.017990977,-0.075978279,0.271859229
21.38,-0.132360816,-0.044884682,0.201709211
21.39,-0.190704346,-0.052062988,0.076257646
21.4,-0.18452698,-0.056845665,0.010609806
21.41,-0.140581638,-0.032916069,-0.014649868
21.42,-0.080457896,0.026866913,0.2539047
21.43,0.024867386,-0.009170532,0.334399998
21.44,0.036450654,-0.045183182,0.337042213
21.45,-0.001267701,-0.052361488,0.185876727
21.46,-0.095691651,-0.025942802,0.024249107
21.47,-0.1371499,-0.042601585,-0.00072071
21.48,-0.169132143,-0.042519569,0.059686184
21.49,-0.167788029,-0.042509079,0.059045553
21.5,-0.040955782,-0.042556763,0.103155524
21.51,-0.165961653,-0.021068573,0.2121436
21.52,-0.318276048,0.136919975,-0.011970073
21.53,-0.287012011,0.153766632,0.043076634
21.54,-0.182344675,0.029309273,0.28263095
21.55,0.086502939,-0.018609047,0.544556856
21.56,-0.001595318,-0.131332398,0.143641591
21.57,-0.002966017,-0.131411552,0.142678857
21.58,-0.161174327,-0.011723518,0.328805685
21.59,-0.185903043,0.021717072,0.505121112
21.6,-0.183445424,0.021679878,0.501795769
21.61,-0.147728354,-0.059619904,0.069381267
21.62,-0.014504403,-0.121868134,-0.327238888
21.63,-0.083815575,-0.055038452,0.083267689
21.64,-0.111099422,0.023587227,0.355745882
21.65,-0.114612401,0.023117065,0.345891416
21.66,-0.003414124,0.02746582,0.564255297
21.67,-0.028572977,0.017730713,0.339834839
21.68,-0.007088512,-0.061347008,0.055570275
21.69,-0.02638182,-0.080483437,-0.106614381
21.7,-0.086451173,-0.049346924,-0.060192019
21.71,-0.077771872,0.003299713,0.044935107
21.72,-0.093904555,0.048708916,0.077475309
21.73,0.005847245,0.055781364,0.280765951
21.74,0.109926701,0.043709755,0.388507158
21.75,0.084128186,0.026859283,0.28180933
21.76,0.022882879,0.026820183,0.185795099
21.77,0.019700438,0.026826859,0.188758045
21.78,-0.12152341,0.000511169,0.059437335
21.79,0.026256219,-0.054564476,0.080973446
21.8,-0.001509011,-0.071352005,0.11205627
21.81,-0.141009629,-0.023486137,0.218980253
21.82,-0.200306177,-0.009160042,0.293787867
21.83,-0.227481395,-0.037902832,0.291273773
21.84,-0.191367656,0.005169868,0.154320195
21.85,-0.18367511,-0.004401207,0.072693318
21.86,-0.183367372,-0.004416466,0.071744651
21.87,0.02866745,-0.014090538,0.199277252
21.88,0.026582152,-0.014228821,0.197137892
21.89,0.019027054,0.026358604,0.18847622
21.9,0.017659277,0.026287079,0.187691793
21.91,-0.083969355,0.026249886,0.184582084
21.92,-0.08440277,0.02623558,0.184620082
21.93,-0.082362443,0.021455765,0.23549664
21.94,-0.08286044,0.021460533,0.236128509
21.95,0.052025661,-0.026429176,0.199091449
21.96,0.121953055,-0.057531357,0.164867744
21.97,0.105528116,-0.064741135,0.20887363
21.98,-0.023489386,-0.019276619,0.226422668
21.99,-0.13786681,-0.009730339,0.226735383
22,-0.220749229,-0.021719933,0.097788826
22.01,-0.18794018,0.090847015,-0.255195499
22.02,-0.188354313,0.09096241,-0.25132829
22.03,-0.026181638,0.023989677,0.315882713
22.04,-0.02781859,0.023932457,0.315641314
22.05,0.137700349,0.026195526,0.679801464
22.06,-0.152849495,-0.016880035,0.086775362
22.07,-0.113907471,0.038300514,0.154169172
22.08,-0.105018124,0.079071999,0.341819257
22.09,-0.059626654,0.021682739,0.189131632
22.1,0.116894379,-0.021277428,0.117433667
22.11,0.088334918,-0.045145988,0.306000859
22.12,-0.017504171,-0.081161499,0.488258094
22.13,-0.075800896,-0.069434166,0.414839506
22.14,-0.090827629,-0.086432457,0.188117191
22.15,-0.105410427,-0.045899391,0.030373424
22.16,-0.119044825,-0.026795387,0.05197984
22.17,-0.117620349,-0.026784897,0.051425129
22.18,-0.05832994,-0.007540703,0.112663239
22.19,0.015688777,0.026120186,0.225017563
22.2,0.008078605,0.026230812,0.305962801
22.21,0.009929195,0.02632618,0.307593614
22.22,0.119281918,0.02650547,0.110118434
22.23,0.174948499,0.024265289,0.301051796
22.24,0.174234793,0.024354935,0.304004788
22.25,0.170750976,-0.001893997,0.319134355
22.26,0.133853406,0.000606537,0.210041598
22.27,-0.113180995,-0.040000916,-0.009744287
22.28,-0.223313808,-0.068653107,0.025983334
22.29,-0.242637515,-0.116535187,0.09560433
22.3,-0.216285616,-0.121336937,0.26526174
22.31,-0.184419751,-0.154895783,0.215992659
22.32,-0.230594605,-0.08544445,0.181873694
22.33,-0.280139178,-0.030296326,0.100131691
22.34,-0.149224281,0.027265549,-0.034057021
22.35,-0.097774088,0.072885513,-0.047757477
22.36,-0.00349465,0.159184456,0.091876149
22.37,0.020690918,0.154484749,0.204625711
22.38,0.023149401,0.154554367,0.20479463
22.39,-0.001152903,0.058866501,0.22961472
22.4,-0.04253751,0.025432587,0.194331914
22.41,-0.041020095,0.025482178,0.194815308
22.42,-0.075304568,-0.120516777,0.082370907
22.43,-0.107146829,-0.180348396,0.24435097
22.44,-0.014365524,-0.070218086,0.439419508
22.45,-0.050734729,-0.106102943,0.414283186
22.46,-0.047759235,-0.106020927,0.414455026
22.47,-0.120698512,-0.055527687,0.16813457
22.48,-0.294040084,-0.098367691,-0.09631893
22.49,-0.352611065,-0.143651009,-0.24421227
22.5,-0.239473522,0.028874397,-0.33168745
22.51,-0.21530962,0.028969765,-0.008089781
22.52,0.085623682,0.019382477,0.512285113
22.53,0.084995627,0.019211769,0.50820744
22.54,0.189512804,-0.048073769,1.088818073
22.55,-0.249635309,-0.086411476,0.6296435
22.56,-0.304052293,-0.021566391,-0.049460769
22.57,-0.226522893,-0.080972672,-0.724995434
22.58,-0.222833395,-0.080424309,-0.713393271
22.59,0.055279464,-0.108772278,-0.479090154
22.6,0.190734983,0.006051064,0.574327588
22.61,0.182792783,0.005278587,0.561183453
22.62,0.09787783,0.028391838,0.826011419
22.63,-0.32894209,0.159461975,0.298991352
22.64,-0.617208719,0.252539635,-0.00295651
22.65,-0.52118063,0.240522385,-0.061668754
22.66,-0.517941833,0.240580559,-0.063006729
22.67,-0.183552384,0.058667183,0.0591802
22.68,0.284028828,-0.070611954,0.446993113
22.69,0.348385215,-0.116128922,0.52553308
22.7,0.144325912,-0.046735764,0.290191531
22.71,-0.110943228,-0.020314217,0.178957671
22.72,-0.116007745,-0.070448875,-0.06278643
22.73,-0.115103185,-0.070339203,-0.059939206
22.74,-0.069746971,-0.079818726,-0.19628495
22.75,-0.066143841,0.027925491,0.261853337
22.76,-0.213237375,0.03028965,0.274112284
22.77,-0.213297278,0.030328751,0.275118828
22.78,-0.234782666,0.028033257,0.05297491
22.79,-0.145732135,-0.03172493,0.091387868
22.8,0.005056918,-0.043649673,0.233897463
22.81,-0.012301266,-0.053242683,0.406192899
22.82,0.026326269,-0.103564262,0.359345019
22.83,-0.039646357,-0.132267952,0.213026524
22.84,-0.107149363,-0.074687004,0.013652235
22.85,-0.207630336,-0.052959442,-0.110571325
22.86,-0.265009731,-0.036043167,-0.103202105
22.87,-0.071680605,0.028738022,0.092699885
22.88,0.09617351,0.050323486,0.330497086
22.89,0.078301817,0.098181725,0.57978636
22.9,0.025985479,0.028820992,0.363534629
22.91,-0.063792825,-0.035639763,0.080075979
22.92,-0.112436801,-0.104816437,-0.180414945
22.93,-0.139792144,-0.104576111,-0.160976857
22.94,-0.088641733,-0.097232819,0.019623637
22.95,0.07810235,-0.063700676,0.259825617
22.96,0.057149291,0.02244854,0.353647173
22.97,0.031970263,0.008065224,0.292307854
22.98,-0.167470008,-0.022967339,0.079355866
22.99,-0.276908726,0.029888153,-0.282800555
23,-0.241664827,0.030180931,-0.190440536
23.01,-0.056766719,-0.046274185,0.028622657
23.02,0.061332583,-0.139663696,0.349935949
23.03,0.154930025,-0.221225739,0.678517461
23.04,0.004267305,-0.259781838,0.628925264
23.05,-0.005694717,-0.111520767,0.384925067
23.06,-0.004962593,-0.111611366,0.382197678
23.07,0.143358827,-0.099637032,0.114035368
23.08,0.136767328,-0.039843559,0.255171359
23.09,0.074005648,0.015014648,0.436597973
23.1,-0.066497713,-0.016501427,0.353054017
23.11,-0.070189536,-0.016915321,0.345438272
23.12,-0.163841784,-0.062714577,0.080827832
23.13,-0.282207847,0.006496429,0.185406834
23.14,-0.090470344,0.013486862,0.299775124
23.15,-0.016001135,0.020557404,0.298712552
23.16,0.101828605,-0.00823307,0.296627551
23.17,0.119393691,0.001366615,0.411379129
23.18,0.120481804,0.00135994,0.410747826
23.19,-0.024340898,-0.048892021,0.127699092
23.2,0.005880356,-0.072702408,-0.085286796
23.21,-0.048159808,-0.079694748,-0.085641742
23.22,-0.09075579,-0.014900208,0.121449471
23.23,-0.09086597,-0.01488781,0.122166693
23.24,-0.141239852,0.028187752,0.207572043
23.25,-0.196016789,0.028155327,0.079336345
23.26,-0.264454752,0.028153419,0.157753542
23.27,-0.202562541,0.028175354,0.247560516
23.28,-0.121348739,-0.093912125,0.298696667
23.29,-0.1191369,-0.093871117,0.298095793
23.3,-0.07156682,-0.086605072,0.094992191
23.31,-0.141007304,-0.098501205,0.118969426
23.32,-0.002318025,-0.098471642,0.161107749
23.33,0.017874032,-0.043419838,0.202434167
23.34,0.018550307,-0.031518936,0.281522483
23.35,0.023724347,-0.014807701,0.210226208
23.36,-0.12168783,0.028286934,0.127984434
23.37,-0.21857065,0.023544312,0.051585078
23.38,-0.200109184,-0.0170784,-0.046065837
23.39,-0.161059886,-0.057729721,-0.08131066
23.4,-0.04605931,-0.033764839,0.020044416
23.41,0.051329434,0.00933075,0.248019576
23.42,-0.009499788,0.028454781,0.296244115
23.43,-0.172409564,0.028492928,0.271006554
23.44,-0.171189666,0.028609276,0.115038425
23.45,-0.057966083,-0.023947716,-0.006851047
23.46,-0.115914136,-0.0622015,-0.006896704
23.47,-0.357840776,-0.011860847,-0.113309294
23.48,-0.335305661,0.11751461,-0.070962936
23.49,-0.245546401,0.055401802,-0.106469721
23.5,-0.246092916,0.055529594,-0.102783144
23.51,-0.075663298,0.10101223,0.188757166
23.52,0.103634119,0.036271095,1.014397383
23.53,0.101689994,0.036118507,1.012028933
23.54,0.246282384,3.33786E-05,0.628008008
23.55,0.244980052,-2.57492E-05,0.627330542
23.56,0.079004109,-0.141010284,-0.315149456
23.57,0.033861935,-0.14081192,-0.597619772
23.58,-0.213367313,-0.00920105,0.686144114
23.59,-0.270404309,-0.023805618,0.578642726
23.6,-0.270788044,-0.023940086,0.575314999
23.61,-0.257749349,-0.133994103,0.169774741
23.62,-0.259359539,-0.262943268,-0.51352787
23.63,-0.065241277,-0.219510078,-0.195699781
23.64,0.048406065,-0.195405006,0.12129429
23.65,-0.051930755,-0.157028198,0.256842017
23.66,0.037011623,-0.133026123,0.224425733
23.67,0.120372564,-0.130580902,0.012926936
23.68,-0.115970254,-0.029966354,-0.290876031
23.69,-0.218158275,-0.010745049,-0.146480769
23.7,-0.052484155,-0.080183029,-0.135523021
23.71,0.003815323,-0.077830315,0.004951179
23.72,-0.114804328,-0.003682137,0.051442534
23.73,-0.289393723,-0.020486832,-0.045885712
23.74,-0.290246248,-0.020475388,-0.044886768
23.75,-0.34021157,-0.092224121,-0.347476721
23.76,-0.246579737,-0.151985169,-0.342944294
23.77,-0.107327998,-0.11362648,-0.042840421
23.78,-0.108025938,-0.113765717,-0.045422256
23.79,-0.056715608,0.01053524,0.146785647
23.8,-0.189470679,0.034295082,0.116954923
23.81,-0.211004794,0.029391289,0.022698581
23.82,-0.181845337,0.019695282,-0.145604909
23.83,-0.126118273,0.010055542,-0.183366716
23.84,-0.123148263,-0.013944626,-0.118236661
23.85,-0.108173221,0.019554138,-0.088402301
23.86,-0.105193853,0.029120445,-0.110683173
23.87,-0.104461163,0.029136658,-0.110784292
23.88,-0.12957567,0.062724113,0.028692126
23.89,-0.063672632,0.08915329,0.051887184
23.9,-0.141786754,0.046248436,-0.133195162
23.91,-0.14016822,0.046570778,-0.126315922
23.92,-0.119347841,-0.010491371,-0.445931971
23.93,-0.084228724,-0.060333252,-0.431815654
23.94,-0.083146781,-0.059907913,-0.422677249
23.95,0.041361928,-0.095452309,-0.076781899
23.96,-0.083527595,-0.095106125,-0.104678154
23.97,-0.403425753,-0.006091118,-0.411467671
23.98,-0.342650414,0.008952141,-0.713002324
23.99,-0.245409399,-0.08114624,-0.455394357
24,-0.015253097,-0.15218544,0.253343821
24.01,-0.087577611,-0.283509255,-0.019378632
24.02,-0.245892018,-0.354849815,-0.251721799
24.03,-0.139752775,-0.351826668,-0.211386025
24.04,-0.094946951,-0.260183334,-0.384281516
24.05,-0.093152463,-0.259446144,-0.372097731
24.06,-0.164958596,-0.071818352,-0.707579553
24.07,-0.164127111,-0.071166039,-0.696524501
24.08,-0.337409824,-0.03964138,-0.164872944
24.09,-0.41174075,-0.003448486,-0.140908718
24.1,-0.38038981,-0.048646927,-0.059542656
24.11,-0.355345279,-0.08419323,-0.255219877
24.12,-0.394847095,-0.088269234,-0.544713438
24.13,-0.393942118,-0.175893784,-0.742990911
24.14,-0.386964113,-0.174773216,-0.729051828
24.15,-0.275102675,-0.255056381,-0.77756381
24.16,-0.235212445,-0.234854698,-0.415573895
24.17,-0.145951897,-0.143113136,-0.220476449
24.18,-0.218613267,-0.06594944,0.015211046
24.19,-0.291068524,-0.180365562,-0.073122501
24.2,-0.22894147,-0.306612015,-0.413360536
24.21,-0.193180591,-0.499710083,-0.827835739
24.22,-0.217502296,-0.584942818,-1.036935329
24.23,-0.212467223,-0.583827019,-1.024157047
24.24,-0.191966951,-0.60218811,-0.981760621
24.25,-0.086567193,-0.515294075,-0.478161156
24.26,0.007206112,-0.459991455,-0.096955955
24.27,-0.05947575,-0.479481697,-0.107605636
24.28,-0.200557619,-0.49439621,-0.408285677
24.29,-0.201084256,-0.494790077,-0.41326642
24.3,-0.437710047,-0.55006218,-0.957363486
24.31,-0.410517901,-0.590683937,-0.953309596
24.32,-0.406080812,-0.590466499,-0.952771246
24.33,-0.26827246,-0.60959053,-0.556903958
24.34,-0.220045328,-0.636548996,-0.680483282
24.35,-0.23015523,-0.639717102,-0.721906602
24.36,-0.321830034,-0.621401787,-0.788559198
24.37,-0.331612587,-0.624678612,-0.839381576
24.38,-0.382083237,-0.661525726,-0.374622822
24.39,-0.795700908,-0.956788063,0.30348146
24.4,-0.704471231,-1.242003441,-0.294950903
24.41,-0.539476216,-1.481266022,-0.818382859
24.42,-0.711341798,-1.708182335,-1.086908102
24.43,-0.658653855,-1.865339279,-0.7664783
24.44,-0.39124462,-1.981446743,-0.509734511
24.45,-0.276765525,-2.121045113,-0.521120668
24.46,-0.285588592,-2.121094704,-0.606922627
24.47,-0.572415233,-2.201634407,-0.53916043
24.48,-0.357477874,-2.269146442,-0.672261119
24.49,-0.371298879,-2.265938282,-0.781713426
24.5,-0.015924796,-2.502800941,0.214429617
24.51,0.074737474,-2.555238247,0.487780988
24.52,0.114296824,-2.623450279,0.240292847
24.53,0.082559332,-2.60923481,0.075069547
24.54,-0.078887224,-2.760781288,0.252930403
24.55,-0.11442177,-2.73703289,0.061716914
24.56,-0.876835942,-3.260122776,0.962281466
24.57,-0.725160837,-3.513374329,1.656100154
24.58,-1.169215083,-3.671663761,2.015827179
24.59,-1.196201801,-3.624179363,1.79713583
24.6,-1.424711823,-3.460911751,1.6272192
24.61,-0.627195001,-2.903514862,-0.579343557
24.62,-0.058656845,-2.331503391,-1.828018785
24.63,-0.093503699,-2.278260708,-2.000842571
24.64,0.574379921,-1.369408607,-2.825469255
24.65,2.291146994,1.088805199,-1.549175978
24.66,2.566937447,2.283985138,-0.682252884
24.67,1.919785023,3.356220245,-0.112907887
24.68,1.454612732,4.021213531,-0.159700394
24.69,1.399083972,4.069962502,-0.269578934
24.7,2.318807125,4.1167593,-0.816474676
24.71,2.622857809,3.978755951,0.182271957
24.72,2.789065838,3.873372078,0.860115051
24.73,2.954894066,3.753803253,1.032971382
24.74,2.222195148,3.694785118,0.675748825
24.75,1.130935907,3.47159481,0.325925827
24.76,1.052338123,3.505696297,0.275627613
24.77,-0.194259584,2.977398872,-0.004211903
24.78,-2.001546621,1.315466881,-0.135381699
24.79,-2.039214134,1.344007492,-0.18038559
24.8,-1.960609913,0.114834786,-0.166466713
24.81,-1.394284964,0.045143127,0.373769283
24.82,-0.489878595,0.363315582,0.505571365
24.83,0.278058171,1.076442719,0.256745338
24.84,0.817732334,2.180961609,0.1877985
24.85,0.803520799,3.060691833,0.386882305
24.86,0.031195641,4.062101364,1.150856018
24.87,-1.273497224,4.254908562,1.641926289
24.88,-1.408559322,3.901964188,1.746600151
24.89,-1.653513789,3.00193882,1.365393162
24.9,-1.328417301,1.75061512,0.126434326
24.91,-1.152494431,0.497844696,-0.672988415
24.92,-1.119660974,-0.207603455,-1.066628218
24.93,-1.070752382,-0.201238632,-1.088639975
24.94,-3.232347965,-1.666370392,1.89191246
24.95,-4.2205019,-2.041128635,4.383709431
24.96,-3.808564186,-2.182642937,5.803673744
24.97,-3.700512648,-2.191500664,5.801347256
24.98,-1.672724724,-1.882342339,5.106644154
24.99,0.884213924,1.281993866,2.830514908
25,0.958149791,1.261104584,2.858234406
25.01,2.605028629,4.721569061,2.518850803
25.02,1.756542683,7.30297184,1.75853157
25.03,-1.109540224,9.051738739,2.884942532
25.04,-2.195147991,10.82512856,3.129332542
25.05,-2.096113205,10.81536388,3.142524242
25.06,-1.312038779,13.18374729,0.498920441
25.07,-1.185851932,13.15848541,0.544746399
25.08,-2.509266138,13.78938961,0.343657494
25.09,-3.555147409,12.59180737,1.285492897
25.1,-2.434143543,10.01260662,1.915616035
25.11,-0.66531235,7.654958725,2.345941544
25.12,0.596866608,4.772391319,2.029616833
25.13,0.53259027,4.750219345,2.066922665
25.14,1.177054763,-0.468855858,1.581645489
25.15,1.080179572,-0.506762505,1.651682377
25.16,1.34850502,-3.03361702,2.160797596
25.17,2.40915823,-4.84054184,0.738077164
25.18,1.228057742,-8.633292198,-2.005413771
25.19,1.199778557,-8.681524277,-1.902567625
25.2,-2.150071859,-10.34252071,-3.045291901
25.21,-4.115287781,-11.80395508,-11.08881187
25.22,-2.881542444,-11.75128555,-10.84440994
25.23,-1.043668389,-11.3735981,-6.50647068
25.24,0.050870597,-10.82456112,-2.822581291
25.25,1.462378621,-11.31338882,1.550991535
25.26,1.543012619,-10.66877937,3.444282055
25.27,1.628150344,-10.49134159,1.513151646
25.28,2.572653055,-9.273566246,-3.747775316
25.29,3.983573914,-7.019084454,-7.725599289
25.3,5.574557304,-3.926731586,-7.663423538
25.31,5.541841984,-3.920917034,-7.668141365
25.32,9.008264542,4.115491867,-2.654222965
25.33,7.780545712,7.480242729,1.00733614
25.34,4.989969254,9.47094059,4.32775259
25.35,1.815722227,10.38746738,5.818477631
25.36,-0.661195397,11.1072607,4.382514477
25.37,-0.591050983,11.06729794,4.449926853
25.38,0.853574216,9.422636032,1.051292896
25.39,0.439149916,7.993563652,-0.459990263
25.4,-2.117791176,7.392994881,0.947218418
25.41,-2.117810488,7.430025101,0.869904041
25.42,0.312711,6.891042709,4.833253384
25.43,0.370773315,6.899787903,4.804531574
25.44,-3.833440781,5.946268082,5.407792091
25.45,-7.282130241,4.054316521,3.929622173
25.46,-7.360548973,0.683172226,2.852984428
25.47,-6.281291962,-3.55979538,3.441026688
25.48,-2.696821928,-12.82616425,-0.438090801
25.49,-0.782226563,-14.76379585,-4.806207657
25.5,-0.799942553,-14.73565865,-4.862076759
25.51,-1.673969269,-11.1175909,-7.144165993
25.52,-4.782215118,-10.02039242,-1.682677984
25.53,-6.386191368,-8.945940018,1.987537384
25.54,-6.397690773,-8.89298439,1.8883605
25.55,-6.401034832,-8.742966652,3.313500404
25.56,-4.565344334,-8.123595238,1.830339909
25.57,-2.839396954,-6.48273468,-0.700093269
25.58,-0.771658838,-1.320025444,-3.591453552
25.59,3.108721256,2.379519463,-1.758299589
25.6,3.150592566,2.377987862,-1.757360697
25.61,6.538413048,6.481207848,0.183290005
25.62,3.529805183,9.123368263,11.91789818
25.63,2.75901556,8.480191231,15.3147583
25.64,0.798283219,8.55199337,18.05246353
25.65,-2.075713158,8.214020729,20.10383224
25.66,-2.071938753,8.215188026,20.10184097
25.67,-5.503425121,9.171492577,15.33267403
25.68,-6.618002892,10.29483891,-3.140557289
25.69,-6.569895744,10.20124912,-2.985666275
25.7,-1.793776512,9.201273918,-2.170683622
25.71,-1.790976167,9.174667358,-2.123553038
25.72,3.482321978,6.416841507,3.324644089
25.73,2.687752008,4.916682243,4.818427086
25.74,3.094581604,3.293877602,4.80081749
25.75,2.899439335,0.07423687,4.638586521
25.76,2.875692844,0.025450706,4.731710434
25.77,3.024286032,-4.086474895,3.556429863
25.78,2.054486275,-10.47180462,-2.97833252
25.79,0.898525834,-12.451931,-7.219741821
25.8,0.136324376,-13.26648235,-10.72340775
25.81,0.22789532,-13.72273445,-11.99485302
25.82,0.521699429,-13.89077187,-9.910573959
25.83,1.632237911,-13.47262383,-6.559176445
25.84,1.554707289,-13.46954346,-6.554521561
25.85,1.448799133,-12.53173447,-3.127923012
25.86,0.334002078,-10.48772526,3.091351032
25.87,0.279761672,-10.47550488,3.072996378
25.88,0.801875413,-9.977596283,4.654494762
25.89,1.090227365,-10.47501755,3.417530775
25.9,-0.670861244,-8.987099648,-2.822898626
25.91,2.658830404,-3.719647884,-9.061470985
25.92,2.669046879,-3.765590191,-8.935240746
25.93,13.08538151,0.092307091,-0.255584955
25.94,12.59851456,3.211330414,5.317520618
25.95,12.45522976,3.242962837,5.273276329
25.96,10.46557045,7.134473801,5.940657616
25.97,4.36717844,11.01633263,6.331009865
25.98,-2.581577778,15.5723238,6.913303375
25.99,-4.54519558,17.72573853,4.961270332
26,-6.944791317,18.64859009,0.257126331
26.01,-8.501840591,18.54091835,-0.070838928
26.02,-6.407614231,15.17737103,4.050185204
26.03,-3.884599447,11.55015755,6.530927658
26.04,-3.868318558,11.5636034,6.492481709
26.05,-0.759963632,3.513355255,10.88976288
26.06,-0.762268305,3.495284081,10.93675804
26.07,1.365745306,0.280623436,9.450303078
26.08,-0.710454643,-5.415378571,3.769922972
26.09,-0.681188941,-5.46094799,3.891514063
26.1,-6.34664917,-8.401003838,-2.219371796
26.11,-5.630559921,-10.18945122,-4.880348206
26.12,-6.077280045,-12.55661774,-6.006247044
26.13,-5.934514523,-12.59194756,-5.913327217
26.14,-3.523338556,-15.71256828,-5.789470673
26.15,-1.079026222,-17.55232239,-3.643683195
26.16,-0.560814798,-18.7926445,0.660229921
26.17,-3.083016157,-17.34743881,3.912947178
26.18,-4.407216072,-14.79746246,1.729636431
26.19,-3.70711422,-11.31919861,-4.846066475
26.2,-3.4681077,-7.972266197,-8.326663017
26.21,-3.448819876,-7.975606918,-8.315831184
26.22,-2.840239763,-4.104260445,-7.277908325
26.23,3.572071552,4.651483536,0.221130371
26.24,4.216460705,8.679376602,5.52718544
26.25,-0.081215672,13.90403748,10.98799515
26.26,-4.670809269,16.94377136,17.35839844
26.27,-3.685358524,16.51552582,23.32589722
26.28,-2.018916607,14.49114227,22.41009521
26.29,-2.237181187,12.44567966,11.71925163
26.3,-4.617417812,12.54631519,0.279479027
26.31,-7.677567482,12.41422367,-8.476291656
26.32,-6.912302017,11.08001328,-9.135390282
26.33,-6.905317783,11.04510784,-9.018938065
26.34,-3.694169521,8.509688377,-4.453887463
26.35,-0.477715612,5.657878876,0.192966461
26.36,2.495198965,1.698877335,4.309173584
26.37,2.881894112,-0.058326721,5.844586372
26.38,4.293138981,-2.756858349,7.239580631
26.39,5.212278366,-5.607365608,8.855353355
26.4,4.824985504,-7.836899757,7.332322121
26.41,4.751908302,-7.84432888,7.358866692
26.42,-0.140777499,-11.31271362,-4.262848854
26.43,-0.693798542,-12.04773521,-7.464522362
26.44,-0.27408123,-13.44068718,-8.852978706
26.45,0.684930682,-14.0173645,-6.879704952
26.46,0.616825461,-14.02923965,-6.823122978
26.47,1.834224582,-14.83265877,-4.141050816
26.48,2.866213322,-15.08615494,-0.944130421
26.49,3.24032712,-14.94885254,1.472925901
26.5,3.101408958,-13.19332123,0.357833862
26.51,3.041913271,-13.1858511,0.34692955
26.52,0.193846345,-6.644080162,-6.842342377
26.53,-0.738016546,-2.347355843,-6.282790661
26.54,1.766175508,3.510824203,-4.049142838
26.55,4.455527782,11.05948639,3.08548069
26.56,4.369218826,11.04826069,3.164527178
26.57,9.179971695,10.98859215,10.41966629
26.58,9.065422058,10.97988987,10.51670361
26.59,3.123030663,10.6791935,5.83934021
26.6,1.172165155,9.870500565,2.487745762
26.61,1.22490859,9.830641747,2.689880848
26.62,-3.12942934,11.51587296,-5.18678093
26.63,-5.176991463,11.96836185,-5.576231956
26.64,-4.624500751,11.33664799,-4.127220631
26.65,-4.546103477,11.33163261,-4.139459133
26.66,-2.275767088,9.565577507,-2.806513548
26.67,-0.982536018,3.992373466,2.861093044
26.68,-0.930795312,4.01249218,2.70371294
26.69,-2.360108614,0.675125122,9.232533455
26.7,-0.670794249,-0.937583923,14.55029106
26.71,-2.941115856,-4.523206711,13.34011078
26.72,-3.121468782,-7.717234135,3.421102762
26.73,-3.240784407,-10.19620323,-4.765457153
26.74,-3.359781742,-11.55218315,-7.380985737
26.75,-3.199414253,-10.61647701,-4.597407341
26.76,-2.972410202,-9.520009995,-0.415053368
26.77,-2.299881935,-10.2166729,1.485728264
26.78,-2.289568901,-11.96085262,1.661896229
26.79,-2.253283739,-13.6425457,0.882712126
26.8,-1.405800462,-15.12050247,0.256795406
26.81,-1.440248966,-15.1060133,0.173889756
26.82,-3.078034878,-12.28307629,-0.754528403
26.83,-3.095373631,-12.26829529,-0.829862714
26.84,-3.039250135,-6.497675896,-3.672983646
26.85,-3.021938801,-6.491622925,-3.70158267
26.86,2.437076569,3.52576828,-1.935317039
26.87,6.991465569,7.274698257,1.43571043
26.88,3.958808661,12.06213665,5.603887558
26.89,-4.881066799,18.10996246,9.882199287
26.9,-7.185414314,19.51461601,18.99123764
26.91,-7.147861958,19.5636692,18.80867577
26.92,-5.185292244,16.90574646,27.21955299
26.93,-3.461888075,15.60753632,23.71152687
26.94,-9.672527313,15.07338428,-8.236791611
26.95,-9.926939964,13.34542084,-14.99163914
26.96,-6.256186962,10.2953701,-9.793140411
26.97,-1.414300799,5.939908981,-0.473299742
26.98,0.272188693,2.322677612,4.160751343
26.99,2.192885876,-0.331580162,5.649058342
27,4.576291084,-3.102690697,7.257374763
27.01,4.521586895,-3.081461906,7.184620857
27.02,5.714778423,-4.451739788,8.362911224
27.03,3.851362944,-5.776267052,5.280638695
27.04,-0.016988475,-6.079076767,1.431982994
27.05,-1.387687802,-7.404538631,-3.401667118
27.06,-1.396240234,-7.431177616,-3.31364584
27.07,0.350999057,-11.32505894,-8.672924995
27.08,0.630821288,-13.17585182,-6.980390072
27.09,0.796882391,-13.96733952,-4.629709244
27.1,1.535501122,-14.79403877,-2.195749998
27.11,2.554526806,-16.00413704,0.154047489
27.12,3.734582901,-16.3400116,1.494389534
27.13,4.184589863,-15.67802811,-0.357835293
27.14,2.157507181,-13.31765747,-3.607008934
27.15,-1.078860283,-10.22182274,-7.194705963
27.16,-3.756330967,-7.116808891,-11.3182888
27.17,-4.078672409,-3.843392372,-11.08653069
27.18,-4.04446888,-3.845541,-11.08623028
27.19,1.817774773,5.854323387,-1.42677927
27.2,6.240125179,8.411795616,4.56830883
27.21,10.45702934,9.0185709,9.385578156
27.22,11.34986877,10.29116631,13.44249344
27.23,8.066199303,10.31102467,14.11051464
27.24,6.626364231,10.64762974,12.69453144
27.25,4.459804058,11.73740578,10.31538391
27.26,4.495368958,11.7326479,10.31880283
27.27,-1.640810013,12.78585529,1.082907677
27.28,-3.602487803,13.05281639,-1.188844323
27.29,-3.501686573,13.03324127,-1.152010798
27.3,-4.737647533,13.31448841,2.951908112
27.31,-5.29206562,12.44131088,5.672192097
27.32,-5.217704773,12.43617153,5.677374363
27.33,-3.913686514,4.327523232,11.99889755
27.34,-1.828988791,-1.958239555,10.65226269
27.35,-0.956918776,-7.341080189,4.691300392
27.36,-1.610954642,-11.6831398,-2.096286774
27.37,-2.201736212,-14.87412262,-7.034403801
27.38,-2.008769274,-17.10819244,-9.376804352
27.39,-1.916003346,-17.1350975,-9.252119064
27.4,-2.818387747,-16.63688278,-7.010590076
27.41,-3.638504028,-15.51126099,-4.043132305
27.42,-4.099197865,-14.52104759,-0.45314908
27.43,-4.672977448,-14.19324112,2.402857304
27.44,-4.576947689,-13.49936104,3.541424513
27.45,-3.883486271,-12.39595318,3.241068363
27.46,-3.929472208,-12.37739277,3.161295652
27.47,-3.636515856,-7.436397076,-1.446044683
27.48,-3.545026541,-4.398378372,-3.199965477
27.49,-1.265794158,0.859693527,-3.689353943
27.5,-1.265591383,0.858940125,-3.686326742
27.51,3.568133831,8.161968231,1.785096169
27.52,-1.133751512,14.44314575,5.733861923
27.53,-2.110121489,16.31878281,11.6435976
27.54,-2.114729166,16.37400436,11.45241261
27.55,-3.38923192,13.22167587,25.72844315
27.56,-4.106098175,11.23596191,22.20397949
27.57,-4.133285046,11.24032688,22.19188118
27.58,-4.985974312,10.31879902,8.73410511
27.59,-8.932342529,10.0098238,-12.73623848
27.6,-6.710646629,8.710549355,-12.22325325
27.61,-3.006756067,6.699397087,-6.798204422
27.62,0.06152422,4.789110184,-0.283476114
27.63,0.876335442,3.34589386,4.730302334
27.64,0.54867959,3.103997231,7.876216412
27.65,0.444598019,1.484147072,10.15135002
27.66,1.22757411,-0.641255379,10.60141468
27.67,1.152886629,-0.628444672,10.57086754
27.68,1.667492747,-6.39586544,3.691850901
27.69,0.252643585,-8.978295326,-1.954321861
27.7,-0.359097064,-11.20946789,-6.283834934
27.71,0.480841011,-13.15078545,-8.229073524
27.72,2.410503864,-14.79393387,-9.852884293
27.73,2.77275753,-15.76561356,-8.918077469
27.74,2.70096755,-15.77264881,-8.876850128
27.75,3.122425318,-16.62128067,-1.649877429
27.76,3.040033817,-16.59795952,-1.711408973
27.77,2.225118876,-15.12640953,0.602015257
27.78,1.706033468,-12.92555428,-0.60955143
27.79,-1.090196013,-9.807606697,-3.238478422
27.8,-3.10926342,-7.042591095,-6.229846001
27.81,-3.098466396,-7.048681259,-6.213026524
27.82,-4.112264156,-4.826096058,-9.062375069
27.83,-2.345541,-0.304423332,-10.48312569
27.84,8.765950203,9.189330101,3.710911036
27.85,14.34036827,9.842300415,7.515503883
27.86,11.38356972,11.33255577,9.20744133
27.87,5.368574142,13.46805477,10.705966
27.88,2.024626732,15.02681828,13.53806305
27.89,3.620107174,12.98672581,13.42764854
27.9,2.954174042,11.3030777,10.76463223
27.91,-0.363289118,10.38187504,3.95681715
27.92,-2.342460632,10.208992,-2.473596096
27.93,-4.029587746,10.96686077,-3.052055597
27.94,-5.684258461,11.14475918,0.66195631
27.95,-4.434138775,10.40416527,4.313448906
27.96,-4.347631931,10.4120636,4.259207726
27.97,-4.42252779,4.847064972,11.92560291
27.98,-2.932367563,-0.303664208,14.80877209
27.99,-0.015865147,-5.984329224,12.96782494
28,0.288299143,-9.803324699,7.672277927
28.01,-2.781893492,-12.17255974,-1.463610888
28.02,-5.604763031,-13.53339672,-10.60340595
28.03,-5.237616539,-14.216856,-15.85846329
