Time (s),Linear Acceleration x (m/s^2),Linear Acceleration y (m/s^2),Linear Acceleration z (m/s^2)
0,-0.045857459,0.033577919,0.247247487
0.01,-0.046631217,0.033560753,0.245754033
0.02,0.014117152,0.026304245,0.181526572
0.03,-0.068709314,0.026239395,0.106392704
0.04,-0.069415122,0.026181221,0.108792752
0.05,-0.214714229,0.102801323,-0.026227281
0.06,-0.16401577,0.026159287,-0.15551126
0.07,-0.057368338,-0.167868614,-0.078986958
0.08,0.006532311,-0.2182827,0.440781117
0.09,0.065981418,-0.249494553,0.803509176
0.1,0.057346493,-0.225568771,0.566902816
0.11,0.057418972,-0.108234406,0.047282718
0.12,-0.040332764,-0.010061264,-0.360387057
0.13,-0.040309966,-0.010103226,-0.356568366
0.14,-0.176344395,0.025766373,-0.273161471
0.15,-0.105697423,0.099915504,0.23406902
0.16,-0.17819649,0.135812759,0.781850934
0.17,-0.034499139,0.049617767,0.461399466
0.18,-0.067019254,0.025672913,0.045274511
0.19,-0.067503661,0.006484032,-0.169107229
0.2,-0.048444748,-0.065379143,-0.166111559
0.21,0.02568689,-0.086952209,0.013505153
0.22,0.001044303,-0.048690796,0.134133086
0.23,0.000698119,-0.048707962,0.134489059
0.24,-0.149506986,0.023143768,0.324031919
0.25,-0.096267819,0.025531769,0.319332719
0.26,-0.047983408,0.01831913,0.246605918
0.27,-0.047471821,0.018276215,0.251715243
0.28,0.000251055,-0.012910843,0.095181137
0.29,-0.034170002,0.010949135,-0.035001896
0.3,-0.035327941,0.010848999,-0.029321514
0.31,-0.074873328,0.02272892,0.065388426
0.32,-0.047652006,-0.0228405,0.061709814
0.33,-0.242441207,-0.015716553,0.21778065
0.34,-0.242051482,-0.015711784,0.219311521
0.35,-0.189722598,-0.113890648,0.243914217
0.36,-0.082769036,-0.176172257,0.257990509
0.37,-0.058094978,-0.188204765,0.235053808
0.38,-0.032934725,-0.145130158,0.252265036
0.39,-0.047704458,-0.111617088,0.214241952
0.4,-0.047651112,-0.111590385,0.21211955
0.41,-0.114194393,0.024912834,0.293721378
0.42,-0.020244569,0.024952888,0.206885159
0.43,0.156020507,-0.010962486,0.066293485
0.44,0.165710628,-0.030202866,-0.087852545
0.45,-0.006524533,0.027163506,-0.136489153
0.46,-0.112907499,0.094182014,-0.094447263
0.47,-0.207120538,0.094163895,0.133613884
0.48,-0.209530085,0.094103813,0.129764229
0.49,0.130964905,-0.044855118,0.586222708
0.5,0.166254312,-0.167110443,0.531855464
0.51,0.104355633,-0.152849197,0.411132395
0.52,0.101464599,-0.152897835,0.406699389
0.53,-0.031895161,-0.049998283,-0.343598843
0.54,-0.145512462,0.021770477,-0.311784118
0.55,-0.121183217,0.045694351,0.063758776
0.56,-0.124966115,0.045630455,0.057327285
0.57,-0.036672384,0.033581734,0.423017949
0.58,0.051461726,-0.045497894,0.367428988
0.59,-0.00082022,-6.96182E-05,0.233875319
0.6,-0.141902179,0.023881912,0.159744144
0.61,-0.142803073,0.023900986,0.156328782
0.62,-0.157695383,0.014340401,0.168237671
0.63,-0.067456752,-0.033535957,0.240193442
0.64,0.022324353,-0.045516014,0.097248942
0.65,0.054731846,-0.024022102,0.026164234
0.66,0.013143331,-0.033651352,0.044512287
0.67,-0.001897722,0.023755074,0.151543826
0.68,0.007041365,0.026118279,0.185996562
0.69,0.08485958,0.033262253,0.195829675
0.7,0.083271146,0.033198357,0.196010873
0.71,0.074617073,0.02358532,0.175913855
0.72,-0.225387603,0.023607254,0.315431833
0.73,-0.387965053,0.042777061,0.345306516
0.74,-0.255027562,-0.033777237,0.181367725
0.75,-0.108167261,-0.127137184,-0.00945121
0.76,-0.162688464,-0.117557526,0.044733822
0.77,-0.160851002,-0.117501259,0.044473127
0.78,-0.232357681,0.023873329,0.31559968
0.79,-0.229857385,0.024017334,0.312759489
0.8,-0.040514678,0.024148941,0.458002508
0.81,0.057436407,0.014689446,0.395458609
0.82,0.092521787,-0.030708313,0.21436356
0.83,0.065098464,-0.045044899,0.073666558
0.84,0.042005062,-0.064199448,0.055646926
0.85,0.042315006,-0.064194679,0.056253076
0.86,-0.063290566,-0.049823761,0.151617825
0.87,-0.051505238,0.031581879,0.136611536
0.88,-0.094422728,0.024424553,0.260863066
0.89,-0.036908835,-0.045015335,0.298840642
0.9,0.046405047,-0.097702026,0.372448802
0.91,-0.129388094,-0.114459992,0.310800374
0.92,-0.258631438,-0.109638214,0.275535762
0.93,-0.213669986,0.022128105,0.183882862
0.94,-0.127391011,0.005417824,0.120905653
0.95,-0.024914235,-0.059211731,-0.134546489
0.96,-0.026381731,-0.092766762,-0.21657449
0.97,-0.132019609,-0.054520607,0.054361939
0.98,-0.214133829,-0.006644249,0.342900693
0.99,-0.234126091,-0.032943726,0.365352392
1,-0.179502755,-0.006558418,0.237621829
1.01,-0.200882107,0.024587631,0.071037963
1.02,-0.223678947,0.022220612,-0.004658788
1.03,-0.159559518,0.003090858,0.021505728
1.04,-0.117467135,-0.030437469,0.079818726
1.05,-0.080595851,-0.040035248,0.090157971
1.06,0.02953887,-0.054459572,0.071835473
1.07,0.081449389,-0.073681831,0.106408551
1.08,-0.001162976,-0.00194931,0.033097237
1.09,0.212547571,-0.136142731,0.086432308
1.1,0.153624907,-0.100380898,0.302957475
1.11,0.075899929,-0.095669746,0.332013249
1.12,0.0726991,-0.095763206,0.329862803
1.13,-0.057150036,0.011906624,0.129525885
1.14,-0.059249043,0.011852264,0.128818035
1.15,-0.220784694,0.033379555,0.123509258
1.16,-0.362195611,0.033383369,0.211249292
1.17,-0.36225158,0.033371925,0.211381391
1.18,-0.199386537,0.014192581,-0.011984155
1.19,-0.058618426,-0.043297768,0.092713863
1.2,0.026729673,-0.052914619,0.191283613
1.21,0.025920272,-0.052934647,0.190579847
1.22,-0.076242685,-0.045703888,0.328435421
1.23,-0.074867904,-0.045640945,0.32707113
1.24,-0.071101636,0.007107735,0.3565045
1.25,-0.010874301,-0.00962925,0.099523321
1.26,-0.116376996,-0.062311172,0.180688426
1.27,-0.116586864,-0.062293053,0.179325908
1.28,-0.148144096,0.021510124,0.130134016
1.29,-0.148393989,0.021511078,0.130096614
1.3,0.037591547,-0.071908951,-0.012317777
1.31,0.093648091,-0.086354256,0.240278781
1.32,-0.013637722,-0.088798523,0.481172293
1.33,-0.191651642,-0.021748543,0.41659826
1.34,-0.284305006,0.014225006,0.347852349
1.35,-0.155559629,0.023855209,0.087204322
1.36,-0.153540552,0.02385807,0.090887398
1.37,-0.082540929,-0.028855324,-0.30821842
1.38,-0.022415757,-0.016922951,-0.132264435
1.39,-0.023402572,-0.016946793,-0.132712781
1.4,-0.103917778,0.023763657,0.553244174
1.41,-0.126301944,0.033397675,0.677616239
1.42,-0.12615028,0.033474922,0.672635555
1.43,-0.099558711,0.023932457,0.271648288
1.44,-0.260607898,0.023990631,0.116416171
1.45,-0.310697198,0.02643013,0.21181415
1.46,-0.36320591,0.024072647,0.362887204
1.47,-0.185197145,0.012166977,0.20783852
1.48,-0.02777335,0.021705627,0.005771711
1.49,0.120747373,-0.011945724,-0.12872766
1.5,0.119413063,-0.01212883,-0.118913524
1.51,0.358264566,0.016366005,-0.266900599
1.52,0.132886738,0.023352623,0.002404794
1.53,0.102248445,0.032821655,0.093264341
1.54,0.100371108,0.03273201,0.095970675
1.55,0.005474478,0.02307415,0.262538761
1.56,-0.042963684,-0.08467865,0.293738574
1.57,-0.193234265,-0.194803238,0.217073262
1.58,-0.344497442,-0.18994236,0.162284926
1.59,-0.363104731,-0.208993912,0.133286476
1.6,-0.252242029,-0.218464851,0.17132777
1.61,-0.225567341,-0.194430351,0.067975305
1.62,-0.222259253,-0.194304466,0.067469105
1.63,-0.208633751,-0.050513268,-0.083273768
1.64,-0.134766191,0.014295578,-0.157424972
1.65,-0.166240901,0.024020195,-0.154135212
1.66,-0.12111339,0.03375721,-0.098931283
1.67,0.047125369,0.024285316,-0.08266703
1.68,0.048087806,0.024335861,-0.08425869
1.69,0.011755735,0.024360657,0.178352311
1.7,0.046996057,0.115376473,0.382018387
1.71,0.045431286,0.115365982,0.377725661
1.72,0.062769115,0.048304558,0.425239474
1.73,-0.018989652,-0.033164024,0.377331257
1.74,-0.20063442,-0.107415199,0.428926349
1.75,-0.314021409,-0.066684723,0.424169511
1.76,-0.160120159,0.019568443,0.28691265
1.77,-0.114034623,-0.009120941,0.010712981
1.78,-0.039600939,-0.025912285,-0.128391773
1.79,0.097946286,-0.05711937,-0.042093314
1.8,0.044191688,0.012199402,0.347988784
1.81,0.061194301,0.031252861,0.613582134
1.82,0.120427355,0.04314518,0.701524615
1.83,0.041452676,0.045516968,0.605130196
1.84,-0.062106907,0.023963928,0.471672356
1.85,-0.020044595,5.72205E-05,0.323562384
1.86,-0.032334358,-0.100485802,0.214134261
1.87,-0.029334545,-0.12681675,0.109480009
1.88,-0.13060391,-0.088480949,0.052216083
1.89,-0.106890231,-0.114829063,-0.07527335
1.9,-0.090469241,-0.110063553,-0.128974021
1.91,-0.131504566,-0.052634239,-0.042714305
1.92,-0.024557084,-0.02394104,-0.065714359
1.93,0.00476107,0.01431179,0.003962621
1.94,-0.030841351,0.026262283,0.158503115
1.95,-0.033192098,0.059750557,0.220695764
1.96,-0.040314257,0.033382416,0.267894387
1.97,-0.040573478,0.033370972,0.269072771
1.98,-0.047814906,0.023768425,0.251274645
1.99,-0.133715957,0.023765564,0.309512913
2,-0.178488702,-0.014528275,0.252933502
2.01,-0.141676277,-0.112688065,0.060487211
2.02,-0.14076981,-0.112689972,0.062884331
2.03,-0.13420549,-0.153354645,-0.009149738
2.04,-0.037638545,-0.143773079,-0.028738901
2.05,-0.10376069,-0.07910347,-0.002956651
2.06,-0.126110464,0.014295578,0.068434298
2.07,-0.128708512,0.023940086,0.180058539
2.08,-0.078622878,0.026414871,0.24817434
2.09,-0.024140626,0.024065018,0.241918579
2.1,-0.073134571,0.024085999,0.145781606
2.11,-0.073745042,0.062444687,0.054828301
2.12,-0.054977864,0.026567459,0.146570548
2.13,0.006011337,-0.062011719,0.176127136
2.14,0.063268632,-0.1434412,0.388389826
2.15,0.102286875,-0.126719475,0.659060419
2.16,0.038117021,-0.172236443,0.632766247
2.17,0.058546275,-0.100404739,0.251914769
2.18,0.053377807,-0.105187416,-0.103962921
2.19,-0.02092728,-0.105217934,-0.156883702
2.2,-0.037831575,-0.014259338,0.135490134
2.21,-0.077560961,0.028795242,0.574902117
2.22,-0.079123229,0.028784752,0.570795834
2.23,0.01537469,0.024006844,0.63013792
2.24,-0.195512086,0.024044991,0.372019351
2.25,-0.252478749,-0.026102066,0.181701422
2.26,-0.139680713,-0.066656113,-0.069708616
2.27,-0.173217416,-0.102458954,-0.092381351
2.28,-0.060911208,-0.274754524,-0.097226232
2.29,0.063975632,-0.291499138,-0.070711732
2.3,0.112795353,-0.22207737,0.062220603
2.31,0.057904124,-0.147888184,0.2101143
2.32,0.045717359,-0.076085091,0.257577688
2.33,-0.069163561,-0.02341938,0.216381013
2.34,-0.068855226,-0.023436546,0.218560696
2.35,-0.082731038,-0.009069443,0.041878805
2.36,-0.123234391,0.024437904,0.061236352
2.37,-0.218827426,0.038801193,0.13989839
2.38,-0.218892157,0.038777351,0.141143411
2.39,-0.118963301,0.024382591,0.152420878
2.4,-0.021658868,-0.021155357,0.084974878
2.41,-0.053715438,-0.069094658,0.093566976
2.42,-0.098044574,-0.038013458,0.153138027
2.43,-0.033178568,-0.057234764,0.403674722
2.44,-0.003858745,-0.054893494,0.432385027
2.45,-0.005530745,-0.054938316,0.430324018
2.46,-0.03787902,-0.062166214,0.199547768
2.47,-0.038378179,-0.062192917,0.199920684
2.48,-0.067280024,-0.155565262,0.016481549
2.49,-0.020350784,-0.131674767,-0.017503649
2.5,-0.072193146,-0.124555588,0.103622288
2.51,-0.200314432,-0.0408144,0.147425354
2.52,-0.253110498,0.023822784,0.071438082
2.53,-0.161422551,0.023844719,-0.019969385
2.54,0.008190304,-0.174923897,-0.112628385
2.55,0.005528539,-0.175033569,-0.110655621
2.56,0.00011012,-0.203868866,0.081144795
2.57,0.002147019,-0.156020165,0.836028934
2.58,0.000313371,-0.156042099,0.82955128
2.59,0.001459569,-0.132119179,-0.128874004
2.6,-0.000104189,-0.132199287,-0.125965998
2.61,0.069780439,-0.141952515,-0.497557402
2.62,-0.069971293,0.03027153,0.434704125
2.63,-0.016373485,0.10196209,0.801690757
2.64,-0.022718459,0.101854324,0.791587889
2.65,-0.08309412,0.094585419,0.350369304
2.66,-0.087307334,0.094484329,0.345945656
2.67,-0.073989362,0.056079865,0.077447258
2.68,-0.019852251,0.000887871,0.214386791
2.69,0.055689231,-0.092593193,0.298368752
2.7,0.06694667,-0.107050896,0.226990596
2.71,-0.05085364,-0.090398788,0.173554853
2.72,-0.066690803,-0.076112747,0.078816064
2.73,-0.067779183,-0.076201439,0.084123522
2.74,-0.019315243,0.009872437,-0.038547613
2.75,-0.018623114,0.040899277,0.118439697
2.76,0.027353197,0.043188095,0.128145829
2.77,-0.063468426,0.021538734,0.130734026
2.78,-0.108041704,-9.05991E-05,0.114379033
2.79,-0.157049358,-0.062421799,0.017306671
2.8,-0.222477138,-0.067275047,0.019150108
2.81,-0.328116208,-0.017033577,0.01332498
2.82,-0.318208724,-0.062540054,0.061928127
2.83,-0.209833711,-0.062533379,-0.038787048
2.84,-0.133257985,-0.021852493,-0.087284103
2.85,-0.071421862,-0.02188015,-0.082085878
2.86,-0.07928887,0.021199226,0.055716999
2.87,-0.013242573,0.052290916,0.234967306
2.88,0.038228527,0.07140255,0.36274305
2.89,-0.027394652,0.085762024,0.442217112
2.9,0.001379013,0.092959404,0.362017751
2.91,0.003658444,0.021116257,0.256891727
2.92,-0.099138856,0.013931274,0.054971803
2.93,-0.227016747,0.021146774,-0.092833847
2.94,-0.188624442,0.021194458,-0.198116601
2.95,-0.079357773,-0.026659012,-0.07318835
2.96,0.092007115,-0.093720436,0.388172448
2.97,0.008302957,-0.184770584,0.530340731
2.98,-0.091377646,-0.189598084,0.573167682
2.99,-0.091573328,-0.189590454,0.570592284
3,-0.045710772,-0.151285172,-0.090968117
3.01,-0.154989958,-0.050692558,-0.501749456
3.02,-0.094924808,0.064221382,-0.273210883
3.03,-0.096345484,0.06417942,-0.274053186
3.04,-0.112685978,0.128799439,0.77599901
3.05,-0.071617156,0.064108849,0.659271896
3.06,-0.094795287,0.068861961,0.256824613
3.07,-0.15191859,0.064078331,-0.010038286
3.08,-0.150164276,0.064116478,-0.005536299
3.09,-0.183686107,0.016279221,0.048012048
3.1,-0.028183401,-0.062677383,0.256913513
3.11,0.076043084,-0.120107651,0.280788899
3.12,0.071496516,-0.081809998,0.153598756
3.13,0.072007388,-0.081801414,0.159668446
3.14,-0.023052245,-0.033900261,0.070906453
3.15,0.051007792,0.01877594,0.065515623
3.16,-0.017118663,0.021149635,0.122133374
3.17,-0.08999598,0.021122932,0.129909337
3.18,-0.112460852,0.021111488,0.144378305
3.19,-0.146772742,0.013912201,0.067896381
3.2,-0.183407426,-0.022004128,-0.008451674
3.21,-0.183866292,-0.022007942,-0.003335938
3.22,-0.246196747,-0.079460144,-0.017415904
3.23,-0.211035341,-0.153681755,-0.004484233
3.24,-0.094764084,-0.165678024,0.088176951
3.25,0.001885206,-0.180069923,0.179065868
3.26,-2.45571E-05,-0.180148125,0.177580595
3.27,-0.118424237,-0.031748772,0.354392856
3.28,-0.101921052,-0.03414917,0.312415421
3.29,-0.102272928,-0.034182549,0.309628427
3.3,-0.061783761,0.020875931,0.276180536
3.31,-0.050166607,0.020870209,0.167052269
3.32,-0.022010922,0.008886337,0.03497728
3.33,-0.025533021,0.013629913,0.040206559
3.34,-0.107910544,0.035160065,-0.038395345
3.35,-0.108462781,0.035146713,-0.03693229
3.36,-0.092136592,0.025574684,0.218711436
3.37,-0.052050292,0.020765305,0.633431852
3.38,-0.043863624,-0.089425087,0.710340381
3.39,0.031189874,-0.15650177,0.45313251
3.4,0.030398265,-0.156533241,0.452909797
3.41,0.021423087,-0.106240273,0.185367674
3.42,-0.056679487,-0.149301529,-0.040767994
3.43,0.010922372,-0.12772274,-0.289281637
3.44,0.012168199,-0.120573044,-0.011247735
3.45,-0.022028297,-0.063189507,0.470450491
3.46,-0.090620548,-0.027403831,0.637298822
3.47,-0.07982707,-0.005972862,0.429905564
3.48,-0.082819819,-0.006064415,0.423559427
3.49,-0.099611521,0.020208359,0.049448214
3.5,-0.137215942,0.020159721,0.178027108
3.51,-0.023261368,-0.066050529,0.261542648
3.52,0.107078195,-0.063695908,0.207299665
3.53,0.069258392,-0.030213356,0.11840339
3.54,0.06767872,-0.030251503,0.121538185
3.55,-0.048311338,0.020011902,0.06301979
3.56,-0.011304647,0.017591476,0.1746241
3.57,0.010997623,-0.011163712,0.225530401
3.58,-0.014558837,-0.020783424,0.225913182
3.59,-0.016212001,-0.020807266,0.228099302
3.6,-0.087070033,0.019850731,0.148339972
3.61,-0.110571072,-0.052008629,0.006686639
3.62,-0.112578332,-0.052050591,0.009328678
3.63,-0.207037732,-0.085587502,0.048924774
3.64,-0.229327247,-0.119117737,0.173372716
3.65,-0.203389585,-0.176589966,0.191837758
3.66,-0.203321055,-0.176593781,0.190796137
3.67,-0.067046717,-0.140680313,0.009037584
3.68,-0.050713345,-0.090407372,-0.038563833
3.69,-0.051179931,0.019706726,0.331073999
3.7,-0.051304445,0.01968956,0.327893019
3.71,0.025439337,0.050802231,0.449225485
3.72,0.061054915,0.031650543,0.243862107
3.73,0.070381984,0.046007156,0.064967781
3.74,0.070210278,0.046010971,0.067223459
3.75,-0.020962998,0.000516891,0.050141972
3.76,-0.104300126,0.019684792,-0.022587094
3.77,-0.103126839,0.019730568,-0.019635845
3.78,-0.061699077,-0.025731087,0.18936041
3.79,0.037085056,-0.116697311,0.380084574
3.8,0.036734343,-0.116701126,0.380491972
3.81,-0.104233846,-0.190917969,0.258682668
3.82,-0.132006392,-0.169342041,0.263190627
3.83,-0.063944221,-0.037639618,0.195700273
3.84,-0.106085464,-0.059158325,-0.012440894
3.85,-0.088331133,-0.056742668,-0.005671982
3.86,-0.089002177,-0.056758881,-0.006210912
3.87,-0.181052536,0.019812584,0.306662321
3.88,-0.215003297,0.019798279,0.25521943
3.89,-0.217292085,0.01978302,0.106482796
3.9,-0.120231494,0.019822121,0.010960808
3.91,-0.118472084,0.019860268,0.012935324
3.92,-0.175305367,0.019954681,0.03784655
3.93,-0.250022948,-0.068515778,0.19911103
3.94,-0.114209071,-0.121084213,0.089378223
3.95,-0.110901564,-0.120981216,0.09304142
3.96,-0.086920157,-0.104135513,-0.041520346
3.97,-0.054284617,-0.113642693,0.007433001
3.98,-0.041741014,-0.034608841,0.071607225
3.99,-0.022534639,0.020452499,0.098203771
4,-0.023101643,0.020441055,0.098299049
4.01,0.026150256,0.082660675,0.069211781
4.02,0.025136411,0.082645416,0.070517018
4.03,-0.173852027,0.125756264,0.103879549
4.04,-0.17295903,0.125794411,0.106791057
4.05,-0.149975106,-0.010622025,0.072235875
4.06,-0.148504883,-0.01055336,0.076827295
4.07,-0.163605928,-0.034409523,0.045615651
4.08,-0.226215184,-0.08221817,0.04186105
4.09,-0.07604301,-0.072576523,0.034979764
4.1,-0.075258315,-0.072538376,0.037149508
4.11,-0.055350363,-0.04138279,0.210402966
4.12,0.019033492,-0.05095005,0.241287723
4.13,0.037994057,0.020868301,0.19912608
4.14,0.020852163,0.020842552,0.20040217
4.15,-0.086674958,0.020827293,0.110815629
4.16,-0.086151361,0.020857811,0.111188561
4.17,-0.21450901,0.020885468,-0.072114371
4.18,-0.212646157,0.020968437,-0.069503307
4.19,-0.146294504,0.021036148,0.041305456
4.2,0.058241174,0.001937866,0.231276691
4.21,0.074611664,-0.127334595,0.408309758
4.22,-0.086377144,-0.124958038,0.194215596
4.23,-0.207659394,-0.069826126,0.309313119
4.24,-0.111139983,0.021248817,0.404588968
4.25,-0.188853324,0.021389008,0.160147816
4.26,-0.005723119,-0.141279221,-0.23256366
4.27,0.103114337,-0.165119171,-0.113431156
4.28,0.015440166,-0.13399601,0.219784468
4.29,0.012277305,-0.134160042,0.214453638
4.3,-0.089529842,-0.064885139,0.409172773
4.31,-0.092282653,-0.065019608,0.404052973
4.32,-0.454177499,0.10973835,-0.239519969
4.33,-0.452379346,0.109794617,-0.237241507
4.34,-0.5251441,0.200946808,-0.493564695
4.35,-0.276618421,0.131671906,0.060770039
4.36,-0.271881729,0.13184166,0.063944578
4.37,0.052972585,-0.004478455,0.21836701
4.38,0.056462914,-0.00428772,0.224869221
4.39,0.083880499,-0.109440804,0.137256414
4.4,0.087195322,-0.226542473,-0.029739812
4.41,0.093517378,-0.252753258,-0.079265118
4.42,0.093308851,-0.252727509,-0.076748759
4.43,0.008105636,-0.192936897,0.161413238
4.44,0.006431848,-0.19303894,0.157323331
4.45,-0.172358811,-0.044719696,0.274143755
4.46,-0.257248551,-0.087920189,0.223021269
4.47,-0.451092422,-0.097555161,0.076949611
4.48,-0.630976856,-0.013752937,-0.156189293
4.49,-0.683936775,0.036650658,-0.383198738
4.5,-0.610310793,0.120654106,-0.476077437
4.51,-0.534583926,0.264615059,-0.389761478
4.52,-0.52854526,0.353586197,-0.209770665
4.53,-0.369855791,0.337281227,0.063305184
4.54,-0.260974556,0.162982941,0.143947065
4.55,-0.28545174,0.062942505,0.217503741
4.56,-0.33496666,-0.159133911,0.216851339
4.57,-0.326009512,-0.527199745,0.086280331
4.58,-0.476691335,-0.753978729,0.007154703
4.59,-0.640547037,-0.892104149,-0.343021363
4.6,-0.620624185,-0.891272545,-0.347805679
4.61,-0.543087602,-0.914366722,-0.48901391
4.62,-0.668342769,-1.014032364,-0.458198369
4.63,-0.734948158,-1.060970306,-0.094326057
4.64,-0.803578079,-1.093490601,-0.045795687
4.65,-0.822520316,-1.094706535,-0.165003598
4.66,-0.828894854,-1.07646656,-0.368576378
4.67,-0.754003048,-1.263833046,-0.720125318
4.68,-0.627828777,-1.357614517,-0.664553046
4.69,-0.63081789,-1.357518196,-0.718022227
4.7,-0.345771432,-1.53442955,-0.091747873
4.71,-0.193158448,-1.617684364,0.192556948
4.72,-0.209114015,-1.616577148,0.112642288
4.73,-0.646737456,-1.425479889,0.566200376
4.74,-0.794307768,-1.28853035,0.584156513
4.75,-0.844581485,-1.11251545,0.661818266
4.76,-0.873601139,-0.832778931,0.706318498
4.77,-0.790171802,-0.454151154,0.751966655
4.78,-0.72226727,0.008872032,0.600622535
4.79,-0.741691828,0.371850014,0.513452053
4.8,-0.762492061,0.378560066,0.43305105
4.81,-0.45094946,1.338307381,0.218239069
4.82,-0.475314528,1.345291138,0.146200895
4.83,-0.458601326,2.436974525,0.296285868
4.84,-0.412667692,2.743073463,0.44326973
4.85,-0.393902361,2.756501198,0.727365255
4.86,-0.159323067,2.244693756,1.162204504
4.87,0.200188458,1.412181854,1.160877109
4.88,0.573557377,0.661218643,0.623755455
4.89,1.017042398,0.08526516,0.013914943
4.9,1.858318806,-0.276412964,-0.654285848
4.91,2.712799788,-0.264930725,-1.21026957
4.92,3.064248323,0.049184799,-1.358210564
4.93,2.787958622,0.474802971,-0.629346132
4.94,2.748105288,0.475857735,-0.643285751
4.95,2.597405434,1.502879143,1.474821568
4.96,2.544675827,1.505142212,1.454543352
4.97,1.422191262,1.525512695,1.477352381
4.98,0.780540168,1.070874214,0.646365643
4.99,0.072838224,0.659433365,-0.512038231
5,-0.579497278,0.095002174,-2.019675255
5.01,-1.06224978,-0.214708328,-3.083314419
5.02,-1.228646874,-0.522175789,-3.630125999
5.03,-1.125848651,-0.893766403,-3.540794373
5.04,-1.13177526,-0.900044441,-3.483914137
5.05,-0.767061591,-1.130286217,-2.603643179
5.06,-0.214357257,-1.268198013,-1.363136411
5.07,-0.059625618,-1.139509201,-0.03425467
5.08,0.541504502,-1.053458214,-0.210359752
5.09,0.943962634,-1.082092285,-0.555683255
5.1,1.196691155,-1.138827324,-0.447313726
5.11,1.197401643,-1.139753342,-0.145844162
5.12,1.188570738,-1.140015602,-0.141429842
5.13,0.960727453,-1.226193428,0.022274017
5.14,0.51275456,-1.441766739,-0.349263609
5.15,0.166603878,-1.672006607,-1.687113881
5.16,-0.104422569,-1.777908325,-2.111136913
5.17,-0.105677694,-1.778637886,-2.102367401
5.18,-0.252212584,-1.774510384,-1.670593262
5.19,0.065158337,-1.734240532,-1.29181397
5.2,0.062805504,-1.734462738,-1.288574576
5.21,0.225964338,-1.588517189,-1.186198831
5.22,0.281796128,-1.387360573,-1.085918665
5.23,0.361940175,-0.800564766,-1.052072644
5.24,0.363941133,-0.532035828,-1.121168613
5.25,0.25847888,-0.277702332,-1.091678381
5.26,-0.051443994,-0.20037365,-0.87781316
5.27,-0.123828262,-0.184987068,-0.983868122
5.28,-0.118459284,-0.183978081,-0.996411383
5.29,-0.489869177,-0.053887367,-1.806430578
5.3,-0.480931699,-0.053343773,-1.814077377
5.31,-0.630142093,0.097833633,-2.114003181
5.32,-0.548145592,0.660717011,-1.955576539
5.33,-0.265545219,0.97468853,-1.644597173
5.34,0.180575192,1.269831657,-1.353474498
5.35,0.58810705,1.637194633,-0.877095282
5.36,0.848518968,1.993189812,-0.373312652
5.37,0.752326369,2.460014343,0.166735053
5.38,0.578659475,2.745316505,0.681239665
5.39,0.232113138,2.882394791,0.449838758
5.4,0.253610969,2.884946823,0.424908876
5.41,-0.056043595,2.84860611,-0.340723515
5.42,-1.182672739,2.842838287,-1.478368521
5.43,-1.559421897,3.339315414,-1.582414627
5.44,-1.37610054,3.996035576,-1.228102207
5.45,-1.333914638,3.997092247,-1.232163429
5.46,-0.151650712,4.568881989,0.262428403
5.47,-0.118323028,4.572542191,0.236517191
5.48,-0.801367283,4.188010216,3.802095413
5.49,-0.778237462,4.194317818,3.75550127
5.5,-1.178713441,3.79292202,4.410117149
5.51,0.590364099,1.411261559,5.020401955
5.52,1.93114078,-0.059322357,5.5947752
5.53,2.178398848,-1.015162468,5.999724388
5.54,1.584284306,-1.428635597,5.717187881
5.55,0.116193011,-1.186821938,4.333974838
5.56,-1.164798617,-0.978212357,2.785669565
5.57,-1.641797781,-0.697411537,1.735610843
5.58,-1.632386088,-0.692786217,1.709271193
5.59,-2.148527622,0.229884148,1.620342731
5.6,-2.132928848,0.236440659,1.584786892
5.61,-1.054336309,0.85653019,2.049354315
5.62,-0.525853097,1.017338753,2.076441288
5.63,-0.207640156,0.967824936,2.130774498
5.64,-0.208652243,0.976317406,2.0868361
5.65,0.060583144,0.211853027,2.048750877
5.66,0.320359439,-0.521075249,1.750531316
5.67,0.468649864,-1.268239975,1.493061781
5.68,0.455653906,-2.022789001,1.292717457
5.69,0.170395076,-2.704011917,1.143095016
5.7,-0.392971158,-3.007292271,0.971167088
5.71,-0.625658989,-3.480952263,0.536955357
5.72,-0.628226221,-3.48170948,0.540233374
5.73,-0.986481309,-3.785332203,-0.218357682
5.74,-0.670579791,-4.296318054,-2.201771259
5.75,-0.667665839,-4.307186127,-2.151255131
5.76,-0.257391959,-4.461130619,-2.344122887
5.77,-0.263948977,-4.470346928,-2.299516916
5.78,0.375082225,-4.444155216,-1.095160961
5.79,0.904967547,-4.29403019,-0.581925511
5.8,1.004772782,-4.071171761,-0.348189116
5.81,0.984939933,-4.075593948,-0.325550079
5.82,0.674223125,-3.720858574,-0.398158073
5.83,0.072705098,-3.293808937,-0.508833766
5.84,-0.137682885,-2.878064632,-0.498364091
5.85,-0.264831841,-2.359169006,-0.823863804
5.86,-0.493427396,-1.840184212,-1.046676278
5.87,-0.965643048,-1.052942276,-0.800590754
5.88,-1.495570064,-0.462628365,-0.747612119
5.89,-1.900026679,0.166988373,-0.715342879
5.9,-2.075271368,0.756641388,-0.893330574
5.91,-2.043801069,1.277507782,-0.987807155
5.92,-2.006036043,1.268215179,-0.929695129
5.93,-2.099803209,1.486569405,-0.977235854
5.94,-1.801673293,1.54576683,-1.095144987
5.95,-1.173491478,1.784119606,-1.019429088
5.96,-0.675253451,2.108496666,-0.449567378
5.97,-0.613107801,2.671897888,0.979292989
5.98,-1.378099442,2.887164116,1.367655873
5.99,-2.413738728,3.205805779,1.068614841
6,-3.423152208,3.398860931,0.488533616
6.01,-3.407402039,3.395961761,0.511110783
6.02,-1.943618178,4.221630096,-1.065688252
6.03,-1.922367096,4.214632988,-1.00820291
6.04,2.066242456,3.973114967,0.57889688
6.05,2.058146477,3.968711853,0.615335941
6.06,2.61399579,3.932655334,2.383267403
6.07,2.65188694,3.569894791,4.091874123
6.08,3.711112738,1.6977911,6.395098209
6.09,4.188446045,0.320541382,6.033100128
6.1,4.418316364,-0.771039009,5.280609608
6.11,4.374069691,-0.767484665,5.250201702
6.12,2.347598076,-0.967048645,1.445411205
6.13,1.138295174,-0.601527214,0.043207049
6.14,0.745196581,0.140117645,-0.416582227
6.15,0.721705437,0.750537872,-0.24456811
6.16,0.710057139,0.755526543,-0.280278325
6.17,0.423052579,1.272327423,0.119089007
6.18,-1.019257784,2.542125702,1.373814821
6.19,-1.635175228,2.688048363,1.638935089
6.2,-1.609969258,2.689139366,1.629821181
6.21,-2.004242182,2.392239571,1.623922825
6.22,-1.658316612,-0.149323463,1.559943914
6.23,-1.081502795,-1.714817047,1.188409448
6.24,-0.387074053,-3.288414001,0.254042506
6.25,0.033074953,-4.556602001,-0.791763663
6.26,0.059602164,-4.561160564,-0.75708282
6.27,0.149440557,-5.624204159,-2.320974827
6.28,0.386931241,-5.794893265,-2.139032602
6.29,0.408796579,-5.796174049,-2.126363039
6.3,0.460206151,-5.659197807,-0.437685549
6.31,0.475023329,-5.657776833,-0.446681321
6.32,0.902821183,-4.798900604,0.614248157
6.33,0.626465082,-4.390686512,0.441593528
6.34,0.637993336,-4.390161991,0.439430833
6.35,0.385638833,-3.609917164,-1.007166743
6.36,0.286194563,-3.20866251,-1.385539055
6.37,-0.052920789,-2.860164165,-1.894646049
6.38,-0.043596178,-2.861184597,-1.884710908
6.39,-0.121916443,-1.715296745,-2.458200932
6.4,0.001633793,-0.967345238,-2.068446398
6.41,0.219535112,-0.186061859,-1.275178909
6.42,0.231113732,0.449448586,-0.144119978
6.43,0.26918602,0.886984825,0.888073087
6.44,0.009159237,1.265130043,1.402424574
6.45,-0.135636777,1.424362183,0.863382936
6.46,-0.126078844,1.422020912,0.88544333
6.47,-0.037523955,1.753904343,-1.384634256
6.48,0.005446404,2.085338593,-2.407031059
6.49,-0.100940794,2.422052383,-2.640428782
6.5,-0.092903316,2.41973877,-2.616230726
6.51,-0.358274221,2.818484306,-2.057416916
6.52,-0.765631199,3.218344688,-1.221350908
6.53,-0.75224483,3.219525337,-1.228327274
6.54,-0.592170835,3.913658142,0.062868357
6.55,0.929484665,5.273859024,1.866420269
6.56,0.428109765,5.506793976,3.042427063
6.57,0.447767079,5.510537148,3.016011477
6.58,-1.437112689,4.499604225,6.406803608
6.59,-1.519381523,3.078701019,7.328072548
6.6,-1.506217003,3.081620216,7.308758259
6.61,-1.209793925,1.472337723,6.84513998
6.62,-0.410822183,0.067575455,5.055069447
6.63,-0.100696653,-1.014988899,1.304342508
6.64,-0.102646202,-1.015534401,1.307975888
6.65,-0.340855271,0.086799622,-0.350410879
6.66,-0.672634482,1.130503654,-0.549461186
6.67,-1.861846328,2.315872192,0.061254382
6.68,-2.597408772,3.217419624,1.152237296
6.69,-2.796671391,3.363862991,2.22244215
6.7,-2.792269468,3.369729996,2.181016445
6.71,-1.594988227,2.278470993,3.733993292
6.72,-1.592691183,2.28264904,3.70579648
6.73,-0.810527802,1.001645088,3.493417263
6.74,0.060884535,-0.472628593,2.757572174
6.75,1.03605032,-2.805432796,0.63404429
6.76,0.959385514,-3.820074558,-0.491886377
6.77,1.101873398,-4.629088879,-1.149807334
6.78,0.965705097,-5.155576229,-1.41223073
6.79,0.55208385,-5.504772663,-1.448775291
6.8,0.605624795,-5.638379574,-1.382921219
6.81,0.694871306,-5.693277359,-1.123323202
6.82,0.663691878,-5.696200371,-1.10898304
6.83,0.279410452,-5.062667847,-0.48446554
6.84,0.434504569,-4.757522106,-0.337424696
6.85,0.561098278,-4.579589844,-0.555891991
6.86,0.451592565,-4.356581688,-0.9375664
6.87,0.229410172,-4.148050785,-1.182700515
6.88,0.011430763,-3.845730305,-1.408007622
6.89,-0.315870673,-3.420843124,-1.604364157
6.9,-0.824588537,-2.978948593,-1.559969187
6.91,-0.832989395,-2.982357025,-1.53145504
6.92,-1.192709684,-2.080907345,-1.461973548
6.93,-1.345812082,-1.431405067,-1.632687807
6.94,-1.38037467,-0.600531578,-1.673453093
6.95,-1.086340547,0.191969872,-1.380402684
6.96,-0.807844997,0.922571182,-0.982575774
6.97,-0.649568975,1.648908615,-0.40350163
6.98,-0.507982373,2.10550499,0.364979804
6.99,-0.153571829,2.505435944,0.868302226
7,-0.146155551,2.877126694,0.922484219
7.01,-0.146023601,2.875565529,0.942241073
7.02,-0.792391121,3.264588356,0.711952388
7.03,-3.118603706,3.886172295,-1.169606566
7.04,-3.113579988,3.885466576,-1.158755541
7.05,-4.47336483,4.423112869,-2.801629066
7.06,-3.065316439,5.664213181,-1.229486942
7.07,-0.580292463,6.550479889,0.237718821
7.08,1.5559057,6.768152237,0.753598809
7.09,1.554727554,6.765117645,0.806572259
7.1,3.155426979,6.870084763,1.118397117
7.11,3.690760851,6.552419662,2.425412416
7.12,2.402428389,3.912947655,6.781279564
7.13,2.382232428,3.912133217,6.78993845
7.14,2.806100368,-0.369515419,5.959828854
7.15,3.195122719,-2.164923191,4.284204006
7.16,3.913166046,-2.973114014,1.695646524
7.17,1.807067037,-2.129022121,-1.204371691
7.18,0.098953418,-1.208591461,-2.667670488
7.19,-0.643422067,0.142634392,-2.529830217
7.2,-0.624662995,1.072471619,-1.714152575
7.21,-0.611252606,1.073760986,-1.735741854
7.22,0.001487462,1.66499424,0.160391569
7.23,0.713103354,1.337353706,1.425582409
7.24,0.912275851,0.710895538,2.526182652
7.25,0.79207617,-0.277036667,3.286369324
7.26,0.457717538,-1.423122406,3.394866943
7.27,0.216742769,-2.710987091,2.486685276
7.28,0.061595894,-3.739689827,1.164807558
7.29,-0.199681237,-4.721618176,-0.227780223
7.3,-0.357741445,-5.436375618,-1.26347816
7.31,-0.335449368,-5.438254356,-1.239490509
7.32,-0.521817446,-5.818502426,-1.727628827
7.33,-0.274945378,-6.207932949,-1.200969696
7.34,-0.019362882,-6.05302906,-0.782484114
7.35,-0.080708891,-5.670286655,-0.40431875
7.36,-0.055657879,-5.670306683,-0.397957385
7.37,-0.083867803,-4.43956995,-0.430602968
7.38,-0.197498277,-3.847991467,-0.660087585
7.39,-0.158679128,-3.134215355,-0.863684058
7.4,-0.137214035,-3.133875847,-0.860082209
7.41,0.026480734,-2.56614542,-1.140684843
7.42,0.091933534,-1.569854736,-1.492390871
7.43,0.036735892,-0.906509399,-1.430027127
7.44,0.127461851,-0.394002914,-1.192323685
7.45,0.31225422,-0.003708839,-0.975076854
7.46,0.459914923,0.324221611,-0.708189786
7.47,0.451521456,0.757415772,-0.463775963
7.48,0.501539707,1.147449493,-0.396742582
7.49,0.484561712,1.633011818,-0.806105077
7.5,0.417126656,2.28104496,-1.477033615
7.51,0.147801101,2.830591202,-2.00252533
7.52,-0.068017811,3.428073883,-2.17066288
7.53,-0.127288193,3.793484688,-1.824617267
7.54,-0.11614883,3.792961121,-1.80176425
7.55,-0.483136952,3.922174454,-0.721863151
7.56,-0.472129941,3.922310829,-0.711590171
7.57,0.152595162,4.743824005,-0.160606653
7.58,0.163263679,4.744440079,-0.160918802
7.59,-0.018137991,5.250476837,0.164167196
7.6,-0.120756149,5.05779171,1.773228288
7.61,-0.523789823,4.118660927,3.688017845
7.62,-0.845057488,2.588505745,5.139657021
7.63,-0.842605591,2.590373039,5.107458591
7.64,-0.700331211,0.238682747,5.699819565
7.65,-0.706821561,0.240642548,5.660962105
7.66,0.703077138,-1.175370216,3.992420197
7.67,0.231158733,-0.80578804,2.829518795
7.68,-0.590055704,-0.103750229,1.882811069
7.69,-0.828367591,0.748979569,0.594137371
7.7,-0.831952095,0.748971939,0.591532767
7.71,-1.271768093,1.895606995,-0.691030562
7.72,-2.700040579,3.446767807,-1.05803895
7.73,-4.076581955,3.46896553,0.620894849
7.74,-3.841631174,3.014000893,1.830643177
7.75,-2.060946703,1.366769791,2.358104229
7.76,-0.386991918,-0.075306892,1.863255739
7.77,0.657864213,-1.518501282,0.932997942
7.78,0.953869343,-2.529326439,0.256454647
7.79,0.901923597,-3.353882313,-0.13027513
7.8,0.839054227,-4.132732868,-0.253703713
7.81,1.008563757,-4.760578632,-0.407144278
7.82,1.054332972,-5.326122284,-0.434486568
7.83,0.581633806,-5.297833443,-0.029655874
7.84,0.536575437,-5.283907413,0.098528564
7.85,0.567462623,-5.256017208,0.001970708
7.86,0.51171279,-5.202583313,-0.115865827
7.87,0.4919011,-5.233107567,-0.369965673
7.88,0.384614915,-5.153634548,-0.914253354
7.89,0.134358615,-4.865975857,-1.33761549
7.9,0.142680049,-4.530322075,-1.631243706
7.91,0.124275282,-4.07211256,-1.684014559
7.92,0.288350731,-3.484473228,-1.614407063
7.93,-0.083631426,-2.741184235,-1.53887248
7.94,-0.428214937,-2.002779961,-1.288351893
7.95,-0.442482978,-2.004053116,-1.275568485
7.96,-0.591984689,-1.171779633,-0.58029902
7.97,-1.38197279,-0.372898102,-0.06999445
7.98,-1.375868797,-0.373796463,-0.05342263
7.99,-1.556607485,0.053805351,-0.481520891
8,-1.103128195,0.814146042,-0.776297331
8.01,-0.9037745,1.217448235,-1.345120788
8.02,-0.812876225,2.003558159,-1.451793432
8.03,-1.036930561,2.610245705,-0.73472029
8.04,-1.024402618,2.609149933,-0.70262599
8.05,-1.363209724,3.226038933,-0.43781209
8.06,-1.540815115,3.00036335,-0.802208781
8.07,-1.544551134,3.000200272,-0.801580429
8.08,-2.10723114,2.97160244,-1.135366559
8.09,-3.485826492,3.637516975,-0.956719577
8.1,-2.531065941,4.633765221,0.107152909
8.11,0.044426203,5.05967617,0.623556674
8.12,2.253588915,5.319469452,0.507376909
8.13,2.252264738,5.317730904,0.563287556
8.14,3.258638144,4.895083427,1.995337605
8.15,2.688954353,4.152122498,3.160183907
8.16,2.464542866,2.839486122,3.834692478
8.17,2.732224464,1.792550087,4.293765068
8.18,2.76148057,0.597064972,4.483616829
8.19,2.648495436,-0.50007534,3.441761017
8.2,2.614724636,-0.500434876,3.411267757
8.21,1.915153265,-0.641937256,-0.61439544
8.22,1.308651567,-0.196675301,-1.603306413
8.23,1.41818893,0.33261776,-1.178002834
8.24,1.328731775,0.982151985,-0.338909
8.25,0.925292134,1.770950317,0.073649764
8.26,0.317813277,2.227330208,0.365118921
8.27,-0.498558015,2.387310028,0.878995597
8.28,-0.498217106,2.389895439,0.826680899
8.29,-1.673621655,0.688153267,2.587747097
8.3,-1.550044537,-0.44417572,2.569071293
8.31,-1.190105438,-1.941227913,1.490769148
8.32,-0.854494929,-3.247799873,0.387979686
8.33,-0.84250629,-3.247823715,0.39163059
8.34,-0.540222526,-4.287252903,-0.431865722
8.35,-0.082552746,-5.843816757,-1.63069272
8.36,0.296898544,-6.018149376,-1.494638801
8.37,0.313992977,-6.01713562,-1.503853798
8.38,0.403867364,-5.546189785,0.072491467
8.39,0.341070801,-4.998238087,0.426882267
8.4,0.48036623,-4.533957481,0.587216318
8.41,0.659421325,-4.10326004,0.555357635
8.42,0.621499121,-3.855112553,-0.37328738
8.43,0.530572534,-3.550182343,-1.409441829
8.44,0.54928577,-3.549786568,-1.404614925
8.45,0.456949621,-3.195301056,-2.206984043
8.46,0.252271414,-2.168369293,-2.324451208
8.47,0.470871836,-1.694838524,-1.824130535
8.48,0.501177073,-1.049255371,-1.067707181
8.49,0.531370282,-0.310245514,-0.376347303
8.5,0.531602979,-0.310897827,-0.366707325
8.51,0.554833293,0.177034378,0.288394868
8.52,0.320695609,1.12695694,0.479182482
8.53,-0.130296618,1.571256638,-0.134711772
8.54,-0.123120785,1.569871902,-0.107151538
8.55,-0.404597193,2.432588577,-1.750830412
8.56,-0.399514049,2.431014061,-1.717990875
8.57,-0.445694745,2.810350418,-2.485568285
8.58,-0.44499886,2.809142113,-2.460546732
8.59,-0.61983788,2.983216286,-1.47826314
8.6,-0.615186632,3.57184124,-0.419264317
8.61,0.218144894,4.479075432,1.000109196
8.62,0.495195925,4.929079056,1.387592077
8.63,0.256563425,5.166090965,1.52605176
8.64,0.250297606,5.166341782,1.515397668
8.65,-1.295174599,4.120975494,3.714396954
8.66,-1.713320732,2.8462677,5.148588181
8.67,-1.701315641,2.847967148,5.127117157
8.68,-0.384278357,-0.480672836,4.351299763
8.69,0.527623534,-1.424975395,2.848689079
8.7,0.726030946,-1.177384377,1.892358303
8.71,0.719856262,-1.17616272,1.868421555
8.72,-0.402712673,0.530112267,1.15203321
8.73,-0.40520224,0.531618118,1.128355384
8.74,-1.003578424,2.857146263,-0.416213393
8.75,-2.188016653,4.023943901,0.108525693
8.76,-3.376828671,4.582428932,1.573937297
8.77,-3.974081039,4.611703873,2.579096556
8.78,-2.59064889,3.590687752,2.392557621
8.79,-0.749963284,2.141498566,1.932423353
8.8,0.404692531,0.523984909,1.423038244
8.81,0.378412724,0.521557808,1.429147124
8.82,1.440856695,-2.088915825,-0.500824571
8.83,1.421025515,-2.819868088,-0.655749619
8.84,1.240332246,-3.521583557,-0.508682013
8.85,1.603527784,-3.992841244,-0.81088382
8.86,1.735115528,-4.547649384,-0.86793834
8.87,1.554303169,-4.78565073,-0.567859352
8.88,0.771807313,-4.807773113,-0.283962667
8.89,0.740305662,-4.808363438,-0.291544497
8.9,0.159801334,-4.75888586,-0.006842613
8.91,-0.102946878,-4.753155708,-0.272278726
8.92,-0.279228836,-4.712206364,-0.441981614
8.93,-0.557530403,-4.698543072,-0.892926812
8.94,-0.730770052,-4.587234974,-1.608821869
8.95,-0.73770678,-4.590916157,-1.569948316
8.96,-0.471122742,-4.24958992,-2.48243475
8.97,-0.425548643,-3.838587761,-2.375263453
8.98,-0.918997049,-3.123365879,-1.957678795
8.99,-0.907377124,-3.125993252,-1.917374253
9,-1.111838579,-1.691821098,-1.369336843
9.01,-1.088091373,-1.693874359,-1.325591803
9.02,-0.513852775,-0.524693489,-0.332841158
9.03,-0.487593204,-0.525953293,-0.292455375
9.04,-0.917215109,0.708469391,-0.641194224
9.05,-0.891166687,0.707519531,-0.597052336
9.06,-0.085253,1.838929176,-1.917328358
9.07,0.42466715,2.467546463,-1.954321623
9.08,0.239319846,3.1729002,-1.089448094
9.09,-0.063167989,3.663110733,-0.362258256
9.1,-1.341887712,3.962290764,0.387845516
9.11,-2.817299128,4.103861809,0.382390857
9.12,-4.300327778,3.886508942,-0.004937232
9.13,-4.753038406,4.016461372,-0.643413901
9.14,-3.224886417,4.905382156,-1.632704973
9.15,-0.113295436,5.305420876,-1.213786483
9.16,1.937735319,5.374197006,-0.763179123
9.17,3.326961279,5.011706352,-0.251691043
9.18,3.132737398,4.273352623,1.739121675
9.19,3.124450207,4.272839546,1.746379137
9.2,2.318057537,2.148726463,5.982557297
9.21,2.384050608,0.69961071,6.379138947
9.22,3.167404652,-0.476835251,5.821785927
9.23,2.78161335,-1.411457062,3.583472967
9.24,1.517479539,-1.000257492,-0.113699958
9.25,0.484532207,-0.440237045,-2.128907919
9.26,0.385028452,0.213587761,-2.361428738
9.27,0.444839507,1.016126633,-1.652879238
9.28,0.623038769,1.723176003,-0.880568981
9.29,0.706690848,2.231626511,-0.340331227
9.3,0.559582233,2.682743073,0.452139676
9.31,0.039300025,2.631310463,1.593002439
9.32,-0.295017362,2.067934036,2.666912794
9.33,-0.704366624,1.088295937,3.483403683
9.34,-0.934529066,-0.056388855,3.460659027
9.35,-0.862895966,-1.448002815,2.329774141
9.36,-0.868941903,-1.446969986,2.308581829
9.37,-0.653657556,-3.850734234,-0.519127429
9.38,-0.63836503,-3.851191998,-0.50136441
9.39,-0.89905107,-5.307374477,-2.000555754
9.4,-0.874723077,-5.307323933,-1.9822644
9.41,-0.354528338,-6.003335953,-1.902649164
9.42,-0.213589281,-5.891937733,-1.208019972
9.43,0.004591227,-5.468656063,-0.252539158
9.44,0.206761986,-4.850901604,0.142298222
9.45,0.35837543,-4.41990757,0.050654709
9.46,0.583822846,-4.015516281,-0.337394267
9.47,0.750108421,-3.60666132,-0.823542118
9.48,0.714427114,-3.193364143,-1.232820153
9.49,0.730066061,-3.192153931,-1.23656106
9.5,0.708144307,-2.592711449,-1.710214257
9.51,0.717952848,-2.592356682,-1.705693483
9.52,1.09621191,-1.704151154,-1.283004999
9.53,0.690330744,-1.031571388,-0.397541285
9.54,0.565823197,-0.348916054,0.402562797
9.55,0.566468954,-0.348670006,0.399274826
9.56,0.506264448,0.446225166,0.233815551
9.57,0.633946538,1.027447701,-0.60377866
9.58,0.332060754,1.943366051,-1.230660677
9.59,0.331830084,1.942156792,-1.210692763
9.6,0.086713016,2.755000114,-1.590615034
9.61,-0.326773405,3.604063988,-1.619136333
9.62,-0.814573586,3.699180603,-1.737893105
9.63,-1.086512804,3.624564171,-1.508614063
9.64,-0.664654732,4.019384384,-0.560999572
9.65,0.214515239,4.754171371,0.885020495
9.66,0.216680318,4.753687859,0.897830248
9.67,0.750674367,5.475999832,0.705391169
9.68,0.533279896,5.71718502,0.831078887
9.69,0.541953445,5.717180252,0.844504714
9.7,-0.202512741,5.052194595,1.731915355
9.71,-1.162610292,2.203809738,3.638395071
9.72,-1.163760185,2.203886032,3.634781599
9.73,0.224070191,-0.523319244,4.806648254
9.74,0.67883414,-1.172138214,4.268547535
9.75,0.427110612,-0.918070793,3.311327934
9.76,0.405547559,-0.917519569,3.275071859
9.77,-1.320541382,0.723557472,1.444211245
9.78,-1.322730303,0.724707604,1.422878027
9.79,-2.068001509,2.590883255,-0.246470064
9.8,-2.47176218,3.238115311,-0.202923656
9.81,-2.454668283,3.239121437,-0.201054335
9.82,-2.263538361,2.943534851,0.573609412
9.83,-2.250243425,2.944704056,0.569705963
9.84,-0.63180393,0.476758957,0.757292509
9.85,-0.637665629,0.476811409,0.750239074
9.86,0.94925344,-2.114232063,0.710226476
9.87,1.774612546,-3.285825729,0.470077395
9.88,1.873498678,-3.921367168,0.293810844
9.89,1.692729473,-4.504146576,0.240618706
9.9,1.374792933,-4.821110249,0.153598547
9.91,0.903418839,-5.044883251,-0.267292678
9.92,0.540722668,-5.000866413,-0.733530939
9.93,0.343135476,-5.00264883,-1.068102479
9.94,0.189156085,-4.889689922,-0.857719898
9.95,0.166079104,-4.891341686,-0.848375201
9.96,-0.018202096,-4.402036667,-0.429767847
9.97,-0.038124651,-4.403547287,-0.418594122
9.98,-0.349366397,-3.784986496,-0.545448422
9.99,-0.309909254,-3.42022562,-0.937719524
10,-0.600767434,-3.045896053,-1.205285549
10.01,-0.81361723,-2.659311771,-1.262696743
10.02,-0.814182401,-2.660419941,-1.24358356
10.03,-1.005422354,-1.902363777,-1.057150364
10.04,-1.150598049,-1.479421616,-1.018366218
10.05,-1.238162518,-1.077916145,-1.190242052
10.06,-1.083183765,-0.429724693,-1.197477102
10.07,-1.061801314,-0.430324554,-1.166032672
10.08,-0.855508924,0.974708557,-0.280228555
10.09,-0.909013629,1.426856041,-0.42452088
10.1,-0.728024483,1.960395813,-0.610285759
10.11,-0.403795332,2.491477966,-0.405091643
10.12,-0.524888098,2.816614151,-0.327677786
10.13,-1.08227849,3.160938263,-0.214523256
10.14,-1.723376989,3.184521675,-0.139208138
10.15,-2.45682621,3.011881828,-0.450317442
10.16,-3.575108051,2.743652344,-1.179650784
10.17,-3.779505253,2.861365318,-1.889607549
10.18,-2.432934999,3.688094139,-1.646381974
10.19,-0.450726688,4.294495583,-0.840741992
10.2,1.768446207,4.689823151,-0.372005671
10.21,2.834929943,5.041556358,0.425351262
10.22,2.861393213,5.185040474,2.124958992
10.23,2.58770895,4.756645203,3.829383612
10.24,2.045777559,3.70561409,4.868488312
10.25,1.858754158,2.268582344,4.791141033
10.26,2.151345968,0.787760735,3.741526842
10.27,2.103815794,-0.583286285,2.22857976
10.28,1.80647862,-1.322236061,0.755999029
10.29,1.414281368,-1.278006554,-0.800580084
10.3,0.557308793,-0.608482361,-1.532940865
10.31,0.39160496,0.025631905,-1.128998995
10.32,0.565366268,0.652848244,-0.243224472
10.33,0.754575133,1.45505619,0.570979834
10.34,0.828358412,1.697196007,1.22101438
10.35,0.677321315,1.735989571,1.771505475
10.36,0.403706789,1.248279572,2.259984732
10.37,-0.151561707,0.428106308,2.184253216
10.38,-0.699594677,-0.415802956,1.286242485
10.39,-0.790832162,-1.628461838,0.202651829
10.4,-0.811938644,-2.822295189,-0.4358432
10.41,-0.759172797,-3.688167572,-0.734945297
10.42,-0.747286737,-3.687316895,-0.744448483
10.43,-0.343955517,-4.984033108,-0.470325381
10.44,-0.024861485,-5.265435219,-0.285272121
10.45,0.16198504,-5.400669098,-0.073946089
10.46,0.2658903,-5.238794804,0.067400575
10.47,0.427631259,-4.940261364,0.06794861
10.48,0.545273304,-4.584235191,-0.145136803
10.49,0.597419739,-4.07499218,-0.371520519
10.5,1.032739878,-3.601780891,-0.073212028
10.51,0.990733922,-3.406498909,-0.475087404
10.52,1.001374722,-3.405360222,-0.485320091
10.53,0.943746805,-2.487428665,-1.20869875
10.54,0.81075573,-1.971839428,-1.198410034
10.55,0.603041112,-1.504346848,-1.4648633
10.56,0.388191819,-0.915036202,-1.328536749
10.57,0.096565664,-0.359406471,-0.610503733
10.58,-0.113068044,-0.050239563,0.136998415
10.59,-0.209898889,0.143989563,0.305661202
10.6,-0.213771999,0.144002914,0.301649034
10.61,0.284249038,0.72275734,-0.939105094
10.62,0.275836498,0.721822739,-0.931363106
10.63,0.351967454,1.372140884,-1.43514955
10.64,0.435871303,3.076086998,-1.27753675
10.65,-0.553632498,3.947038651,-0.599857092
10.66,-0.608490348,4.258234978,-0.708344698
10.67,-0.615927815,4.257985115,-0.710858703
10.68,-0.36989069,4.102086067,-0.608191311
10.69,0.148090303,4.326945305,0.404199362
10.7,0.303704768,4.391512871,1.284409165
10.71,0.3055062,4.391592026,1.284528971
10.72,0.389407307,4.300410271,1.649599552
10.73,0.394903123,4.252625465,1.748775959
10.74,-1.241640806,3.132749557,2.077628136
10.75,-1.54503727,1.87659359,2.64121604
10.76,-1.608536243,0.567949295,3.221881866
10.77,-1.09623456,-0.388854981,3.546791077
10.78,0.127025455,-1.154304504,3.229768276
10.79,0.145864278,-1.144747734,3.092137337
10.8,0.966569543,-1.058603287,2.260027885
10.81,0.910299063,-0.404936791,1.709876299
10.82,0.621578991,0.234512329,1.258937836
10.83,-0.581803083,2.128869057,0.355686545
10.84,-2.114461422,3.144727707,0.182772577
10.85,-3.152583122,3.548177719,0.738284648
10.86,-3.291592121,3.526228905,1.582108974
10.87,-2.780134439,2.748224258,2.156223297
10.88,-1.615803242,1.587050438,1.844002008
10.89,-0.820886076,0.240028381,0.862635016
10.9,-0.553767264,-0.719894409,-0.142363429
10.91,-0.300601482,-1.730613708,-0.877916753
10.92,-0.306929171,-1.731132507,-0.875976145
10.93,0.073235065,-2.66037178,-0.725013375
10.94,0.40855208,-3.661170959,-0.314953685
10.95,0.687660337,-4.312495708,0.032379687
10.96,1.206822634,-4.583188057,0.52050066
10.97,1.309653044,-4.806332588,0.347117066
10.98,1.278446913,-4.807554245,0.346617878
10.99,0.902849019,-4.977077961,-0.256040514
11,0.694111645,-5.135109901,-0.551887155
11.01,0.663647115,-5.195025444,-0.718966723
11.02,0.23607102,-5.068052292,-1.074755073
11.03,0.026952609,-4.804454327,-1.235064507
11.04,-0.198709905,-4.327548504,-1.344341278
11.05,-0.216180101,-4.329305172,-1.328339338
11.06,-0.454357147,-3.181825161,-1.682685614
11.07,-0.822675467,-2.34090519,-1.389846921
11.08,-1.028617978,-1.696374893,-1.25241828
11.09,-1.033407211,-1.698409081,-1.226210594
11.1,-1.291108727,-0.319015503,-0.837186933
11.11,-1.283473969,-0.321035385,-0.805097818
11.12,-1.271889448,0.993697166,0.002110064
11.13,-1.377267838,1.47765255,0.169533253
11.14,-1.350625277,1.475582123,0.219482958
11.15,-1.403173923,2.009804726,-0.181277543
11.16,-1.33849144,2.469993591,-0.910700321
11.17,-1.246605515,2.612119675,-1.363729239
11.18,-0.312786818,2.809739113,-1.127930522
11.19,-0.671219051,2.849645615,-0.794039846
11.2,-1.94251895,2.966579437,-0.553768456
11.21,-1.946076393,2.966669083,-0.561836004
11.22,-3.383513212,2.993524551,-1.158844233
11.23,-4.374143124,2.95841217,-1.79845643
11.24,-1.672625303,4.402860641,-0.939246476
11.25,1.127389193,4.752635956,0.002701789
11.26,1.135183334,4.752333641,0.028206244
11.27,2.594837427,5.070383072,0.48307091
11.28,2.269920826,4.924347878,3.195776701
11.29,1.995631218,3.823548317,5.009037971
11.3,1.820030928,2.272577286,6.180407524
11.31,1.719539165,0.764374733,5.468694687
11.32,1.884513021,-0.571714401,3.265829563
11.33,1.812105894,-1.271206856,0.953676105
11.34,1.809747219,-1.271564484,0.973103821
11.35,1.32619524,-1.084789276,-1.386015892
11.36,0.30199942,-0.239248276,-2.605643988
11.37,0.231069833,0.972761154,-0.634339213
11.38,0.580053568,1.428253174,0.922170103
11.39,1.111138821,1.469619751,1.845927238
11.4,1.312311888,1.448759079,2.395449162
11.41,1.146184802,1.097578049,2.139908314
11.42,1.138206124,1.098384857,2.102641582
11.43,0.695149183,0.383367539,1.25504005
11.44,-0.464685291,-1.236599922,0.407223195
11.45,-0.458387107,-1.235464096,0.386365712
11.46,-1.420141578,-3.271778584,-0.236199155
11.47,-1.751469374,-4.245025635,-0.418570727
11.48,-1.639949083,-5.021876335,-0.473352045
11.49,-1.611108899,-5.020507812,-0.469152838
11.5,-1.498775721,-5.485800743,-0.507286131
11.51,0.002122879,-6.061052322,-0.893069744
11.52,0.687064529,-5.963505268,-0.894738197
11.53,0.714342356,-5.961656094,-0.895357192
11.54,1.012086391,-4.949360847,-0.202236623
11.55,0.570999384,-4.068728924,0.154616594
11.56,1.636890173,-3.511378288,-0.785146236
11.57,1.26197505,-2.968994617,-1.18174541
11.58,0.97483635,-2.32625103,-1.375499249
11.59,0.795239568,-1.676659584,-1.432328224
11.6,0.640662789,-0.902871132,-1.255939364
11.61,0.422811955,-0.256116867,-1.0270226
11.62,0.15949887,0.19664669,-0.640514612
11.63,0.160919845,0.196935654,-0.643922389
11.64,-0.175682128,0.700087547,0.171503484
11.65,0.108659446,0.69556427,0.174171686
11.66,0.117737651,0.695390701,0.189953744
11.67,0.375125051,0.7641716,-0.275997639
11.68,0.449445278,1.649131775,-1.327619553
11.69,0.423293889,2.500391006,-1.112611413
11.7,0.142742217,3.356552124,-1.016244292
11.71,-0.208788931,3.97106266,-0.817944408
11.72,-0.525330842,4.195502281,-0.599533737
11.73,-0.67400682,3.893410683,-0.538941085
11.74,-0.713105798,3.268220901,-0.695997179
11.75,-0.813708901,3.186637878,-0.698545575
11.76,-0.804974973,3.186519623,-0.676212192
11.77,0.630904079,4.424240112,0.442726493
11.78,0.581078231,4.429075241,0.43355605
11.79,0.596666575,4.429627419,0.458798051
11.8,-1.29531908,3.327322006,3.970695019
11.81,-2.01104331,2.122794151,4.676355362
11.82,-1.449881315,0.767107964,4.029392242
11.83,-0.018185854,-0.692439079,3.319363594
11.84,-0.016632557,-0.692461968,3.327651501
11.85,1.014574766,-1.713136673,1.895659566
11.86,0.462197989,-0.904953003,1.624504924
11.87,0.446377248,-0.905733109,1.59769237
11.88,-0.139114022,0.063394547,1.055058599
11.89,-1.840738297,2.706479073,0.233996779
11.9,-3.01467824,4.318479538,0.709136486
11.91,-3.771882772,4.84653759,1.560450912
11.92,-3.227413416,4.840833664,2.408102036
11.93,-2.099745035,3.771617889,2.719686031
11.94,-0.524978638,1.997542381,2.076688528
11.95,0.091893971,0.365917206,1.400913477
11.96,0.65824455,-0.856822014,0.55702275
11.97,0.643182039,-0.858939171,0.581839204
11.98,0.928667903,-2.0607934,-0.348495781
11.99,0.956028462,-3.039981365,-0.879864752
12,0.947208881,-4.478896141,-1.039617181
12.01,1.204996109,-4.971932888,-0.783502102
12.02,1.156254888,-5.328505039,-0.483577371
12.03,1.127476692,-5.330717564,-0.473670334
12.04,0.724201083,-5.34481287,0.030934364
12.05,0.652474701,-5.47869873,0.264783025
12.06,0.62779367,-5.361153603,-0.123071447
12.07,0.593540311,-5.16690731,-0.524610043
12.08,0.565116048,-4.874295712,-0.894719183
12.09,0.566543102,-4.658044815,-1.061671972
12.1,0.515159607,-4.288414001,-0.945191264
12.11,0.122633785,-3.794126511,-0.625936508
12.12,-0.350857168,-3.239730835,-0.476344287
12.13,-0.799262226,-2.49360466,-0.509081185
12.14,-1.151293278,-1.809547901,-0.609064102
12.15,-1.319171309,-1.10377121,-0.810524523
12.16,-1.242740154,-0.359435082,-0.681995988
12.17,-1.05937624,0.282147408,-0.609851658
12.18,-0.98972857,0.94307518,-0.64692986
12.19,-0.997439742,1.367221832,-0.745858908
12.2,-1.277082682,1.829931259,-1.096789479
12.21,-1.264826417,1.830867767,-1.062579751
12.22,-1.121212244,2.650758743,-1.054581881
12.23,-0.949577093,2.960554123,-0.209027976
12.24,-0.944857478,2.961220741,-0.188088656
12.25,-1.57875371,2.810872078,-0.099029779
12.26,-1.574293375,2.811282158,-0.090733647
12.27,-3.726907969,2.311526299,-1.232271552
12.28,-4.679517746,2.166948318,-2.195719004
12.29,-4.637806416,2.169662476,-2.171928883
12.3,-2.436247349,3.904187202,-1.416220188
12.31,-2.396685839,3.907910347,-1.375300646
12.32,0.118718803,4.605365753,-0.324841648
12.33,4.084965706,5.165298462,0.584287524
12.34,4.551198006,4.606089592,3.069364309
12.35,3.605205536,3.888206482,5.705024242
12.36,2.082589388,2.085012436,7.665296555
12.37,1.813429713,0.479833603,6.690285683
12.38,2.089556217,-0.928133965,3.311881781
12.39,2.076566696,-0.927575111,3.3352952
12.4,0.899315238,-1.338372231,-2.796432734
12.41,0.291701496,-0.49232769,-3.963705063
12.42,0.28597635,-0.491862297,-3.95144701
12.43,0.720719576,1.398715019,-1.505031586
12.44,1.426073074,2.207427979,0.00499928
12.45,1.890681267,2.833611488,0.922905684
12.46,1.679172873,3.275300026,1.917644262
12.47,0.659103215,3.152152061,2.877920866
12.48,-0.400514603,2.419009209,3.404508829
12.49,-1.198744416,1.248540878,2.931339741
12.5,-1.205184817,-0.340307236,1.372160554
12.51,-1.159271479,-1.902244091,-0.135610908
12.52,-0.955079317,-3.090148926,-0.956717432
12.53,-0.938857853,-4.08613205,-0.991290391
12.54,-1.099961638,-4.722685814,-0.433013618
12.55,-0.665761828,-5.248776913,0.062459737
12.56,-0.135622591,-5.638216496,0.146440566
12.57,-0.068866074,-5.795155525,0.333752811
12.58,-0.32561028,-5.671612263,0.656396568
12.59,0.218707353,-5.265185833,0.625220239
12.6,0.298721224,-5.031105518,0.641735852
12.61,0.331973642,-5.029173374,0.622909606
12.62,0.541207671,-4.383247852,-0.142096996
12.63,0.560185373,-4.072658539,-0.931047499
12.64,0.384922832,-3.644853592,-1.822782993
12.65,0.285829395,-3.293782234,-2.35268712
12.66,0.654507995,-2.646073341,-1.937087655
12.67,0.792701542,-2.020610332,-0.84944284
12.68,0.548425496,-1.577410698,-0.248988286
12.69,0.419633031,-0.923378944,0.407468677
12.7,0.478375614,-0.211770058,0.595865488
12.71,0.482425213,-0.211321831,0.58402127
12.72,0.644092023,0.528792381,-0.585172176
12.73,0.596255064,1.263982773,-0.757739008
12.74,0.445949584,2.051691055,-0.664761663
12.75,0.443775743,2.051506996,-0.6628865
12.76,0.284797937,3.727036476,-1.060390472
12.77,0.168255091,4.324993134,-1.344076753
12.78,-0.0256567,4.525508881,-1.349811435
12.79,-0.034023345,4.525074959,-1.364619136
12.8,-0.28881079,3.883228302,-1.05035603
12.81,-0.534780026,3.643846512,-0.489518404
12.82,-0.402935624,4.132710457,0.564634264
12.83,0.244629622,4.557168961,0.874776125
12.84,0.507717788,4.70862484,0.267850399
12.85,0.268095315,5.037586212,0.616749048
12.86,-0.548781097,4.641746521,2.387556314
12.87,-0.913039863,3.535551071,3.663029194
12.88,-0.755787849,2.017407417,3.767192364
12.89,-0.141181767,0.34297657,3.405358791
12.9,0.500717044,-0.872576714,3.108319998
12.91,0.938123822,-1.689227104,3.013954878
12.92,1.168104649,-2.025486946,2.836721897
12.93,0.209068954,-1.553064346,2.624630928
12.94,-0.672309578,-0.850674629,1.899062395
12.95,-1.031200647,0.050619125,0.623466373
12.96,-1.531720638,1.182128906,-0.010171846
12.97,-3.264632225,2.606274605,0.081237152
12.98,-3.264267921,2.606653214,0.051050693
12.99,-3.458268166,3.090946198,0.362918168
13,-1.87315464,2.234146118,1.187289
13.01,-0.882692516,1.214208603,0.915799737
13.02,-0.313690066,0.112467766,0.408779025
13.03,0.091937721,-0.836303711,0.024370551
13.04,0.569244623,-1.58190918,0.139599532
13.05,1.069335699,-2.462021828,0.558958709
13.06,1.342635393,-3.325645924,0.710228682
13.07,1.152220368,-3.803946018,0.434050351
13.08,1.130629301,-3.805722713,0.447880149
13.09,0.712119222,-4.231290817,-0.310390115
13.1,0.767444849,-4.529939651,-0.191458613
13.11,0.546661735,-4.739996433,-0.37604481
13.12,0.447064191,-4.741559505,-0.277872801
13.13,0.608706653,-4.525102139,-0.149782866
13.14,0.438391745,-4.337197304,-0.618699729
13.15,-0.074630618,-4.093988895,-1.075069427
13.16,-0.235621214,-3.766759396,-1.31060195
13.17,-0.253212631,-3.767570972,-1.286807775
13.18,-0.341127127,-3.232064724,-1.00218606
13.19,-0.591632783,-2.825798035,-1.13705802
13.2,-1.037160397,-2.237322807,-1.127441645
13.21,-1.045303702,-2.237478256,-1.108713508
13.22,-1.380793095,-1.643438339,-1.045173645
13.23,-1.299919128,-0.357046127,-0.436684161
13.24,-0.985410452,0.029370308,-0.253053576
13.25,-0.585975826,0.425518036,-0.161412582
13.26,-0.57457006,0.426713944,-0.133004233
13.27,-0.711491585,1.337906837,-0.735093892
13.28,-0.682955086,1.628960609,-1.186457157
13.29,-0.398153424,2.008332253,-1.033671498
13.3,-0.310157478,2.528518677,-0.79200995
13.31,-0.809753895,2.88070488,-0.471013218
13.32,-1.766085744,3.050690651,-0.16273585
13.33,-3.049417019,2.938053131,-0.481515169
13.34,-3.039893389,2.93846035,-0.483741611
13.35,-4.70917654,2.583223343,-1.834062576
13.36,-3.245876789,3.404971123,-1.710656881
13.37,-1.050248861,3.868159294,-0.872617424
13.38,0.967334747,4.134815216,-0.329058647
13.39,2.182927847,4.422159195,0.053162575
13.4,2.385411739,4.948172569,1.257970095
13.41,2.389569521,4.949402809,1.27539587
13.42,2.453280926,4.251187325,4.437714577
13.43,2.231122255,2.649391174,4.957098961
13.44,2.095428228,1.170907974,4.42693615
13.45,2.076264858,-0.308253288,2.62607193
13.46,2.057425499,-0.309874535,2.617401838
13.47,1.043300152,-1.609145164,-0.542724311
13.48,1.362714767,-1.175274849,-1.282330871
13.49,1.344973803,-1.177536011,-1.307390451
13.5,1.455470324,0.51978302,0.195715398
13.51,1.435468674,0.516849518,0.152316958
13.52,1.628362656,1.320960045,0.612252355
13.53,1.768813968,2.690286636,2.048695803
13.54,1.174620271,2.556189537,2.446517229
13.55,0.128519028,1.802390099,2.311402321
13.56,0.117324382,1.800983429,2.260514498
13.57,-0.389423668,-0.345291138,1.117296338
13.58,-0.546722889,-1.629262924,-0.151579022
13.59,-0.794544101,-2.690180302,-1.261387467
13.6,-0.799236536,-3.544859409,-1.38304472
13.61,-0.661559939,-4.265331745,-0.833574951
13.62,-0.315722317,-4.928242683,-0.320940375
13.63,-0.036909223,-5.248690128,-0.27928105
13.64,-0.001678884,-5.360699654,0.060014252
13.65,0.015082985,-5.359977722,0.042120866
13.66,0.085746825,-5.213118076,0.879629016
13.67,0.511575222,-4.838676929,1.182012677
13.68,0.89970839,-4.061908245,0.280391008
13.69,0.68124646,-3.560370922,-0.285193056
13.7,0.702405512,-3.559195042,-0.29084304
13.71,0.735257745,-3.064898014,-0.934106648
13.72,0.694540501,-2.755156994,-1.428718805
13.73,0.705324829,-2.754489422,-1.433443546
13.74,0.814388096,-1.896901608,-0.915790737
13.75,0.8009758,-1.338780403,-0.350423068
13.76,0.641630352,-0.823747635,-0.122668058
13.77,0.314038217,-0.373238564,0.032041661
13.78,0.321372509,-0.372747421,0.027608059
13.79,0.119095862,0.14735508,-0.556987763
13.8,0.022458255,0.391910553,-1.082025647
13.81,0.132546365,0.739299774,-1.370622039
13.82,0.314174146,1.287647247,-1.514286399
13.83,0.410344958,1.946008682,-1.331171989
13.84,0.304685921,2.525346756,-0.912238538
13.85,0.056001723,2.843759537,-0.705914259
13.86,0.054923177,2.843708992,-0.707644403
13.87,0.271285027,2.915326118,-0.652197123
13.88,-0.002166867,3.300679207,-0.473727524
13.89,0.031020284,4.157846451,-0.363937378
13.9,0.223651677,4.938466072,-0.127946943
13.91,0.018177032,5.738176346,0.030225411
13.92,-0.148259819,6.202897072,0.588659644
13.93,-0.876957476,6.000002861,1.699135065
13.94,-1.733185053,5.191959381,2.943473101
13.95,-1.709232807,5.19360733,2.941165924
13.96,-2.402971268,4.141833305,3.74729991
13.97,-1.911740899,2.35648632,3.339758396
13.98,0.396531701,-1.297038078,3.142330408
13.99,0.388597667,-1.29754734,3.132936716
14,1.45454216,-2.30886507,3.057267189
14.01,1.930836201,-2.465399265,3.33754015
14.02,0.980208874,-1.467308044,3.502223969
14.03,-1.432463169,1.193109512,2.270314693
14.04,-2.693243265,2.362375259,1.30625999
14.05,-3.709413767,3.072358131,1.170072317
14.06,-4.320764065,3.086032867,1.40298593
14.07,-4.304214001,3.088035583,1.377017379
14.08,-2.364658833,1.507307053,1.120691061
14.09,-2.357384205,1.508615494,1.099760532
14.1,-0.924418807,-0.137476921,0.566640317
14.11,-0.312556624,-0.926577568,0.709310591
14.12,0.141354978,-1.634505272,0.916750908
14.13,0.646499217,-2.335547447,1.018876553
14.14,0.913439512,-2.871688366,0.85137856
14.15,0.896630824,-2.871727467,0.828147948
14.16,0.71770674,-3.228461266,0.871218622
14.17,0.487821013,-3.104199409,0.241617262
14.18,0.469133288,-3.105107307,0.235721231
14.19,0.482763708,-3.154391766,-0.205006629
14.2,0.37003082,-3.26145649,-0.121776581
14.21,0.282568425,-3.241875172,-0.266110987
14.22,-0.000884533,-3.404487133,-0.552557707
14.23,-0.069575012,-3.437923431,-0.696828127
14.24,-0.239112258,-3.356390476,-0.907411695
14.25,-0.447104633,-3.143059254,-0.807155788
14.26,-0.828998804,-2.903139114,-0.550747573
14.27,-1.058741808,-2.631756783,-0.241671071
14.28,-1.203870296,-2.479832649,-0.191555634
14.29,-1.210265636,-2.480986595,-0.167476848
14.3,-1.048131227,-2.381431103,-0.365560651
14.31,-0.895080626,-2.291288853,-0.32849291
14.32,-0.472729266,-1.947153568,0.415262401
14.33,-0.133352548,-1.777681351,0.429618567
14.34,0.046897918,-1.505218506,0.295446128
14.35,0.204998106,-1.019668579,-0.082236893
14.36,0.429723054,-0.131844521,-0.249886632
14.37,0.245180935,0.696152687,-0.336299419
14.38,-0.190422416,1.629695892,-0.368025094
14.39,-0.184564531,1.629715919,-0.336687684
14.4,-1.524689198,3.0616045,-0.370237052
14.41,-1.689462423,2.599581718,0.189910293
14.42,-1.458485723,1.538733482,1.067703366
14.43,-1.8443501,0.334067345,0.652365923
14.44,-1.841925383,0.008477211,-0.074941114
14.45,-1.83426857,0.008964539,-0.045696899
14.46,-0.375302941,1.118288994,-1.64659059
14.47,0.349592865,2.211155891,-1.330506086
14.48,1.083714128,3.361438751,-0.090787873
14.49,1.85994041,4.456267357,0.929219723
14.5,2.497220039,5.423725128,1.928054571
14.51,2.792561293,6.069919586,3.018018723
14.52,1.998201013,6.095510483,4.242653847
14.53,0.505225301,5.222923279,5.465325356
14.54,0.034017265,3.720464706,5.104987144
14.55,0.468425691,1.502088547,3.079691887
14.56,1.464233875,-0.242247582,0.602430582
14.57,2.054274321,-1.079123497,-1.027045012
14.58,1.614074111,-0.910226822,-1.435824513
14.59,1.592439294,-0.911072731,-1.447535992
14.6,0.67882812,0.67800045,-0.080987275
14.61,0.687141597,1.395628929,0.345077634
14.62,0.383550793,1.931447983,0.82643956
14.63,-0.21787414,2.1898489,1.546663046
14.64,-0.220785141,2.189995766,1.511509299
14.65,-0.370913863,0.780123711,2.427121878
14.66,-0.311626226,-0.483638763,1.813159704
14.67,-0.310758472,-0.483252525,1.790730476
14.68,-0.243557304,-2.534761906,0.275978625
14.69,0.012445778,-3.30527401,-0.183292627
14.7,0.016692758,-3.304794312,-0.199568063
14.71,0.537577033,-3.953112602,-0.179806531
14.72,0.868889928,-3.863844395,0.201750755
14.73,0.872134328,-3.862896442,0.17154032
14.74,0.734274626,-3.014182568,1.136445165
14.75,0.885595679,-2.210778713,1.149122
14.76,1.019053698,-1.519929886,0.750753284
14.77,0.946036518,-0.848258972,0.385065734
14.78,0.917061448,-0.183710098,0.340444714
14.79,0.945912838,0.229712486,0.934325934
14.8,0.932937741,0.231617928,0.891541839
14.81,1.019888759,0.286427498,1.503426552
14.82,1.086165309,-0.072963715,1.646417856
14.83,0.963369489,-0.264924049,1.112664223
14.84,0.602129698,-0.16524601,0.816127896
14.85,0.539162934,0.044408798,0.839869618
14.86,0.506418228,0.179711342,1.101075888
14.87,0.424271852,0.243114471,1.194140434
14.88,0.532152474,0.287273407,1.490276814
14.89,0.451483607,0.465439796,1.380624175
14.9,0.223215431,0.638210297,0.951852143
14.91,-0.035384372,0.714609146,0.579413593
14.92,-0.205014989,0.71638298,0.35971868
14.93,-0.015498564,0.763306618,0.432321072
14.94,0.12300735,0.810090065,0.461516559
14.95,0.134122998,0.808878899,0.480960071
14.96,0.001115128,1.003912926,0.384803832
14.97,-0.406306028,1.067227364,0.448323906
14.98,-1.051454067,1.080321312,0.761309683
14.99,-1.230596423,0.75355053,0.561958134
15,-1.217196345,0.752306938,0.587623298
15.01,-0.962346673,0.188367844,0.209393144
15.02,-0.460534871,-0.799115181,-0.03161037
15.03,-0.356384039,-1.027281761,-0.009452164
15.04,-0.404626936,-1.109187126,0.069704592
15.05,-0.429555655,-1.092758179,0.152105033
15.06,-0.508170843,-0.99961853,0.080807149
15.07,-0.443146944,-0.932889938,-0.172671944
15.08,-0.286905408,-0.813560486,-0.339235842
15.09,-0.065649629,-0.588884354,-0.178550392
15.1,-0.209757447,-0.495892525,0.187361717
15.11,-0.601050675,-0.453133583,0.355858356
15.12,-0.589370966,-0.453495026,0.375142306
15.13,-0.816752911,-0.408601761,0.069535315
15.14,-0.592451096,-0.490638733,-0.657155514
15.15,-0.582321167,-0.491201401,-0.627732992
15.16,-0.746264458,-0.429269791,-0.467523694
15.17,-0.752267122,-0.379191399,-0.246975273
15.18,-0.55620718,-0.36741066,-0.287689179
15.19,-0.455498219,-0.329299927,-0.288628638
15.2,-0.448775262,-0.329443932,-0.267113566
15.21,-0.239334762,-0.193027496,-0.337371707
15.22,-0.234835267,-0.193067551,-0.322492719
15.23,-0.176386684,-0.099704742,-0.282810986
15.24,-0.195473403,0.218756676,0.035309955
15.25,-0.395255506,0.398331642,0.019896686
15.26,-0.393573314,0.398370743,0.023848057
15.27,-0.998588085,0.441998482,-0.709224641
15.28,-1.072202444,0.224890709,-0.917892754
15.29,-0.748636782,0.022399902,-0.554380655
15.3,-0.51983124,-0.342875481,-0.027442276
15.31,-0.472482324,-0.681811333,0.370298386
15.32,-0.454414606,-0.680734634,0.369831324
15.33,-0.064167559,-0.811404228,0.182290524
15.34,-0.218899071,-0.73623848,-0.406882346
15.35,-0.202453554,-0.735261917,-0.399479359
15.36,-0.26882422,-0.437425613,-0.162626922
15.37,-0.257316053,-0.436642647,-0.163912296
15.38,-0.180024386,-0.175068855,0.370688677
15.39,-0.036631525,-0.09564209,0.348074317
15.4,-0.013435364,0.026694298,0.181362748
15.41,-0.261532366,0.098705292,-0.114931986
15.42,-0.526166678,0.173202515,-0.299803138
15.43,-0.520412028,0.17360878,-0.299803138
15.44,-0.346464157,0.02077198,-0.658516586
15.45,-0.379266262,-0.021978378,-0.292837948
15.46,-0.084363163,-0.012047768,0.178052008
15.47,0.19045186,0.002484322,0.226118773
15.48,0.193835259,0.043109894,0.261958182
15.49,0.19211936,0.04302597,0.259531826
15.5,0.099936187,0.042957306,0.264357865
15.51,0.153467059,0.042868614,0.131036654
15.52,-0.163727999,0.004495621,-0.186450809
15.53,-0.298778772,0.042778015,-0.185123205
15.54,-0.300148785,0.04274559,-0.189004421
15.55,-0.437544048,0.03313446,-0.174456328
15.56,-0.459201753,-0.036310196,-0.174749181
15.57,-0.512750506,-0.172689438,-0.18829298
15.58,-0.351735354,-0.261073113,-0.399640977
15.59,0.001010239,-0.280200958,-0.68607831
15.6,0.307050198,-0.163066864,-0.839316011
15.61,0.554472089,0.044800758,-0.389352441
15.62,0.448516667,0.307587624,0.215098724
15.63,0.260331363,0.527330399,0.583781838
15.64,0.250531346,0.526949883,0.567819119
15.65,0.051170528,0.703753471,0.697393775
15.66,-0.03256619,0.633908272,0.587078929
15.67,0.055946112,0.324495316,-0.141356543
15.68,0.207373023,0.170681953,-0.171514362
15.69,0.228583753,0.064685822,-0.109037884
15.7,0.220610261,0.064016342,-0.099524789
15.71,-0.073870599,0.034702301,-0.169330806
15.72,-0.065965772,-0.061612129,-0.292055786
15.73,0.075472832,-0.093280792,-0.146949917
15.74,0.136485875,-0.206390381,-0.050463013
15.75,0.100573719,-0.345867157,-0.011467874
15.76,0.104724675,-0.403930664,0.174609274
15.77,0.400897443,-0.282359123,0.450851172
15.78,0.222621262,-0.136843681,0.055591986
15.79,-0.159092069,0.032721519,-0.130711302
15.8,-0.234139502,0.211969376,-0.072650738
15.81,-0.177455246,0.22842598,0.016264766
15.82,-0.104189038,0.144226074,0.095977336
15.83,0.164321363,0.100679398,0.198772803
15.84,0.221432447,0.088225365,0.153869703
15.85,-0.092464298,0.138103485,0.212681383
15.86,-0.253302485,0.17141819,0.14294973
15.87,-0.252272189,0.171367645,0.150958836
15.88,-0.35869351,-0.067993164,0.010790564
15.89,-0.354555398,-0.067909241,0.021743335
15.9,-0.166436553,-0.321617127,-0.139771164
15.91,-0.26345247,-0.24252224,-0.132468224
15.92,-0.278860569,-0.14423275,-0.099982694
15.93,-0.117510498,-0.060307503,0.080748566
15.94,-0.115213752,-0.060238838,0.088959932
15.95,-0.0173015,0.021225929,0.16536893
15.96,-0.021654844,0.052458763,-0.290608645
15.97,0.02185297,0.062139511,-0.463161647
15.98,-0.083491027,0.038309097,-0.317084283
15.99,-0.080908895,0.038440704,-0.312516838
16,-0.234188736,0.06730175,-0.058345586
16.01,-0.299138904,0.031500816,0.258506984
16.02,-0.152209342,0.031544685,0.238132685
16.03,-0.222848356,0.00048542,-0.138710991
16.04,-0.321103394,-0.049648285,-0.29159826
16.05,-0.231917143,-0.059044838,-0.425770879
16.06,-0.229290724,-0.058865547,-0.416971475
16.07,-0.197556734,-0.065848351,-0.141655237
16.08,-0.013548791,-0.132756233,-0.000199687
16.09,-0.012900472,-0.132698059,0.003998935
16.1,0.08786279,-0.147026062,0.037155062
16.11,-0.071017206,0.032660484,0.061116368
16.12,-0.08937794,0.037549019,-0.0121582
16.13,-0.046107173,0.042375565,-0.172811568
16.14,-0.010605216,0.02806282,-0.243960828
16.15,-0.057582736,0.001698494,-0.31522578
16.16,-0.200359523,0.032813072,-0.445656657
16.17,-0.20176965,0.032790184,-0.440301269
16.18,0.123546392,0.056629181,0.542658329
16.19,0.276818335,-0.005883217,0.756464243
16.2,0.271555305,-0.006139755,0.758937359
16.21,-0.229908347,-0.104437828,0.120647214
16.22,-0.229255557,-0.10432148,0.127740979
16.23,-0.211873055,-0.1448946,-0.165078551
16.24,-0.296185553,-0.032150269,-0.719008565
16.25,-0.306519568,0.032716751,-0.410301745
16.26,-0.313380659,-0.010260582,0.14597477
16.27,-0.314160287,-0.010292053,0.14689365
16.28,-0.269635856,-0.063027382,0.417304039
16.29,-0.447777391,-0.050942421,0.129713953
16.3,-0.505284131,-0.06258297,-0.268191159
16.31,-0.367309153,-0.13873291,-0.560676932
16.32,-0.360639453,-0.138213158,-0.552390754
16.33,-0.119474232,-0.125777245,-0.115882352
16.34,-0.066275835,-0.079927444,0.281802177
16.35,-0.061876357,-0.079661369,0.283070594
16.36,-0.060366333,0.028357506,0.163528621
16.37,-0.138345897,0.019091606,0.106652752
16.38,-0.12063247,-0.045231819,-0.039900348
16.39,-0.032720864,-0.092881203,-0.172548384
16.4,0.031732142,-0.092767715,-0.116532713
16.41,0.030061066,-0.09277916,-0.112683043
16.42,-0.051517487,-0.018659592,0.109877467
16.43,-0.053340316,-0.0187397,0.11087583
16.44,-0.171840549,0.031478882,0.022980332
16.45,-0.172926545,0.031453133,0.024432868
16.46,-0.245249331,-0.01403141,-0.04355441
16.47,-0.235601902,-0.052325249,0.181876838
16.48,-0.187697232,-0.054735184,0.281840742
16.49,-0.185514987,-0.076302528,0.171462119
16.5,-0.223857582,-0.021204948,-0.013908342
16.51,-0.200134337,-0.004386902,-0.175978497
16.52,-0.078834653,0.012392998,-0.244625777
16.53,-0.020931304,0.033890724,-0.17035833
16.54,-0.037217498,0.036214828,0.123113319
16.55,0.073268622,0.036071777,0.20158954
16.56,0.066650629,0.035970688,0.309391528
16.57,0.065129101,0.03592205,0.311126411
16.58,-0.003344297,0.035934448,0.111486077
16.59,-0.004818797,0.035967827,0.116092116
16.6,-0.116883397,-0.09091568,0.017629176
16.61,-0.185967386,0.002447128,-0.198212862
16.62,-0.188367844,0.002445221,-0.193260789
16.63,-0.002378702,-0.095799446,0.313379586
16.64,0.232633859,-0.165447235,0.51809001
16.65,0.119546324,-0.172922134,0.111388907
16.66,0.114942461,-0.173120499,0.113309637
16.67,-0.099151373,-0.051160812,0.215580672
16.68,-0.054810882,-0.089708328,0.129517198
16.69,-0.096858144,-0.063612938,-0.288435102
16.7,-0.043364823,-0.006334305,-0.378584027
16.71,-0.022280872,0.041234016,-0.051752627
16.72,-0.033180296,0.069511414,0.364580721
16.73,-0.094788611,0.152774811,0.677080572
16.74,0.019639194,0.14756012,0.427105248
16.75,0.015763998,0.132964134,0.157630727
16.76,-0.144120008,0.176039696,0.000146866
16.77,-0.222830057,0.042117119,-0.049621597
16.78,-0.21195668,0.032781601,-0.05938831
16.79,-0.210416168,-0.000437737,0.104443327
16.8,-0.184728235,-0.050405502,0.184369534
16.81,-0.082396358,-0.038104057,0.047039241
16.82,-0.081250995,-0.037743568,0.057647169
16.83,-0.164061278,-0.022975922,0.064008355
16.84,-0.078818977,-0.077681541,0.051502436
16.85,-0.040572286,-0.063100815,-0.015474916
16.86,0.047227681,-0.048553467,-0.006678969
16.87,0.045621246,-0.048454285,-0.001370937
16.88,0.229975343,-0.005340576,0.067205966
16.89,0.075558871,0.15987587,0.481572688
16.9,-0.000683933,0.131241798,0.385668337
16.91,0.001650453,0.131540299,0.390744925
16.92,-0.169851065,-0.026099205,0.056680888
16.93,-0.080652356,-0.150255203,-0.043275028
16.94,-0.03056699,-0.114042282,-0.076753497
16.95,-0.096200109,-0.025259972,0.06787321
16.96,-0.123786449,0.037103653,0.229793593
16.97,-0.031908095,0.053915977,0.179688022
16.98,-0.114648163,0.092342377,0.135471627
16.99,-0.291957796,0.051821709,0.190207303
17,-0.300562084,0.037705421,0.031509399
17.01,-0.121954441,0.042789459,0.062840045
17.02,-0.118728697,0.043129921,0.067019969
17.03,0.026175916,0.050671577,0.378059864
17.04,0.030554652,0.05113411,0.383705735
17.05,-0.043447733,-0.039275169,0.122722536
17.06,-0.069782674,-0.136838913,-0.309423238
17.07,-0.065807223,-0.136202812,-0.299374729
17.08,0.110942155,-0.01607132,-0.201333016
17.09,0.381130755,-0.049501419,0.598715305
17.1,0.354587913,-0.123936653,1.186186075
17.11,0.351050258,-0.124368668,1.180503845
17.12,-0.072630107,-0.239632607,0.505362332
17.13,0.036585987,-0.172721863,0.27100876
17.14,0.036749899,-0.172679901,0.271852791
17.15,-0.136633813,-0.095675468,-0.408038467
17.16,-0.291505814,0.024478912,-0.887309253
17.17,-0.094407737,0.070052147,0.09567368
17.18,-0.048159719,0.064922333,0.385337174
17.19,-0.138867497,0.129137039,0.613249898
17.2,-0.191830933,0.116876602,0.502023816
17.21,-0.106113911,0.071332932,0.324389786
17.22,-0.105521858,0.071512222,0.32792148
17.23,-0.129803121,0.033608437,0.128737003
17.24,-0.086209297,-0.037704468,0.337731361
17.25,0.077576309,-0.130566597,0.390752375
17.26,0.080512196,-0.130044937,0.398487359
17.27,0.050017267,-0.119903565,-0.023947507
17.28,0.05281201,-0.119286537,-0.014270753
17.29,0.061632305,-0.137929916,-0.063292831
17.3,0.081415504,-0.140013695,0.141325116
17.31,-0.005432725,-0.080023766,0.146861196
17.32,-0.006135106,-0.079961777,0.149016321
17.33,-0.234092116,0.087712288,0.107997328
17.34,-0.31755513,0.071036339,0.264727056
17.35,-0.208761215,0.006479263,0.179308802
17.36,-0.252995551,-0.089128494,0.090085775
17.37,-0.255523801,-0.08647728,-0.137150645
17.38,-0.283776045,-0.040669441,-0.115179062
17.39,-0.280461371,-0.040392876,-0.113500297
17.4,-0.143256426,0.024452209,0.320256263
17.41,-0.061169744,0.046175003,0.416185081
17.42,-0.048511624,0.041572571,0.371107698
17.43,-0.102412224,-0.017980576,0.150212437
17.44,-0.110333324,-0.067846298,-0.025939941
17.45,-0.08059448,-0.124904633,-0.120313942
17.46,-0.035348117,-0.153306007,-0.049274981
17.47,-0.065270424,-0.069338799,0.153486639
17.48,-0.102302969,-0.004612923,0.146579057
17.49,-0.071964383,0.04820919,0.056467026
17.5,-0.158711195,0.053200722,-0.001526415
17.51,-0.278194726,0.048704147,-0.023156226
17.52,-0.411363602,0.013119698,-0.188191116
17.53,-0.407798648,0.013533592,-0.184598625
17.54,-0.27582407,0.049816132,-0.274179518
17.55,-0.025568724,-0.014602661,0.181195587
17.56,-0.025591671,-0.014574051,0.181574374
17.57,0.005234301,-0.199119568,0.633623004
17.58,-0.011581004,-0.19925499,0.482721776
17.59,0.046467066,-0.098796844,0.056315929
17.6,0.00385648,-0.127529144,-0.262686729
17.61,-0.043895245,-0.084328651,-0.213295519
17.62,-0.04448849,-0.08435154,-0.212817371
17.63,-0.084058404,0.049458504,0.478014618
17.64,0.025533021,0.065691948,0.56022507
17.65,0.032281041,0.115428925,0.442860842
17.66,-0.127473235,0.162893295,0.262049437
17.67,-0.282097638,0.201079369,0.225032389
17.68,-0.259852529,0.150953293,0.169133484
17.69,-0.255998671,0.151315689,0.171770811
17.7,0.056227148,-0.001367569,0.199768305
17.71,0.058886945,-0.000807762,0.207502127
17.72,0.102094114,-0.110347748,0.241836011
17.73,-0.034006596,-0.159963608,-0.081912816
17.74,-0.038314164,-0.0730896,-0.024825156
17.75,-0.045595765,0.004091263,0.066471517
17.76,-0.075134575,0.052340508,0.169228226
17.77,-0.066783905,0.052571297,0.164755821
17.78,-0.166646183,0.055120468,0.24086225
17.79,-0.170430481,0.052869797,0.395405769
17.8,-0.056689501,0.014613152,0.409370422
17.81,-0.062593281,-0.004453659,0.308754176
17.82,-0.089585304,-0.061788559,0.167947292
17.83,-0.147395253,-0.083143234,0.08993578
17.84,-0.133270025,-0.090111732,0.000408173
17.85,-0.131558836,-0.089902878,0.002063572
17.86,0.005646169,-0.020282745,0.074039638
17.87,0.001216769,0.015723228,0.400605619
17.88,0.00136137,0.015737534,0.400693297
17.89,-0.010104418,-0.05120945,0.248402536
17.9,-0.009665072,-0.05109024,0.250116348
17.91,0.014947534,-0.194621086,0.215603292
17.92,-0.001838863,-0.223325729,0.134771407
17.93,-0.002036929,-0.223356247,0.134495497
17.94,-0.047854722,-0.048622131,0.241675556
17.95,-0.091346443,0.01358223,0.272325307
17.96,-0.230141819,0.05426693,0.310497493
17.97,-0.20973593,-0.027033806,0.121467322
17.98,-0.207921505,-0.026773453,0.123983055
17.99,-0.357986927,0.055036545,0.007727325
18,-0.065275908,-0.047581673,0.242313623
18.01,0.158126146,-0.162410736,0.336631984
18.02,0.182917744,-0.22233963,0.578796268
18.03,0.073898613,-0.203427315,0.655271113
18.04,0.016543508,-0.124694824,0.41323328
18.05,0.026704729,-0.017209053,-0.087226152
18.06,-0.023410976,-0.005304337,-0.167848766
18.07,-0.067191005,0.052032471,0.271371543
18.08,-0.068845093,0.051670074,0.266982913
18.09,-0.107110381,0.067810059,0.787986994
18.1,-0.223480046,0.014688492,0.130718947
18.11,-0.324172497,-0.033351898,-0.204541981
18.12,-0.325642943,-0.064425468,-0.166696489
18.13,-0.154520273,-0.10028553,0.06283468
18.14,0.144654334,-0.164975166,0.172454625
18.15,0.346620053,-0.188962936,0.372092426
18.16,0.270476997,-0.14594841,0.499869317
18.17,0.142137289,-0.129227638,0.474499077
18.18,-0.031267524,-0.138816834,0.137792468
18.19,-0.089281499,-0.157817841,-0.084238052
18.2,-0.10790354,-0.172147751,-0.17714721
18.21,-0.125228167,-0.148258209,-0.19382596
18.22,-0.052844405,-0.119729996,-0.044233501
18.23,0.00179702,-0.036320686,0.069680482
18.24,-0.003967941,-0.036800385,0.067421883
18.25,-0.061866224,0.094359398,0.430220068
18.26,-0.082365751,0.122720718,0.305767596
18.27,-0.085375309,0.122465134,0.30430454
18.28,-0.001252711,-0.004644394,-0.001271188
18.29,0.047967672,-0.074356079,-0.091060579
18.3,-0.078098774,-0.057915688,0.053587347
18.31,0.105156303,-0.046330452,0.287323862
18.32,0.031056821,-0.042075157,0.369125068
18.33,-0.066063166,0.002951622,0.41711241
18.34,-0.081175506,0.007288933,0.259126067
18.35,0.016306818,-0.040968895,0.035155684
18.36,0.041703045,-0.065250397,-0.096746802
18.37,-0.045585692,0.018193245,0.098884702
18.38,-0.032097757,-0.003754616,0.238649488
18.39,0.064946294,0.046167374,0.228238314
18.4,0.068153948,0.045833588,0.17135039
18.41,0.014262319,0.093505859,0.2239151
18.42,-0.064874649,0.102918625,0.424369067
18.43,-0.150098562,0.054853439,0.40093255
18.44,-0.219641626,0.073914528,0.016221851
18.45,-0.163851678,0.085988045,-0.193350852
18.46,-0.163765907,0.0861063,-0.191013396
18.47,0.024473786,-0.052749634,0.379652888
18.48,0.00761348,-0.175057411,0.338053584
18.49,-0.011034966,-0.275765419,0.29644078
18.5,0.10062775,-0.237569809,0.199222535
18.51,-0.005065441,-0.165844917,-0.171126008
18.52,-0.081517339,0.00176239,-0.393562734
18.53,-0.081550241,0.001808167,-0.392756641
18.54,-0.131393015,0.197882652,0.495145261
18.55,-0.184153378,0.238068581,0.806215406
18.56,-0.187382579,0.237466812,0.797581971
18.57,0.06529057,0.023819923,0.280199647
18.58,-0.0860852,-0.007675171,-0.157518774
18.59,-0.087336421,-0.007760048,-0.15773505
18.6,-0.178195477,-0.000558853,-0.171964526
18.61,-0.087135375,0.04252243,0.308986604
18.62,0.042125344,0.020963669,0.426045388
18.63,-0.022452712,0.042531967,0.426287383
18.64,-0.074347198,-0.002842903,0.17647782
18.65,-0.137503922,0.03578186,0.130867213
18.66,-0.114348292,-0.009367943,0.145605654
18.67,-0.041895747,-0.045026779,0.037836224
18.68,0.034360498,-0.011247635,-0.002466798
18.69,-0.012003124,0.020044327,0.088001132
18.7,-0.101362884,0.024928093,0.16011399
18.71,-0.1897102,0.005875587,0.161590517
18.72,-0.207983434,-0.025177002,0.054418027
18.73,-0.266632855,-0.084975243,0.066644251
18.74,-0.295950592,-0.04177475,0.131185085
18.75,-0.224711359,-0.051330566,0.266197413
18.76,-0.144156635,-0.056164742,0.395485401
18.77,-0.080536485,-0.029891968,0.352045983
18.78,-0.078809798,-0.029919624,0.349307507
18.79,-0.115167499,-0.005963326,-0.011435866
18.8,-0.070319057,0.001241684,-0.036738813
18.81,-0.06953615,0.001182556,-0.038816214
18.82,-0.00277859,0.02494812,0.005815834
18.83,0.000847578,0.043780327,0.367067993
18.84,-0.000142932,0.043493271,0.362228155
18.85,-0.089708149,0.076745987,0.42514813
18.86,-0.128633678,0.071751595,0.354400218
18.87,-0.129063129,0.071628571,0.35222289
18.88,-0.022460461,0.03802681,-0.007539093
18.89,-0.062828839,-0.096182823,0.100239515
18.9,-0.129405201,-0.096291542,0.073454142
18.91,-0.120529592,0.037752151,-0.09374699
18.92,-0.22813338,0.009110451,0.092130154
18.93,-0.01905787,-0.012389183,0.427585244
18.94,0.056975454,-0.148996353,0.418052614
18.95,0.067303002,-0.127619743,0.253589511
18.96,0.000974774,-0.180440903,0.151931614
18.97,0.06920132,-0.06806469,0.346396953
18.98,-0.068328142,-0.025197029,0.30898422
18.99,0.048135251,-0.008676529,0.216382712
19,0.130750537,0.026808739,0.285549104
19.01,0.084638089,0.035766602,0.393357158
19.02,-0.064832568,0.042263985,0.415942282
19.03,-0.069800019,0.041637421,0.407110751
19.04,-0.143415362,-0.023558617,0.155261457
19.05,-0.146302521,-0.023913383,0.150447309
19.06,-0.185989052,0.019055367,-0.00907588
19.07,-0.18739447,0.01897049,-0.009285152
19.08,0.078211844,0.038017273,0.268892646
19.09,0.075732172,0.03792572,0.269686997
19.1,0.049840003,0.037838936,0.272308052
19.11,0.031041652,0.028208733,0.151583642
19.12,0.036288142,-0.086676598,0.077676684
19.13,0.033947855,-0.086681366,0.080490559
19.14,0.040273398,-0.084316254,-0.110549957
19.15,0.001152754,0.023347855,0.097241551
19.16,-0.004772663,0.039946556,0.23601833
19.17,-0.00827387,0.039716721,0.234825909
19.18,-0.168467283,0.063516617,0.370444983
19.19,-0.173915952,0.037118912,0.290656507
19.2,-0.190587252,-0.041867256,0.154766172
19.21,-0.146360397,-0.099229813,0.00036934
19.22,-0.056476891,-0.113424301,-0.023718446
19.23,-0.032090604,-0.058252335,0.114525735
19.24,-0.031696677,-0.058176994,0.116072357
19.25,0.002200872,-0.019770622,0.182504118
19.26,-0.123804599,0.021066666,0.141656965
19.27,0.120743215,-0.091346741,-0.014034688
19.28,0.086004406,-0.103274345,0.014425933
19.29,-0.032459199,0.011595726,0.272821724
19.3,-0.018799603,-0.002910614,0.380772829
19.31,0.003620535,-0.005430222,0.247732803
19.32,0.025735885,-0.003091812,0.071218729
19.33,-0.033276826,0.020853043,0.029833853
19.34,-0.036732942,-0.048563957,-0.016658157
19.35,-0.037839293,-0.048613548,-0.016535997
19.36,-0.060665786,-0.005563736,-0.025996774
19.37,-0.221964777,0.037397385,0.211840242
19.38,-0.164411813,0.137878418,0.152380317
19.39,-0.068512261,0.130683899,0.070517868
19.4,-0.011218518,0.046938896,0.352154911
19.41,0.122078806,-0.082386017,0.562744737
19.42,-0.077950895,-0.204633713,0.359721839
19.43,-0.176024437,-0.159238815,0.348179579
19.44,0.006856799,-0.085065842,0.37944904
19.45,0.036469489,-0.051622391,0.324194908
19.46,-0.126895696,-0.02525425,0.021020502
19.47,-0.15095821,0.037117958,-0.096155763
19.48,-0.149711132,0.037133217,-0.09705767
19.49,-0.087738514,0.001047134,0.109899908
19.5,-0.100850374,0.036649704,0.20481354
19.51,-0.154639304,0.036299706,0.36538744
19.52,-0.132931262,0.038448334,0.452175975
19.53,-0.117115319,0.035984039,0.297952294
19.54,-0.203203291,0.036084175,0.127965808
19.55,-0.187876105,-0.033111572,0.069827437
19.56,-0.033949822,-0.092735291,-0.00449571
19.57,-0.032482207,-0.092539787,-0.001636207
19.58,0.034823984,-0.032553673,0.07774654
19.59,0.054057211,-0.054004669,0.269054055
19.6,0.005927145,-0.030015945,0.361478508
19.61,-0.03729713,-0.008435249,0.343194664
19.62,-0.02052021,-0.008401871,0.154845417
19.63,0.009880751,0.025174141,-0.068050772
19.64,0.009038955,0.025211334,-0.066194922
19.65,-0.189841062,0.034808159,0.183248043
19.66,-0.208520919,0.037158966,0.311067641
19.67,-0.341154754,0.041953087,0.367196947
19.68,-0.268072069,0.030134201,0.321379542
19.69,-0.181745142,0.004138947,0.110597968
19.7,-0.166998625,-0.040923119,-0.009836644
19.71,-0.175921977,-0.014125824,0.049752384
19.72,-0.170743495,-0.013726234,0.052883685
19.73,0.003383636,0.041640282,0.229656622
19.74,0.051863313,0.058599472,0.354935139
19.75,0.032913595,0.077876091,0.378698438
19.76,-0.026461363,0.039731979,0.285405278
19.77,-0.025730312,0.008775711,0.175840914
19.78,-0.048990786,-0.055644989,0.100401938
19.79,-0.112972438,-0.065006256,0.037244707
19.8,-0.110197306,-0.064798355,0.038582087
19.81,-0.253410578,-0.050243378,0.163883984
19.82,-0.162969768,-0.028491974,0.077483118
19.83,-0.022703111,0.04114151,0.140178442
19.84,-0.114349783,0.029379845,0.315139294
19.85,-0.111853302,0.029574394,0.316442788
19.86,-0.282873213,0.027496338,0.16098842
19.87,-0.208349407,0.10208416,-0.191185772
19.88,-0.078407884,0.044804573,-0.118634015
19.89,0.276789039,-0.120482445,0.59253341
19.9,0.070726246,-0.087166786,0.346987605
19.91,-0.138917148,-0.113577843,0.404553682
19.92,-0.008881748,-0.039351463,0.403545946
19.93,-0.132802606,-0.118355751,-0.011108994
19.94,-0.055318296,-0.127753258,-0.424748123
19.95,-0.103956282,-0.108446121,-0.243517518
19.96,-0.084583879,-0.029582024,0.244349301
19.97,-0.025759876,0.041828156,0.50497061
19.98,0.011013269,0.074840546,0.613594055
19.99,0.00850457,0.074455261,0.608238041
20,-0.066420317,0.069452286,0.62539506
20.01,-0.163208008,0.002415657,0.066338927
20.02,-0.170697153,-0.059599876,-0.127402186
20.03,-0.168187738,-0.059276581,-0.123241574
20.04,-0.16282475,0.041622162,0.005250692
20.05,-0.160059094,0.042002678,0.010320842
20.06,0.005291224,0.12387085,0.232708171
20.07,0.008172035,0.124399185,0.240679875
20.08,0.023204744,0.038756371,0.179067403
20.09,0.029690206,-0.058912277,-0.126307547
20.1,0.030252278,-0.058449745,-0.11783722
20.11,0.003241003,-0.101279259,-0.250696838
20.12,-0.062771082,-0.046188354,0.277988851
20.13,-0.133768916,-0.024755478,0.502479076
20.14,-0.139677107,-0.072770119,0.448315084
20.15,-0.20619607,-0.075061798,0.248789966
20.16,-0.237835288,-0.141849518,0.088896632
20.17,-0.216029763,-0.203807831,-0.025449336
20.18,-0.077352703,-0.196368218,-0.020641625
20.19,-0.059216917,-0.071767807,0.094857574
20.2,-0.108792424,0.004850388,0.144318432
20.21,-0.10115689,0.045526505,0.109874487
20.22,-0.100685418,0.074268341,0.061492115
20.23,-0.100423276,0.07429409,0.06174466
20.24,-0.026189327,0.131746292,0.231628269
20.25,-0.007385492,0.098192215,0.377289176
20.26,-0.062843144,0.055039406,0.398257792
20.27,-0.062579989,0.055114746,0.399154425
20.28,0.002758265,-0.02857399,0.180444747
20.29,-0.011470675,-0.09551239,0.041062355
20.3,0.058106214,-0.128915787,0.035893202
20.31,0.057783693,-0.128848076,0.037520528
20.32,-0.049446523,-0.138378143,0.126522541
20.33,-0.230160356,-0.207716942,0.155643106
20.34,-0.278723538,-0.054333687,0.113538116
20.35,-0.102437198,-0.039891243,0.087234408
20.36,-0.009345233,-0.109347343,-0.016025722
20.37,0.091274619,-0.028110504,0.306357384
20.38,0.085833102,-0.040460587,0.463019937
20.39,0.08382234,-0.040770531,0.459360272
20.4,-0.029453337,0.01652813,0.425798416
20.41,0.041337609,0.045262337,-0.071132898
20.42,0.118830144,0.042918205,0.001093328
20.43,0.020285964,0.045091629,0.456924528
20.44,-0.012202919,0.066090584,0.775768876
20.45,0.009337962,0.036682129,0.571643174
20.46,-0.140959024,-0.021277428,0.178232908
20.47,-0.260372818,-0.062170982,-0.122475892
20.48,-0.26039952,-0.062109947,-0.121392191
20.49,-0.223327637,-0.167347908,-0.146818519
20.5,0.050081372,-0.162548065,0.116311461
20.51,0.211797357,-0.12436676,0.464455187
20.52,0.202999204,-0.124559403,0.433803141
20.53,0.091263711,-0.036046028,0.15362215
20.54,-0.182080746,0.043040276,-0.059869409
20.55,-0.217331708,0.043146133,-0.130087286
20.56,-0.12392658,0.035985947,-0.089064866
20.57,-0.034024239,0.040650368,0.156184107
20.58,-0.035816908,0.040402412,0.15301308
20.59,-0.097053587,0.042566299,0.341383427
20.6,-0.107396424,0.018425941,0.206798524
20.61,-0.136532784,-0.06791687,0.062715977
20.62,-0.060680568,-0.099244118,0.057016224
20.63,-0.012091219,-0.104336739,0.076538235
20.64,0.012012839,-0.04725647,0.360708326
20.65,0.01477015,-0.018949509,0.427882671
20.66,0.013352513,-0.019320488,0.421466947
20.67,-0.078117549,-0.036250114,0.095318407
20.68,-0.121567071,-0.053081512,0.072600901
20.69,-0.121877432,-0.053160667,0.071117967
20.7,-0.000549972,-0.110719681,-0.01661554
20.71,-0.00226146,-0.110897064,-0.018732101
20.72,0.206204116,-0.065677643,0.384973347
20.73,0.112560868,-0.073156357,0.443721473
20.74,-0.061454892,-0.042245865,0.378454775
20.75,-0.062184364,-0.042398453,0.375754267
20.76,0.024996251,-0.056954384,0.167150229
20.77,0.005910426,-0.095541,0.263908029
20.78,0.019668341,-0.086359978,0.30604887
20.79,-0.04328391,-0.110729218,0.141841322
20.8,-0.04566586,-0.111048698,0.137028962
20.81,-0.443631083,0.051603317,-0.108085394
20.82,-0.301774323,0.037142754,0.010787249
20.83,-0.113277555,-0.032540321,0.213834897
20.84,-0.116830796,-0.03304863,0.20523192
20.85,0.204346746,-0.107927322,0.91685158
20.86,0.114409149,-0.072680473,0.674125314
20.87,-0.026186973,0.034584045,0.296798229
20.88,-0.169843286,-0.049456596,-0.066661954
20.89,-0.073655427,-0.123762131,-0.098418176
20.9,-0.011318922,-0.049853325,0.312161595
20.91,-0.014571935,-0.050356865,0.301397622
20.92,-0.177752525,-0.024572372,0.508893251
20.93,-0.124214351,-0.060939789,0.245446235
20.94,-0.124815583,-0.061228752,0.236304313
20.95,-0.142949641,-0.058959007,0.230143458
20.96,-0.033877701,-0.035088539,0.08892931
20.97,0.060311973,0.012752533,0.076633587
20.98,0.000541776,0.031840324,0.220309436
20.99,0.026822537,0.067661285,0.44426775
21,0.100784928,0.03400898,0.305834293
21.01,0.064207584,0.031534195,0.21063444
21.02,0.063812912,0.03151226,0.210566044
21.03,-0.14895007,0.031524658,0.304081857
21.04,-0.161302537,0.031553268,0.006335407
21.05,-0.1496979,0.031593323,-0.079879582
21.06,-0.157874495,0.038777351,0.00066641
21.07,-0.168820322,0.041075706,0.214859366
21.08,-0.136212885,0.045769691,0.246145159
21.09,-0.133922011,0.031353951,0.338036627
21.1,-0.116004378,-0.02367878,0.26086393
21.11,-0.173887998,-0.023557663,0.2476767
21.12,-0.034633338,-0.095228195,0.210411072
21.13,-0.021047175,-0.095140457,0.083455473
21.14,-0.072901368,-0.047230721,0.204989493
21.15,-0.000855953,-0.013770103,0.226467893
21.16,0.127331168,-0.045032501,0.20680055
21.17,0.091637105,-0.016451836,0.204692185
21.18,0.089862347,-0.016570091,0.203462958
21.19,-0.010099083,0.031187058,0.135261804
21.2,-0.107957125,0.031097412,0.161374956
21.21,-0.009392858,0.023815155,0.132178947
21.22,0.037967265,0.002132416,0.082164571
21.23,-0.008722901,0.030726433,0.140748859
21.24,-0.01194945,0.030599594,0.141924322
21.25,-0.020370603,-0.046154022,0.205110133
21.26,0.007396668,-0.063030243,0.170210153
21.27,-0.156396747,-0.015296936,-0.001469195
21.28,-0.175515801,0.032516479,-0.060248226
21.29,-0.239284605,0.044477463,-0.006159633
21.3,-0.037312895,0.056393623,0.291444153
21.31,0.046028465,0.003567696,0.510491729
21.32,0.064299673,-0.04693985,0.457746983
21.33,0.056738973,-0.109355927,0.620962262
21.34,0.129184663,-0.099934578,0.569604099
21.35,-0.058037698,-0.10478878,-0.085570782
21.36,-0.139163703,-0.011311531,-0.532000899
21.37,0.001695037,0.029492378,-0.180055469
21.38,-0.000683755,0.029391289,-0.18030566
21.39,0.015438974,0.02193737,0.20238626
21.4,-0.070881248,0.026451111,0.47044003
21.41,-0.02990526,-0.021671295,0.330654532
21.42,-0.205652624,-0.03853035,0.136393368
21.43,-0.204888135,-0.038496971,0.136888444
21.44,-0.160671532,-0.038385391,-0.054337949
21.45,-0.001750648,-0.023916245,0.094202861
21.46,0.038772851,-0.031064987,0.248855665
21.47,0.15768671,0.007190704,0.301326871
21.48,0.175111204,0.019125938,0.19449462
21.49,0.0130606,0.052636147,0.250073731
21.5,0.012005031,0.052660942,0.252552122
21.51,-0.093855053,0.028756142,0.180356115
21.52,-0.054370642,-0.00715065,-0.132994652
21.53,-0.194980413,0.028765678,-0.087175012
21.54,-0.150690973,0.028737068,0.164667487
21.55,-0.171230704,0.028627396,0.306534737
21.56,-0.183660895,-0.021715164,0.330936432
21.57,-0.242785543,-0.095935822,0.274558187
21.58,-0.257011414,-0.136576653,0.201806992
21.59,-0.254222661,-0.136475563,0.200766534
21.6,-0.134616613,-0.172336578,0.094126076
21.61,-0.139517039,-0.155564308,0.186803192
21.62,-0.018419266,-0.098103523,0.238694042
21.63,-0.036111981,-0.06219101,0.150742501
21.64,-0.187743187,0.036008835,-0.008853167
21.65,-0.186619729,0.036006927,-0.011084288
21.66,-0.040131658,-0.007137299,0.10581556
21.67,-0.040719032,-0.007229805,0.103101045
21.68,0.001190573,-0.024107933,0.189182192
21.69,4.77135E-05,-0.024179459,0.187950611
21.7,-0.083869964,0.028495789,0.214686856
21.71,-0.124571204,0.026137352,0.136756569
21.72,-0.124641568,0.026147842,0.137646794
21.73,-0.122686356,-0.057670593,0.113856614
21.74,-0.042126,-0.139111519,0.180380762
21.75,-0.043523937,-0.139204025,0.17890425
21.76,-0.149141789,0.013987541,-0.130967841
21.77,-0.148860693,0.014003754,-0.13081646
21.78,-0.059458017,0.00204277,0.440862298
21.79,0.104829758,-0.117774963,0.473283887
21.8,0.040493399,-0.060492516,0.169659451
21.81,-0.136959881,-0.110851288,0.167435348
21.82,-0.015780061,0.028033257,0.335170865
21.83,-0.01391682,0.028047562,0.332318366
21.84,-0.166886658,0.028164864,-0.149247065
21.85,-0.076454788,0.028252602,-0.074019775
21.86,-0.078956217,-0.017271996,0.17347382
21.87,-0.080246598,-0.017454147,0.167727396
21.88,-0.091016263,-0.087081909,0.481464714
21.89,-0.146193087,-0.072839737,0.214672178
21.9,-0.178751051,-0.092009544,-0.030275613
21.91,-0.177241534,-0.091950417,-0.030701146
21.92,-0.180836171,-0.082308769,-0.190545291
21.93,-0.137396932,-0.053583145,-0.10547252
21.94,0.041822702,-0.003355026,0.336085916
21.95,0.041136682,-0.003399849,0.335206807
21.96,-0.0484218,0.039687157,0.061331183
21.97,-0.096536309,0.027774811,-0.002332315
21.98,-0.063154757,0.027831078,0.032329619
21.99,0.000453353,-0.005703926,0.110830903
22,0.029822439,-0.027296066,0.166476145
22.01,-0.010433286,-0.01781559,0.240451992
22.02,-0.012014657,-0.017892838,0.239911318
22.03,-0.230298787,0.027592659,0.146503031
22.04,-0.261037767,0.027622223,0.051947266
22.05,-0.23844862,-0.068079948,0.039417014
22.06,-0.167681575,-0.123064995,0.061852783
22.07,-0.166618615,-0.123010635,0.062141538
22.08,-0.086925298,-0.127767563,0.073929966
22.09,-0.015038669,-0.120598793,0.142412335
22.1,0.022794932,0.042152405,0.33011508
22.11,0.022963583,0.042139053,0.328618705
22.12,-0.041712224,0.037342072,-0.025350496
22.13,-0.042438775,0.037350655,-0.02381964
22.14,-0.136613369,0.02774334,-0.021088094
22.15,0.04873991,0.020477295,0.147952065
22.16,0.01793018,0.027569771,0.394227445
22.17,0.038039058,-0.017976761,0.365672082
22.18,-0.030359566,-0.022785187,0.28581804
22.19,-0.126557618,-0.00601387,0.157915458
22.2,-0.090773702,-0.056266785,0.023275435
22.21,-0.091315269,-0.056251526,0.025315419
22.22,-0.109219402,-0.056275368,0.143533886
22.23,-0.005319744,-0.058764458,0.170869917
22.24,-0.036085099,0.012960434,0.130940646
22.25,-0.101879865,0.02726841,0.152248308
22.26,0.01712364,0.003317833,0.327710152
22.27,0.092182189,-0.061408997,0.341275603
22.28,0.090095669,-0.061519623,0.340227544
22.29,-0.074795008,-0.154989243,0.243540615
22.3,0.07872802,-0.071335793,0.49651897
22.31,0.009646147,0.02185154,0.429277778
22.32,0.008898228,0.021762848,0.42676726
22.33,-0.056076169,-0.028538704,-0.021366045
22.34,-0.076986372,9.82285E-05,0.091983281
22.35,-0.120437533,-0.040793419,0.231307879
22.36,-0.035185307,-0.007534027,0.338963389
22.37,-0.038686514,-0.00779438,0.331762642
22.38,-0.070394784,0.027900696,0.433516592
22.39,-0.070848644,0.02781105,0.429098785
22.4,-0.163280398,-0.055984497,0.101550229
22.41,-0.162759513,-0.055953026,0.101808585
22.42,-0.012317866,-0.154109955,-0.064119503
22.43,0.032094359,-0.118251801,0.081316352
22.44,0.030449659,-0.118347168,0.079313189
22.45,-0.011724472,-0.001101494,0.180235803
22.46,0.006329566,0.025170326,0.382338107
22.47,0.04105857,0.025098801,0.428775191
22.48,-0.03859672,-0.04436779,0.061923884
22.49,-0.077845007,-0.044409752,-0.062921524
22.5,-0.13642028,0.020181656,0.048079126
22.51,-0.163707823,0.024881363,0.126305819
22.52,-0.164392531,0.024806976,0.123296119
22.53,-0.254988581,0.084661484,0.174133018
22.54,-0.252677977,0.08473587,0.173843101
22.55,-0.151055336,0.0154562,0.005276397
22.56,-0.144885719,-0.027497292,0.092736959
22.57,-0.061985105,-0.072844505,0.228695646
22.58,-0.036959887,-0.063158989,0.306185216
22.59,-0.083752513,-0.039097786,0.232443243
22.6,-0.080284089,-0.038990021,0.230610192
22.61,-0.14408347,-0.043684959,0.084910795
22.62,-0.140852958,-0.043576241,0.08274515
22.63,-0.161482304,-0.038681984,-0.042038232
22.64,-0.127347201,-0.012265205,0.077425405
22.65,-0.074900568,0.014107704,0.19648689
22.66,-0.060909301,0.02374649,0.253643841
22.67,-0.144643158,0.031007767,0.230908215
22.68,-0.038723558,0.033529282,0.122619323
22.69,-0.036432385,0.033633232,0.123133116
22.7,0.051877707,0.026534081,0.168917179
22.71,0.052995592,0.026579857,0.168994933
22.72,-0.080158412,-0.102663994,0.071051776
22.73,-0.078283191,-0.102564812,0.071548626
22.74,-0.15054208,-0.025880814,0.124583319
22.75,0.070866406,-0.033033371,0.551556349
22.76,0.069927871,-0.033123016,0.546301484
22.77,0.182769984,-0.08595562,0.642999709
22.78,-0.386363268,-0.033312798,0.406136215
22.79,-0.248863697,0.026641846,0.353655189
22.8,-0.273603648,-0.028284073,-0.094936885
22.81,-0.209602177,-0.054429054,-0.342846662
22.82,-0.096606314,0.027118683,0.094842628
22.83,-0.026759565,0.055829048,0.495250166
22.84,-0.125131756,0.098840714,0.579136491
22.85,-0.112578303,0.158679962,0.438021213
22.86,-0.154703647,0.103600502,0.254463643
22.87,-0.201112449,0.065333366,0.300006449
22.88,-0.162964582,0.029477119,0.278418958
22.89,-0.09531188,0.010433197,0.393020392
22.9,0.046852797,-0.087592125,0.427635133
22.91,0.042897612,-0.077850342,0.399438083
22.92,0.04650259,-0.077677727,0.401098728
22.93,-0.042738408,-0.096628189,0.249197766
22.94,-0.020218015,-0.137136459,0.058670945
22.95,0.000564873,-0.139406204,0.059224926
22.96,0.001546204,-0.139312744,0.063285604
22.97,0.063605487,-0.100988388,0.148170024
22.98,-0.144846946,0.028323174,0.127972305
22.99,-0.295240581,0.090624809,0.167260289
23,-0.320453852,0.030842781,0.124137551
23.01,-0.257098615,0.018950462,0.014348038
23.02,-0.109827012,0.021447182,0.134844959
23.03,-0.139475405,-0.050284386,0.238026097
23.04,-0.13699767,-0.059717178,0.181384683
23.05,-0.188393593,-0.140900612,0.06131715
23.06,-0.224314898,-0.097499847,0.049870528
23.07,-0.219905049,-0.097249031,0.053962767
23.08,-0.08990863,-0.142541885,-0.005357578
23.09,0.070285976,-0.135239601,0.30667147
23.1,-0.066640437,-0.094443321,0.392387241
23.11,-0.042231351,-0.103888512,0.198502988
23.12,-0.053876638,-0.089339256,0.077449963
23.13,-0.027001321,-0.0627985,-0.066687152
23.14,-0.003349483,-0.060229301,-0.155923709
23.15,0.03394413,0.006918907,-0.073402002
23.16,0.144606859,0.02134037,0.122075059
23.17,0.077370822,0.030897141,0.318548799
23.18,-0.022973418,0.045297623,0.221267909
23.19,-0.199357808,0.023833275,0.065525994
23.2,-0.197908342,0.023965836,0.069372743
23.21,-0.298960686,0.019334793,-0.375779003
23.22,-0.223654687,-0.028413773,-0.13912645
23.23,-0.061518967,-0.069149971,0.100801967
23.24,0.065715462,-0.114761353,0.308156967
23.25,0.168149829,-0.102980614,0.619199395
23.26,0.14136976,-0.119936943,0.799814701
23.27,0.091993868,-0.050645828,0.585208058
23.28,0.091945708,-0.050673485,0.583317161
23.29,-0.000820577,-0.079301834,-0.252384871
23.3,-0.054156482,-0.103183746,-0.040959358
23.31,0.001975089,-0.067318916,0.351183176
23.32,-0.000352889,-0.067472458,0.348586142
23.33,-0.076505005,-0.093972206,0.545701265
23.34,-0.258709103,-0.055700302,-0.124019936
23.35,-0.258453071,-0.055688858,-0.123205692
23.36,0.073981762,0.008946419,0.148842067
23.37,0.177315652,-0.053448677,0.368957043
23.38,0.162663877,-0.063224792,0.465633571
23.39,0.233862758,-0.082604408,0.439022571
23.4,0.165337324,-0.109202385,0.163477704
23.41,0.023404628,-0.085428238,-0.085967541
23.42,-0.153538823,-0.05202961,-0.139444143
23.43,-0.15458855,-0.052097321,-0.140295804
23.44,-0.102585375,-0.018630028,0.037988298
23.45,-0.104259223,-0.018706322,0.038212754
23.46,-0.185994446,0.029179573,0.104584269
23.47,-0.28538385,-0.056916237,0.063890874
23.48,-0.172918499,-0.171696663,-0.153288543
23.49,-0.212044746,-0.24098587,-0.216533527
23.5,-0.208265811,-0.219346046,0.090108365
23.51,-0.20742017,-0.219293594,0.089827791
23.52,-0.037275106,-0.2384758,0.207973257
23.53,-0.030269831,-0.207380295,0.19196862
23.54,-0.11874184,-0.19303894,0.1083906
23.55,-0.10422942,-0.212197304,0.080273114
23.56,-0.104813576,-0.2122612,0.078369327
23.57,0.003485352,-0.142952919,-0.057972744
23.58,-0.00187251,-0.104827881,-0.104696065
23.59,-0.005305916,-0.10504818,-0.109468684
23.6,-0.149231941,9.44138E-05,-0.065162726
23.61,-0.017548978,0.045395851,0.344468921
23.62,-0.054307044,0.028416634,0.204098314
23.63,-0.056459844,0.028283119,0.201277405
23.64,-0.193590134,0.023452759,-0.141272217
23.65,-0.194614887,0.023410797,-0.141175181
23.66,-0.043075234,0.004188538,-0.167391226
23.67,-0.04989174,0.028021812,-0.103337921
23.68,-0.243193626,0.049489975,-0.197639927
23.69,-0.252602607,0.111749649,-0.299722821
23.7,-0.309075147,0.083089828,-0.354535759
23.71,-0.116104752,0.013759613,-0.027908504
23.72,-0.011369109,-0.196950913,0.207701311
23.73,0.022591263,-0.331125259,0.200143218
23.74,0.020469069,-0.331223488,0.199776724
23.75,-0.140942037,-0.271413803,-0.293798089
23.76,-0.23512125,-0.276244164,-0.714055896
23.77,-0.146941602,-0.142148972,-0.598887622
23.78,-0.162789404,-0.01770401,-0.095380306
23.79,-0.165408939,-0.017865181,-0.09908852
23.8,-0.061390609,0.039361954,0.046888229
23.81,-0.153604806,0.027175903,0.041860756
23.82,-0.318599582,0.000711441,-0.143345296
23.83,-0.287021965,-0.047152519,-0.483160436
23.84,-0.285385966,-0.099720955,-0.529618025
23.85,-0.258394033,-0.089944839,-0.392168969
23.86,-0.149968624,-0.041872025,-0.159168661
23.87,-0.147072017,-0.063232422,0.078247249
23.88,-0.06112498,-0.151652336,-0.062655643
23.89,-0.059929043,-0.151506424,-0.055357888
23.9,-0.180401295,-0.285392761,-0.638884962
23.91,-0.178542674,-0.285140991,-0.627107978
23.92,-0.192514598,-0.320915222,-0.373015225
23.93,-0.369708508,-0.232216835,-0.380644262
23.94,-0.369912654,-0.232089996,-0.372066408
23.95,-0.431586057,-0.095426559,-0.522989631
23.96,-0.440076977,-0.157460213,-0.480391532
23.97,-0.613147497,-0.248199463,-0.409466088
23.98,-0.470296681,-0.185616493,-0.56513685
23.99,-0.509099245,-0.0870924,-0.663091898
24,-0.455240905,0.018722534,-0.791486263
24.01,-0.262164235,0.316111565,-0.806460738
24.02,-0.339411885,0.618172646,-0.413785279
24.03,-0.370026529,0.838612557,-0.223376721
24.04,-0.143343717,0.98704052,-0.337226272
24.05,-0.143752605,0.986899376,-0.343025893
24.06,-0.521244884,0.843089104,-0.252964437
24.07,-0.64854002,0.593914032,-0.308761299
24.08,-0.590403795,0.40700531,-0.274043262
24.09,-0.589548171,0.406666756,-0.295588732
24.1,-0.295194566,0.288025856,-1.005465984
24.11,-0.313066751,0.286679268,-1.052079916
24.12,-0.416845769,0.299819946,-1.635155439
24.13,-0.43942225,0.298921585,-1.703448057
24.14,-0.529700041,0.097436905,-1.675615668
24.15,-0.353988379,-0.249124527,-1.269471526
24.16,-0.489476472,-1.11388588,-0.225375578
24.17,-0.387271762,-1.574814796,-0.299403518
24.18,-0.410930276,-1.569808006,-0.411305547
24.19,-0.787473023,-3.184036732,-0.209924579
24.2,-0.792051315,-4.176431179,-0.864019871
24.21,-0.70824039,-4.884705067,-1.696422458
24.22,-0.62478298,-5.486041546,-1.921266556
24.23,-0.635262013,-5.471975803,-2.049031973
24.24,-0.431989789,-5.8736763,-1.343511701
24.25,-0.12420696,-6.111323833,-0.457526624
24.26,0.820501149,-6.141459465,-0.115681648
24.27,0.870407701,-6.060128212,-0.001081347
24.28,0.481087387,-5.876532555,0.245239258
24.29,-0.150685936,-5.595602036,0.65946722
24.3,0.06033355,-5.304288387,0.921673536
24.31,0.273642182,-5.077962875,0.678230763
24.32,0.617293596,-4.671923161,0.376379252
24.33,0.76718688,-3.994300842,0.155482769
24.34,0.511118591,-3.09210968,0.223148584
24.35,0.190015137,-2.132429123,0.372111559
24.36,0.134010762,-2.059736252,0.184015751
24.37,-0.262615025,-1.086381912,0.197792292
24.38,-1.772936463,0.783110619,1.807059526
24.39,-1.440839529,1.299268723,2.101443768
24.4,-1.468098044,1.363191605,1.966331005
24.41,-0.814502478,1.753600121,2.306566238
24.42,0.744467616,1.915207863,2.469624043
24.43,1.731653214,2.056920052,1.670537472
24.44,2.74343586,2.504994392,0.686143398
24.45,2.69123888,2.551861763,0.605918407
24.46,3.415130615,3.251727104,-0.036616325
24.47,2.87682724,4.205249786,0.294335842
24.48,0.857399404,5.369038582,2.568723679
24.49,0.812467217,5.431138039,2.471682549
24.5,0.449546456,4.793971062,2.487401009
24.51,0.945019484,4.120929718,0.870917797
24.52,0.724397659,3.778173447,-0.947670937
24.53,0.197452307,4.027661324,-1.849743366
24.54,-0.126187444,4.402015686,-1.723535299
24.55,0.023457646,4.924268723,-0.712186337
24.56,-0.064210415,5.295418739,0.792532444
24.57,-0.545787633,5.537264824,2.144592762
24.58,-0.894091427,5.350315094,2.635682583
24.59,-0.275478602,4.472784996,1.269690514
24.6,0.063312769,3.343997002,-0.928340912
24.61,0.082501888,3.310339928,-0.879584789
24.62,0.657284856,1.647964478,-2.550609112
24.63,0.670260906,1.619639397,-2.507597923
24.64,0.651038766,1.190900803,-2.977784872
24.65,0.229703665,1.055418968,-3.178946018
24.66,-0.241548061,1.136683464,-2.721565723
24.67,-1.237920523,0.886901856,-0.543282986
24.68,-1.209899902,0.614533424,0.755187988
24.69,-1.212088466,0.624646187,0.738877296
24.7,-0.553115308,-0.300066948,0.75542593
24.71,-0.245702624,-0.239974022,0.471278667
24.72,-0.245627999,-0.241423607,0.473656654
24.73,-0.681702733,-0.828483582,-0.229785442
24.74,-1.519445181,-1.360982895,-0.876367569
24.75,-1.509275436,-1.370731354,-0.86244297
24.76,-1.088813543,-2.572861671,-0.403231621
24.77,-2.54880476,-3.098412514,1.098912716
24.78,-3.288363457,-2.779294491,2.828222275
24.79,-2.560158014,-1.577281952,3.203122139
24.8,-1.769350529,-0.092409134,2.626596451
24.81,-1.352728844,1.434163094,1.254397869
24.82,-1.448984861,3.492288589,-0.185035706
24.83,-1.387503505,3.469697952,-0.153957844
24.84,-2.453663349,7.244986534,-0.295902729
24.85,-3.233225822,8.773762703,1.851191521
24.86,-3.142620564,8.766828537,1.854846954
24.87,-2.464346647,10.79514694,4.941430569
24.88,-1.260437727,11.65846062,3.786292076
24.89,-1.185337543,12.13830948,1.287992954
24.9,-1.347956061,12.59517765,-0.631045342
24.91,-1.502568126,11.16549778,-1.254313469
24.92,-1.489205718,11.15378094,-1.232549667
24.93,-0.156420395,6.156540871,-1.050525427
24.94,-0.484644651,3.920830727,-1.170255184
24.95,-0.309231877,1.152730942,-0.488597393
24.96,0.55014509,-1.541031361,1.170814991
24.97,0.822153807,-4.008833408,2.672077179
24.98,0.79563272,-6.22286272,3.317116261
24.99,0.660813689,-8.153648376,1.373643875
25,-0.709243,-9.37479496,-2.27466464
25.01,-1.826446533,-10.15769196,-6.464783192
25.02,-2.686827183,-10.30024338,-9.402288437
25.03,-1.939026117,-10.32514381,-8.803537369
25.04,-0.414101809,-10.97033024,-6.484344482
25.05,1.289274454,-11.10057259,-3.735273123
25.06,2.157698154,-10.94386387,-2.071217299
25.07,2.021766901,-10.63894463,-1.014038563
25.08,1.811920881,-9.880582809,-0.355587483
25.09,1.490370989,-8.882461548,-0.912024498
25.1,1.777580976,-6.571120262,-2.970284224
25.11,2.271879911,-3.561604977,-2.941555023
25.12,3.336919069,-0.097490311,-0.443963528
25.13,6.422254086,2.402472496,2.760406017
25.14,9.321630478,3.81415844,2.915924072
25.15,9.188002586,3.836613655,2.904390335
25.16,4.302680492,9.048803329,3.911660671
25.17,0.709441185,11.07398415,6.84299469
25.18,-1.169943452,12.19668961,9.374036789
25.19,-2.419290781,12.09772587,9.115058899
25.2,-1.48522234,10.32539272,6.676320076
25.21,-1.438472509,10.30476665,6.704025269
25.22,2.729833126,6.169255257,0.353852272
25.23,3.071046829,5.56680584,-0.285574436
25.24,2.8719275,5.731026649,0.750491142
25.25,2.916380405,5.740483284,0.72329998
25.26,3.468813419,5.511068344,5.827337265
25.27,3.479842663,4.728656769,6.426582813
25.28,1.412463188,4.036252975,7.464962482
25.29,1.523062706,3.994394302,7.527243614
25.3,-4.216303825,1.197961807,6.218677998
25.31,-5.451488972,-1.586624622,4.89224577
25.32,-4.914676666,-5.801737785,3.082550049
25.33,-3.399952412,-9.491251945,-0.456958532
25.34,-2.683974504,-12.3684597,-4.149623871
25.35,-2.668981552,-12.41063309,-4.051607609
25.36,-3.682258368,-14.7902565,-9.634710312
25.37,-3.550539494,-15.03647041,-8.154313087
25.38,-3.547991037,-15.06168556,-8.090390205
25.39,-2.819488287,-14.7759428,-4.680263996
25.4,-2.830771685,-14.60653496,-0.622560263
25.41,-3.091003895,-13.76694679,2.127785444
25.42,-2.88544631,-10.06427479,0.695680141
25.43,-1.584082365,-7.942838669,-3.744975328
25.44,-0.848584294,-5.568581104,-5.683776855
25.45,-0.108566031,-1.588789463,-4.057218552
25.46,0.964035869,3.553876877,-0.251755714
25.47,1.005021214,3.547901154,-0.237624168
25.48,-1.401670694,12.22806644,2.195486784
25.49,-3.89845705,15.44195843,4.720658302
25.5,-3.8260324,15.44497681,4.715230942
25.51,-3.718278646,16.15092087,9.518274307
25.52,-0.224141508,13.66082287,19.1710186
25.53,-0.255156815,13.65729332,19.17861938
25.54,-2.482239246,12.0263176,2.206078291
25.55,-5.400287628,11.05115318,-4.80449295
25.56,-5.298118114,9.134561539,-5.395312309
25.57,-3.064571142,6.301955223,-2.514222383
25.58,-0.441555291,3.286243439,0.038745642
25.59,-0.500261426,3.269695282,0.089818239
25.6,1.132118702,0.979748726,1.230959415
25.61,3.436221838,-3.33560276,5.950359344
25.62,3.706345797,-5.710476875,6.815052509
25.63,2.734816074,-7.479969025,3.735764742
25.64,1.679354191,-9.215886116,0.127674818
25.65,0.348153532,-10.8943882,-4.41488409
25.66,-0.441540211,-12.26198864,-7.936198711
25.67,-0.475709617,-12.28889465,-7.832345486
25.68,-0.651005566,-13.04252625,-9.056769371
25.69,0.411219895,-13.85854435,-3.721254349
25.7,1.578822732,-13.9456501,-0.809004307
25.71,1.979076624,-13.66202545,1.191077709
25.72,1.760690928,-12.99090672,1.314706564
25.73,1.345884323,-11.88716793,-0.290281773
25.74,1.304626465,-11.88874817,-0.26999712
25.75,-0.445846111,-9.336733818,-6.175014496
25.76,-1.048664808,-7.270677567,-7.362483025
25.77,-0.179910541,-3.958938599,-6.500865936
25.78,3.766893625,1.779918671,-1.727728844
25.79,8.688704491,5.419511795,3.271726131
25.8,11.05225754,7.736038208,4.437190056
25.81,9.641184807,10.20320892,5.391348362
25.82,9.563632011,10.21500206,5.38061142
25.83,6.142122269,12.92465591,7.427809715
25.84,-1.815489292,17.28480721,8.564478874
25.85,-1.754257441,17.27923584,8.558197975
25.86,-1.419697523,15.89182758,5.26717329
25.87,-2.690337181,13.73064232,1.556817055
25.88,-1.590990067,10.73175812,1.923418522
25.89,-0.928350389,9.183115005,5.083918571
25.9,-0.876875639,9.187170982,5.050675392
25.91,1.454319239,4.805972099,7.717468262
25.92,1.546435833,4.788559914,7.75472641
25.93,0.261733115,2.574707031,7.473983765
25.94,-0.716372192,-3.411086082,6.301921844
25.95,-2.613603354,-5.762537003,3.611012459
25.96,-3.382025957,-8.858841896,0.466125011
25.97,-3.295316696,-8.877748489,0.540707827
25.98,-3.110217333,-13.40278339,-6.118791103
25.99,-2.981935978,-14.5906496,-6.973638535
26,-2.08169508,-15.32863235,-5.321469307
26.01,-1.751119137,-15.92722321,-3.220322132
26.02,-1.728721976,-15.93082237,-3.200105667
26.03,-4.281065464,-14.99507046,-1.089861155
26.04,-4.341692924,-14.4921627,0.14272058
26.05,-3.275512695,-13.02711868,0.184993029
26.06,-3.306530714,-13.01775551,0.137514114
26.07,-3.301316738,-9.701054573,-2.771614552
26.08,-3.319072485,-9.695065498,-2.800234318
26.09,-2.912345648,-7.049870968,-3.643492222
26.1,1.002107501,0.556969643,0.077404976
26.11,0.989241242,0.571763039,0.010998726
26.12,2.044508696,3.554731369,4.298067093
26.13,1.658304453,6.878081322,6.416775703
26.14,-2.980965137,13.83100891,9.552276611
26.15,-3.306776047,16.06466293,12.62175369
26.16,-4.189766407,17.56031036,14.49751091
26.17,-3.586110353,17.56485748,11.64734554
26.18,-3.64927721,17.02095413,5.057860851
26.19,-3.475596428,15.15153599,-0.226181746
26.2,-2.468266726,12.76624107,-1.354189396
26.21,-0.687793851,9.743911743,-0.514252901
26.22,-0.084213898,7.421196938,0.268167257
26.23,0.299373955,5.209639549,1.304333687
26.24,0.092734322,3.537069321,2.270530224
26.25,0.091006406,3.527318001,2.307968378
26.26,0.329447925,1.173495293,2.891945362
26.27,0.768875241,-3.346428394,2.866468906
26.28,0.719028175,-3.363781452,2.93941021
26.29,0.379915237,-5.784832478,1.175025702
26.3,0.342198521,-10.07188225,-1.250147581
26.31,0.319298625,-10.09012699,-1.164479256
26.32,1.8382411,-13.73257065,-3.314016104
26.33,2.044296503,-14.40252686,-4.552763462
26.34,2.063410044,-14.83549309,-4.969058037
26.35,2.213303089,-15.3031044,-3.547379732
26.36,3.076411724,-15.77962685,-1.387952566
26.37,3.207973957,-15.12398434,0.501037717
26.38,2.315030575,-13.68083572,-0.042564154
26.39,-0.19507727,-11.33038902,-1.869336367
26.4,-2.027250051,-9.276530266,-5.077411175
26.41,-2.262670517,-6.063595772,-8.150678635
26.42,0.815832138,0.011609077,-6.389126301
26.43,6.103134632,3.908843994,0.293533802
26.44,5.995939732,3.942146301,0.182726622
26.45,16.19729233,9.723246574,9.531152725
26.46,9.393315315,12.71452522,9.130281448
26.47,1.682180166,14.83786678,8.605161667
26.48,-2.610052109,15.31468105,9.106646538
26.49,-1.529109478,13.83025265,9.41050148
26.5,-1.506998777,13.82001305,9.437413216
26.51,0.606849194,11.31053829,6.015873432
26.52,0.601992488,9.926438332,-0.075133801
26.53,-1.935809135,9.876550674,-3.300114632
26.54,-1.858723164,9.860370636,-3.273214817
26.55,-1.200434923,9.171611786,-4.514116764
26.56,-1.792049408,6.328536987,3.974261045
26.57,-0.479601592,3.548240662,10.91676044
26.58,-0.386824846,2.257763863,15.22119617
26.59,0.460820139,-1.381692886,13.68753815
26.6,-0.271680653,-4.94711113,7.254904747
26.61,-3.124650478,-8.47860527,1.463153362
26.62,-4.50141716,-11.07237053,-2.635015726
26.63,-4.291710854,-13.194561,-5.095345497
26.64,-4.09309721,-14.38907719,-6.908787251
26.65,-5.290596962,-14.11822033,-5.934751511
26.66,-5.088907242,-13.93833828,-3.282922745
26.67,-4.43891573,-13.93432522,0.026064515
26.68,-3.853452682,-14.15840721,2.020308018
26.69,-3.872870684,-14.15242195,1.99018991
26.7,-5.064584255,-13.31505394,0.975623846
26.71,-5.07416153,-13.31109524,0.956125379
26.72,-4.20426178,-10.11877537,-3.027183771
26.73,-3.435693264,-8.118558884,-3.972227573
26.74,-2.457990408,-5.046449661,-3.880048752
26.75,-2.438894033,-5.041267395,-3.908745289
26.76,4.733241081,4.4366436,2.614317894
26.77,6.214015484,8.134731293,4.612491608
26.78,3.497436047,14.10420322,4.618563652
26.79,1.808561444,17.41724396,9.865894318
26.8,-0.49297291,18.52719879,20.45278549
26.81,-0.447146237,18.56132126,20.32137489
26.82,-7.432018757,16.7865715,13.48671341
26.83,-7.714189529,15.63918781,0.074676752
26.84,-7.649129868,15.59373188,0.250708342
26.85,-5.239115715,11.38894176,-7.070775986
26.86,-2.055559874,8.96750164,-2.636922121
26.87,0.165064812,5.853179932,1.088631868
26.88,0.144441724,5.849942207,1.103000164
26.89,2.479178667,1.94551754,3.533689022
26.9,2.510004997,0.564192772,4.927706718
26.91,1.903994203,-1.082530022,6.135432243
26.92,1.21759522,-3.331222534,5.432578564
26.93,0.473055482,-5.398143768,3.204001904
26.94,-0.332980603,-8.169805527,0.078702211
26.95,0.008498291,-10.95408344,-2.463637829
26.96,0.163587108,-13.46935654,-5.45442152
26.97,0.640170574,-15.17037392,-8.253358841
26.98,0.615759552,-15.18766594,-8.140989304
26.99,1.399345756,-16.07777596,-9.125552177
27,2.923147917,-16.65859985,-7.12713623
27.01,5.59271574,-16.61038589,2.198638439
27.02,5.501343727,-16.59170151,2.097340107
27.03,4.242687225,-14.80828667,3.28310442
27.04,1.664218664,-12.44032478,2.378358603
27.05,-1.701819062,-9.608576775,-0.32974112
27.06,-3.50156045,-6.0491786,-6.445030212
27.07,-3.497615337,-6.054087162,-6.417557716
27.08,0.632696688,-0.048399925,-5.353637695
27.09,6.956969261,2.123926163,1.005596995
27.1,14.49720764,3.763641357,1.016349435
27.11,13.57222176,7.584292412,0.097298145
27.12,7.050744057,14.32883644,3.463684082
27.13,6.926533699,14.35020065,3.426951408
27.14,0.242236614,16.78840256,13.41232586
27.15,1.600738049,14.37459183,8.961659431
27.16,1.054913163,12.92900848,3.423336506
27.17,-2.427079439,12.72958755,-0.096583843
27.18,-4.134921074,12.2586031,0.415453434
27.19,-4.094477654,12.25421333,0.412537813
27.2,-1.870920181,10.34046364,3.566012859
27.21,-1.433651328,9.069338799,6.206417084
27.22,-1.283740044,6.170391083,6.208875656
27.23,-1.283262849,2.212190628,5.930837631
27.24,-1.189579606,2.191957474,5.993577003
27.25,-2.372000694,-5.252555847,5.348423958
27.26,-3.990900517,-8.3875494,3.257248402
27.27,-4.901096344,-11.2735014,0.127169013
27.28,-4.804148674,-11.28624058,0.175387979
27.29,-3.746032953,-14.87050056,-5.296410561
27.3,-3.588570118,-14.7911768,-5.190335751
27.31,-3.57462883,-14.80066586,-5.12620163
27.32,-3.318560123,-14.32724953,1.736682653
27.33,-3.343664169,-14.32146263,1.700574398
27.34,-2.992538214,-14.41487694,2.598868132
27.35,-3.578134537,-12.94993591,0.955135226
27.36,-5.540761948,-10.85991478,0.000102043
27.37,-6.155875683,-8.348577499,-1.216057777
27.38,-5.357087135,-6.26300621,-2.474214554
27.39,-4.573914051,-4.934113026,-2.112709045
27.4,-3.184233665,-2.707135201,-1.90294373
27.41,1.02271235,1.432372093,-0.193131924
27.42,6.143788338,5.722423553,4.08051157
27.43,7.383383751,11.95507431,4.754441261
27.44,3.910044909,18.74102783,6.940707684
27.45,-2.097518682,22.42536163,14.60842514
27.46,-7.971825123,22.69749069,25.75455284
27.47,-10.02618313,20.33592606,25.23661232
27.48,-9.593223572,17.04620361,10.11969471
27.49,-8.779624939,14.20118427,-9.833117485
27.5,-8.759007454,14.15700436,-9.647850037
27.51,-5.995688915,10.93868446,-15.14808083
27.52,1.184343457,5.537406921,2.037327766
27.53,1.123782396,5.549588203,1.983631849
27.54,5.480465889,0.831065178,6.622245789
27.55,5.239336014,-0.10485363,5.905531883
27.56,3.464153767,-1.791031361,5.663933754
27.57,1.505316496,-3.72636795,4.054409027
27.58,1.476670146,-3.737388611,4.107216835
27.59,-0.318950117,-8.404661179,-0.671168447
27.6,-0.346742481,-8.418655396,-0.601218343
27.61,1.301109552,-12.53346157,-5.636570454
27.62,1.26068902,-12.54940701,-5.546328545
27.63,2.150116444,-14.14317322,-5.855206966
27.64,2.333046198,-15.23204994,-5.486490726
27.65,2.598504543,-15.2396698,-3.389661551
27.66,2.554025412,-15.23823166,-3.38189435
27.67,2.178540945,-14.49792862,1.46127367
27.68,1.286126375,-13.64722443,0.863440871
27.69,0.104603767,-12.19032001,-2.519476652
27.7,-1.608523846,-9.738822937,-5.508864403
27.71,-2.921133995,-6.603999138,-6.156907082
27.72,-2.789360046,-4.192408085,-4.944439411
27.73,-2.039906025,-2.046263695,-3.107130051
27.74,-0.16516149,0.434649468,-0.850536168
27.75,-0.194683433,0.440359116,-0.86966759
27.76,14.12411308,3.014127731,8.905828476
27.77,14.34729099,4.89710331,10.42173767
27.78,4.446726799,9.558135033,9.063790321
27.79,4.426645279,9.560070992,9.066446304
27.8,-2.584136486,14.98400593,-1.466883421
27.81,0.607110977,15.98822498,-2.255933523
27.82,-0.890496135,16.81544495,-3.120426655
27.83,-2.915824413,18.38395691,-4.158259392
27.84,-5.559509754,18.90587234,-2.064842463
27.85,-6.140176773,16.55570221,2.027170181
27.86,-5.547079563,12.90631866,5.127537251
27.87,-5.531271935,12.93563843,4.987790108
27.88,-1.97583282,5.519458771,5.452438354
27.89,0.791310549,0.650855064,8.746284485
27.9,1.377032995,-3.89351368,12.06767941
27.91,1.297736168,-8.332252502,12.05625248
27.92,1.339660645,-8.368947983,12.20498753
27.93,-3.581539154,-13.83659744,-2.981969833
27.94,-3.478972673,-13.87547684,-2.809429646
27.95,-7.299088001,-13.89061546,-9.863274574
27.96,-5.453969002,-14.18518734,-6.558875084
27.97,-4.316644669,-15.34361839,-2.373984098
27.98,-3.666521072,-15.71529579,0.166162729
27.99,-3.734788179,-15.69363022,0.051294208
28,-3.818350792,-13.84450912,2.478760242
28.01,-4.900154114,-12.06089592,3.069726706
28.02,-5.426831245,-9.323061943,1.303906202
