Time (s),Linear Acceleration x (m/s^2),Linear Acceleration y (m/s^2),Linear Acceleration z (m/s^2)
0,-0.147852898,0.030898094,0.032007396
0.01,-0.307128936,0.03096199,0.124825329
0.02,-0.243604988,0.031032562,0.090613991
0.03,-0.190368623,0.031067848,-0.064932629
0.04,-0.247160494,0.076533318,-0.13021408
0.05,-0.197631925,0.167542458,-0.034423873
0.06,-0.195424795,0.167566299,-0.031711116
0.07,0.02386412,0.033481598,0.310830236
0.08,-0.039276183,0.031104088,0.485408306
0.09,-0.036762744,0.03116703,0.487560511
0.1,-0.054900199,-0.064505577,0.380020261
0.11,0.020727426,-0.014116287,0.256097138
0.12,-0.022934586,0.000369072,-0.020496026
0.13,-0.018763155,0.000441551,-0.015473232
0.14,0.082008779,-0.025860786,0.112991527
0.15,0.032209188,0.017241478,0.415709406
0.16,0.03188917,0.01728344,0.413155019
0.17,-0.059735358,0.031713486,0.497990012
0.18,-0.133951455,0.026990891,0.305776477
0.19,-0.134929478,-0.02077961,0.141700894
0.2,-0.214171201,-0.015911102,0.034621984
0.21,-0.163329154,-0.056517601,0.007924795
0.22,-0.100290477,-0.039671898,-0.012755722
0.23,-0.061295927,0.032185555,-0.094161212
0.24,-0.058264285,0.032216072,-0.088187978
0.25,-0.025996566,0.092108727,0.221873924
0.26,0.070201278,0.06101799,0.270442009
0.27,0.072425425,0.061014175,0.276059866
0.28,0.081118315,0.008290291,0.229274258
0.29,0.034272999,-0.073158264,0.296926975
0.3,-0.005728543,-0.173775673,0.33938843
0.31,-0.014631689,-0.240847588,0.304592401
0.32,-0.051947534,-0.31267643,0.226119608
0.33,-0.113000989,-0.31506443,0.231089845
0.34,-0.055960238,-0.305397034,0.126893863
0.35,-0.19751972,-0.214325905,0.108444601
0.36,-0.393214405,-0.089627266,0.124497816
0.37,-0.291224599,0.03030777,0.09609513
0.38,-0.221127272,0.040091515,0.129813194
0.39,-0.103381753,0.066612244,0.142614082
0.4,-0.100671053,0.066777229,0.141979873
0.41,-0.104792416,0.160303116,0.121446118
0.42,0.017972171,0.100587845,0.249412358
0.43,0.129844874,0.062361717,0.353316635
0.44,0.133417249,0.028897285,0.418529034
0.45,0.124944925,-0.097938538,0.29161489
0.46,0.125907064,-0.097902298,0.292164356
0.47,-0.162519217,-0.181659699,-0.137454271
0.48,-0.255958259,-0.025928497,-0.015934363
0.49,-0.248830438,-0.018624306,0.092412993
0.5,-0.19885093,0.029387474,0.288384646
0.51,-0.044346869,-0.027982712,0.69386822
0.52,0.087994665,-0.145200729,0.683939874
0.53,-0.001793921,-0.178627014,0.540322602
0.54,0.000708401,-0.17844677,0.538700581
0.55,-0.1321643,-0.101656914,0.125702754
0.56,-0.155645967,-0.063269615,-0.266727567
0.57,-0.13842684,0.003727913,-0.243976817
0.58,-0.106168389,0.044387817,0.126205802
0.59,-0.019992232,0.044307709,0.457386851
0.6,-0.022468865,0.044259071,0.452484489
0.61,-0.174092948,0.096972466,0.505642057
0.62,-0.218512118,0.046806335,0.342543304
0.63,-0.141780853,-0.024905205,0.183429182
0.64,-0.138678491,-0.024781227,0.186371654
0.65,0.022058189,-0.194689751,0.060985431
0.66,0.052823305,-0.242517471,-0.02896072
0.67,0.004414558,-0.223324776,-0.023212463
0.68,-0.025057971,-0.129911423,-0.005496338
0.69,-0.062282026,0.006591797,0.135523826
0.7,-0.080558062,0.037744522,0.17285715
0.71,-0.106519759,0.071255684,0.1239288
0.72,-0.120766163,0.099969864,0.101777613
0.73,-0.12107569,0.099905014,0.103749201
0.74,-0.093531251,0.049529076,0.177870527
0.75,-0.075863838,0.035041809,0.19453159
0.76,-0.091764092,-0.003405571,0.160878986
0.77,-0.131168187,0.008461952,0.134801433
0.78,-0.103377044,-0.029924393,0.04573971
0.79,-0.116743147,-0.046803474,0.040387616
0.8,-0.146505833,-0.046867371,0.153624058
0.81,-0.096901715,-0.092400551,0.19384332
0.82,-0.253035545,0.015336037,0.334120035
0.83,-0.252359867,0.015402794,0.332467586
0.84,0.02796787,-0.113854408,0.299956679
0.85,0.027783155,-0.113863945,0.300089955
0.86,-0.058175445,-0.116254807,0.145264074
0.87,-0.058074594,-0.116266251,0.145677909
0.88,0.020260215,-0.015740395,0.088286623
0.89,-0.089003682,0.034439087,0.028787494
0.9,-0.240925551,0.060716629,0.137203232
0.91,-0.150434673,0.091794014,0.149402544
0.92,-0.151030302,0.108494759,0.057584181
0.93,-0.225893438,0.034211159,0.005184203
0.94,-0.226535857,0.034130096,0.00726743
0.95,-0.039089978,-0.107248306,0.429422617
0.96,-0.017392635,-0.210302353,0.450529158
0.97,-0.019153833,-0.210404396,0.44993937
0.98,-0.105597317,-0.164938927,0.297341764
0.99,-0.063034296,-0.162624359,-0.125183553
1,-0.117296517,-0.138816834,-0.045727141
1.01,-0.101249099,-0.069548607,0.406295717
1.02,-0.179347277,0.0284729,0.554962993
1.03,-0.264185786,0.033158302,0.623823106
1.04,-0.210414529,0.030755043,0.310528666
1.05,-0.22729981,-0.038659096,0.150737181
1.06,-0.123471618,-0.069734573,0.167561382
1.07,-0.03881532,-0.160678864,0.041400149
1.08,-0.038954139,-0.160725594,0.043291658
1.09,0.156453401,-0.218241692,0.132343948
1.1,0.154738456,-0.218348503,0.132686481
1.11,0.038363039,-0.077166557,0.197576225
1.12,0.008236825,0.013754845,0.40287596
1.13,0.007271171,0.013723373,0.401209474
1.14,-0.046037972,0.044817925,0.197862729
1.15,-0.154000402,0.042374611,0.314563096
1.16,-0.122439981,0.028004646,0.163220435
1.17,-0.012026846,-0.022301674,-0.084839039
1.18,-0.022227347,-0.089447021,0.070694566
1.19,-0.011042416,-0.09910965,0.078088924
1.2,-0.004966736,-0.082420349,0.091599911
1.21,-0.01099503,0.015673637,0.256833524
1.22,-0.000267506,0.013219833,0.396604061
1.23,-0.035117686,0.025182724,0.376448035
1.24,-0.112682045,0.027569771,0.452082336
1.25,-0.104903281,-0.058560371,0.322490513
1.26,-0.104390621,-0.058494568,0.321075976
1.27,-0.027439237,-0.144664764,0.097584844
1.28,0.055962354,-0.159029007,0.012777507
1.29,0.061822385,-0.139942169,-0.02384156
1.3,0.060190111,-0.140015602,-0.024397433
1.31,0.074970275,-0.061081886,0.093773767
1.32,0.039581984,-0.061185837,0.121204495
1.33,-0.136692345,-0.030100822,0.179774821
1.34,-0.186783612,0.032170296,0.200540617
1.35,-0.186131537,0.032212257,0.200096965
1.36,-0.04556495,0.012998581,0.079082593
1.37,0.156241894,-0.161880493,0.457395017
1.38,0.160349816,-0.166769028,0.655240774
1.39,0.021180063,-0.106955528,0.659001827
1.4,-0.011235237,-0.006341934,0.241112799
1.41,0.06742543,-0.06139946,-0.285743296
1.42,0.001576185,-0.047120094,-0.25807184
1.43,-0.000535429,-0.047188759,-0.259916574
1.44,0.024627924,-0.0903368,0.140423209
1.45,-0.046402603,-0.032885551,0.726303041
1.46,-0.154298008,-0.025597572,0.681410193
1.47,-0.102487862,-0.054158211,0.244702011
1.48,-0.085608453,-0.089936256,0.076565713
1.49,-0.149614692,-0.068260193,0.146920472
1.5,0.030734211,-0.068137169,0.176495358
1.51,0.030353397,-0.068070412,0.173220873
1.52,0.129997879,-0.039312363,0.191814005
1.53,0.016582578,0.030139923,0.210533395
1.54,-0.097652286,0.032603264,0.242539331
1.55,-0.089257747,0.032681465,0.277746201
1.56,-0.028133035,0.032752991,0.188916624
1.57,-0.09898892,0.032767296,0.202314213
1.58,-0.097694218,0.032800674,0.203508973
1.59,-0.180383265,0.032797813,-0.011649668
1.6,-0.29583782,0.030408859,-0.037003592
1.61,-0.300511003,0.001716614,0.062437624
1.62,-0.218523562,-0.074817657,-0.020421594
1.63,-0.26400137,-0.170549393,-0.110024631
1.64,-0.275665104,-0.074719429,0.085134953
1.65,-0.216438353,-0.043499947,0.183701202
1.66,-0.026230931,-0.00033474,0.084870741
1.67,-0.034064353,0.033164978,0.110492319
1.68,-0.03505832,0.033146858,0.109000623
1.69,0.030307025,0.033104897,0.147466317
1.7,0.001134157,0.033033371,0.151570484
1.71,-0.000819027,0.032997131,0.148588255
1.72,-0.112276375,0.083270073,0.217926428
1.73,-0.050714672,0.03539753,0.323454052
1.74,-0.127643287,0.03303051,0.278982878
1.75,-0.193563342,-0.017224312,0.064296007
1.76,-0.334685087,-0.045879364,-0.016659886
1.77,-0.330100954,-0.045740128,-0.012597457
1.78,-0.280294478,-0.079175949,-0.408767134
1.79,-0.197594225,-0.165306091,-0.223495677
1.8,-0.027955234,-0.153264999,0.40114224
1.81,0.279967129,-0.246628761,0.628613055
1.82,0.332058191,-0.16531086,0.689470768
1.83,0.329411447,-0.165337563,0.684729695
1.84,0.126597554,0.033421516,0.667827964
1.85,0.038970411,0.086007118,-0.280234784
1.86,-0.031110823,0.133656502,-0.030621782
1.87,-0.155711174,0.155018807,0.569965422
1.88,-0.088987291,0.068706512,0.626122356
1.89,-0.069753706,0.015909195,0.252496362
1.9,-0.168602824,0.032538414,-0.016747281
1.91,-0.169808984,0.032428741,-0.014637738
1.92,-0.274750799,-0.020319939,0.103879914
1.93,-0.099438578,-0.008389473,0.126286417
1.94,-0.099719465,-0.008483887,0.129754961
1.95,0.110288471,-0.109157562,0.183565244
1.96,0.03982985,-0.094939232,0.025027394
1.97,-0.039766073,-0.030465126,0.011937618
1.98,-0.055962801,0.01013279,0.111318544
1.99,-0.098585129,0.007659912,0.243268296
2,-0.02855435,0.026759148,0.106480613
2.01,-0.028549671,0.026638985,0.112141118
2.02,-0.129104823,0.031299591,0.058910966
2.03,-0.142876327,0.031236649,0.135389686
2.04,-0.173527837,0.012041092,0.213202909
2.05,-0.144186586,-0.014328957,0.165838733
2.06,-0.155154914,-0.093340874,0.080840111
2.07,-0.118175477,-0.086182594,0.02246201
2.08,-0.124692857,-0.09817028,-0.009915754
2.09,-0.100029647,-0.071827888,0.255260646
2.1,-0.075412422,-0.045442581,0.371740192
2.11,-0.15843752,-0.038196564,0.259958088
2.12,-0.049315393,-0.026136398,0.345491469
2.13,-0.048808336,-0.026099205,0.344795317
2.14,0.066078573,-0.057232857,0.269085705
2.15,0.003334403,0.031273842,0.027051672
2.16,0.100856394,0.031209946,-0.100335382
2.17,0.139646798,0.03109169,0.088251695
2.18,0.036901146,0.030977249,0.291684389
2.19,-0.105546206,0.030945778,0.120147765
2.2,-0.234666646,0.088422775,0.196311548
2.21,-0.229273945,0.050146103,0.280019403
2.22,-0.229157925,0.050141335,0.280148566
2.23,0.138456494,-0.184544563,0.306450516
2.24,0.011401892,-0.263692856,0.146747232
2.25,-0.033289045,-0.297324181,0.177330881
2.26,-0.050439715,-0.148896217,0.196089342
2.27,-0.081491321,-0.098589897,-0.094707444
2.28,-0.082143068,-0.098644257,-0.093950495
2.29,-0.0713045,0.030603409,0.147825092
2.3,-0.074185908,0.030508995,0.144805461
2.31,-0.077972442,0.039962769,0.305749238
2.32,-0.178993404,-0.000785828,0.504413962
2.33,-0.065595835,-0.089375496,0.28629607
2.34,-0.157216877,-0.048659325,0.049200386
2.35,-0.156499356,-0.048610687,0.049312025
2.36,-0.1092619,-0.079676628,0.012121812
2.37,-0.038955271,-0.103588104,0.199691832
2.38,-0.066731155,-0.146649361,0.322600663
2.39,-0.036317021,-0.09871006,-0.044755161
2.4,0.043498635,-0.129873276,-0.167796806
2.41,0.000388563,-0.091637611,0.097333357
2.42,-0.002416641,-0.065351486,0.187905401
2.43,-0.003590673,-0.065422058,0.188928306
2.44,-0.033692956,-0.008043289,0.117978022
2.45,-0.102381885,-0.022501946,0.035030037
2.46,-0.257167965,0.025276184,-0.179109126
2.47,-0.293908626,0.010840416,-0.222719938
2.48,-0.440915346,0.029932976,-0.20424737
2.49,-0.233192712,0.099355698,0.091408789
2.5,-0.191564947,0.029878616,0.266002119
2.51,-0.127841026,0.029892921,0.418758214
2.52,-0.127875507,0.029957771,0.415420592
2.53,-0.229683638,0.018063545,0.056481108
2.54,-0.262651205,0.008627892,0.006732672
2.55,-0.10656485,-0.019980431,0.074587762
2.56,-0.013838202,-0.048643112,0.097281322
2.57,-0.012598425,-0.048603058,0.098587155
2.58,0.029628664,0.001723289,0.047253415
2.59,-0.022345692,0.030475616,0.036184534
2.6,-0.021993518,0.030498505,0.035903379
2.61,0.063398689,0.042448044,0.171561062
2.62,0.153201282,-0.000695229,0.2715922
2.63,0.052432776,0.030422211,0.230804175
2.64,-0.08291626,0.030447006,0.105319232
2.65,-0.020004034,-0.053347588,0.313066959
2.66,0.127397358,-0.113259316,0.411349118
2.67,0.075122893,-0.110966682,0.212062568
2.68,-0.120630384,-0.111045837,0.441846311
2.69,-0.091647387,-0.039181709,0.588543654
2.7,-0.10257864,0.001615524,0.356488437
2.71,-0.165673912,-0.012678146,-0.203581885
2.72,-0.164738387,-0.012716293,-0.198789984
2.73,-0.153509945,-0.060667038,-0.251624256
2.74,-0.163132221,-0.012861252,0.308694601
2.75,-0.166222006,-0.012929916,0.30345726
2.76,-0.13343361,-0.015363693,0.211328149
2.77,-0.092917979,-0.020138741,0.698912859
2.78,-0.163016498,-0.000882149,0.318595111
2.79,-0.161945373,-0.00079155,0.316200316
2.8,-0.153402686,-0.024668694,0.03864567
2.81,0.057707965,-0.031835556,0.239851862
2.82,-0.040849835,-0.022276878,0.045703396
2.83,-0.030988067,0.025594711,0.11147812
2.84,-0.037786007,-0.017484665,0.344468027
2.85,-0.037108541,-0.017469406,0.345312059
2.86,0.016584039,-0.024652481,-0.049713507
2.87,0.050813198,-0.03670311,-0.139514193
2.88,0.051140249,-0.036790848,-0.134093925
2.89,-0.072704732,0.018303871,0.379541099
2.9,-0.068605363,0.018284798,0.476187766
2.91,-0.068846792,0.018314362,0.473910481
2.92,-0.321780652,-0.065431595,0.133105725
2.93,-0.318744928,-0.06530571,0.134866893
2.94,-0.248815924,-0.055607796,0.030938014
2.95,-0.24490577,-0.055448532,0.03229177
2.96,-0.202434689,-0.072040558,-0.094637021
2.97,-0.248597115,0.031098366,0.165490717
2.98,-0.180001468,0.06003952,0.262948126
2.99,0.15879184,0.081793785,0.338377208
3,0.01733166,0.101072311,0.479406148
3.01,0.021180749,0.101281166,0.479537666
3.02,0.074618369,0.031955719,0.233566761
3.03,0.077775389,0.032075882,0.235538945
3.04,-0.118191361,0.020200729,0.130866483
3.05,-0.115093112,0.020301819,0.134495199
3.06,-0.150112391,0.001229286,-0.288383246
3.07,-0.176086187,-0.017860413,-0.03344284
3.08,-0.173944533,-0.017783165,-0.030669868
3.09,0.142232716,-0.084828377,0.551353991
3.1,-0.076346815,-0.108804703,0.426233858
3.11,0.01515758,-0.144703865,0.36696738
3.12,-0.053068459,-0.094371796,0.371239126
3.13,-0.117053986,0.011109352,0.160070598
3.14,-0.345114648,0.032829285,-0.271773458
3.15,-0.191868722,0.032998085,-0.355331302
3.16,-0.036156714,0.033050537,-0.037644677
3.17,0.003454685,0.040172577,0.538692296
3.18,0.088528305,0.068879128,0.571957946
3.19,0.087496907,0.068852425,0.570503652
3.2,0.013623059,0.114356995,0.38861528
3.21,-0.169108748,0.05696106,0.122018948
3.22,-0.158603191,0.006817818,-0.148887888
3.23,0.018986285,-0.139168739,-0.09858612
3.24,0.090080291,-0.244490624,0.192100644
3.25,0.091709942,-0.244438171,0.196308032
3.26,-0.054420412,-0.179733276,0.050939262
3.27,-0.052161515,-0.179647446,0.056907229
3.28,0.002219915,-0.079055786,0.125789791
3.29,-0.019478261,-0.021522522,0.203208387
3.3,0.018527567,0.033634186,0.151101768
3.31,-0.106899798,0.033680916,0.170747399
3.32,-0.186431766,0.043327332,0.211007446
3.33,-0.184733152,0.043399811,0.214745462
3.34,-0.183033347,-0.01876545,0.1009565
3.35,-0.181083679,-0.0617733,0.054464441
3.36,-0.236266017,-0.095184326,-0.030333105
3.37,-0.159297705,-0.095041275,0.114006609
3.38,-0.147467613,-0.07815361,0.166340992
3.39,-0.159448624,-0.039698601,0.148416609
3.4,-0.156651139,-0.039532661,0.148830459
3.41,-0.108353317,0.025267601,0.246660799
3.42,0.002136886,0.035021782,0.362704843
3.43,0.004921257,0.035202026,0.36165446
3.44,0.048268557,-0.01252079,0.190822721
3.45,0.051213086,-0.012354851,0.192272931
3.46,0.003963828,0.035720825,0.270432949
3.47,-0.079669058,0.035890579,0.226650342
3.48,-0.018377125,0.019213676,0.199871421
3.49,-0.14681989,-0.011852264,-0.058233872
3.5,-0.145409107,-0.01176548,-0.058055591
3.51,-0.24889195,0.014691353,-0.000849016
3.52,-0.110620558,0.036201477,0.188436121
3.53,-0.113746643,-0.059605598,0.291007727
3.54,-0.083538234,-0.05483532,0.545319498
3.55,-0.069844186,-0.241621018,0.297162622
3.56,-0.119939268,-0.193687439,0.10700199
3.57,-0.054452717,-0.169692993,-0.351315141
3.58,-0.054399252,-0.169704437,-0.348424077
3.59,-0.163243413,0.036141396,0.307105094
3.6,-0.081202567,0.079156876,0.603060722
3.61,-0.141383231,0.040740967,0.509992242
3.62,-0.126468658,0.086156845,0.339862675
3.63,-0.159921229,0.047859192,0.166892692
3.64,-0.199252665,0.043132782,0.132411838
3.65,-0.196850538,0.043272972,0.134331405
3.66,-0.01781249,-0.100296974,0.016851693
3.67,0.03157109,-0.138533592,0.157173276
3.68,-0.02246201,-0.145669937,0.231492743
3.69,-0.021958172,-0.145647049,0.232037514
3.7,-0.000536561,-0.136073113,0.2462167
3.71,-0.000802219,-0.13608551,0.246613592
3.72,-0.151769221,-0.054698944,-0.037191596
3.73,-0.16241163,0.036201477,-0.079228804
3.74,-0.164123416,0.036097527,-0.078460746
3.75,-0.173062682,0.059929848,0.184586838
3.76,-0.174732089,0.059853554,0.182757288
3.77,-0.22536552,0.035890579,0.19020322
3.78,-0.235182822,0.023900032,-0.005720496
3.79,-0.234820426,0.023913383,-0.003284797
3.8,-0.133634567,0.007164955,0.055936038
3.81,-0.212460101,-0.007180214,-0.009932265
3.82,-0.139816165,0.028763771,0.26899603
3.83,-0.098340392,0.016850472,0.280587465
3.84,-0.040021777,0.016906738,0.137468159
3.85,0.06585443,-0.086046219,0.223411799
3.86,0.024970531,-0.07646656,0.244204983
3.87,0.02459085,-0.076516151,0.245953292
3.88,0.044910729,-0.033506393,0.119217999
3.89,0.03637296,-0.088658333,0.118379124
3.9,-0.015745461,-0.048085213,0.114918023
3.91,-0.017708004,-0.048224449,0.116828829
3.92,-0.14293915,-0.115325928,-0.086805671
3.93,-0.183513522,-0.108151436,-0.166555136
3.94,-0.23165679,-0.124940872,-0.126634702
3.95,-0.2321437,-0.124980927,-0.124167435
3.96,-0.006660342,-0.12749958,0.521858335
3.97,-0.009848595,-0.127674103,0.518164754
3.98,0.118381053,-0.118289948,0.666035831
3.99,0.101163566,-0.11846447,0.367783219
4,0.052919507,-0.044400215,-0.12221951
4.01,0.050184846,-0.044569016,-0.120205253
4.02,-0.01558423,0.029426575,0.411736429
4.03,-0.003907919,0.045910835,0.479061514
4.04,-0.00826931,0.045672417,0.47498095
4.05,-0.228285313,0.033590317,0.228767619
4.06,-0.281481624,0.033567429,0.001001727
4.07,-0.204973579,0.009614944,-0.116611242
4.08,-0.101301074,-0.009516716,0.074768171
4.09,-0.100770652,-0.009498596,0.077991806
4.1,0.162011266,-0.107714653,0.060628511
4.11,0.089258313,-0.129348755,0.320442289
4.12,0.069509387,-0.12698555,0.155327857
4.13,-0.014782965,-0.172517777,-0.080201447
4.14,-0.081792891,-0.124643326,-0.22797969
4.15,-0.081477582,-0.124641419,-0.221879616
4.16,-0.334888995,0.033394814,-0.264766872
4.17,-0.219263792,0.038208961,-0.144323722
4.18,-0.266934454,0.078927994,-0.055413552
4.19,-0.261207521,0.043066025,-0.011873612
4.2,-0.139906824,-0.009511948,0.065567873
4.21,-0.133634985,-0.10759449,0.024054319
4.22,-0.078799367,-0.157745361,-0.043711498
4.23,-0.112824321,-0.212692261,-0.039527491
4.24,-0.087223947,-0.238928795,-0.079867251
4.25,-0.014549851,-0.226905823,-0.109581195
4.26,-0.136821806,-0.176631928,-0.036718279
4.27,-0.117913723,-0.147933006,-0.004421762
4.28,-0.135591328,-0.15755558,0.096620157
4.29,-0.03879559,-0.160048485,0.075050786
4.3,0.004539609,-0.093128204,-0.04933504
4.31,0.002337098,-0.093262672,-0.05286672
4.32,-0.138348341,-0.052654266,-0.061440632
4.33,-0.164064288,-0.069499016,-0.098505601
4.34,-0.154029131,-0.072006226,-0.085746735
4.35,-0.299330473,-0.055341721,-0.073545493
4.36,-0.299800158,-0.055339813,-0.078536145
4.37,-0.243703961,-0.038505554,-0.126665831
4.38,-0.244202256,-0.03853035,-0.129533485
4.39,-0.096384943,-0.237283707,0.223615706
4.4,-0.098190546,-0.237352371,0.217222795
4.41,-0.039958358,-0.323597908,0.361477554
4.42,-0.088536263,-0.321187973,-0.051502448
4.43,-0.311389029,-0.215805054,-0.504984736
4.44,-0.282987118,-0.230153084,-0.512943029
4.45,-0.28536731,-0.230220795,-0.522135198
4.46,-0.350989997,-0.110543251,0.556804061
4.47,-0.330735266,-0.079424858,0.492813289
4.48,-0.532082319,-0.103300095,0.016589835
4.49,-0.5307405,-0.103070259,0.005981922
4.5,-0.71051842,-0.028466225,-0.074587837
4.51,-0.703197539,-0.027914047,-0.083110169
4.52,-0.717248499,-0.058315277,0.083013356
4.53,-0.601202488,-0.110237122,0.071077272
4.54,-0.457290649,-0.346578598,0.060849756
4.55,-0.461235881,-0.379336357,0.013332143
4.56,-0.484095573,-0.455145836,0.139808655
4.57,-0.459039867,-0.473406792,0.30177328
4.58,-0.436457098,-0.529901505,0.360017836
4.59,-0.425782263,-0.528842926,0.344579995
4.6,-0.450614512,-0.570809364,0.261858732
4.61,-0.586215198,-0.679725647,-0.414895266
4.62,-0.755280554,-0.700021744,-0.435541928
4.63,-0.650953591,-0.71281147,-0.347838908
4.64,-0.639707506,-0.603438377,-0.268096089
4.65,-0.623534083,-0.601694107,-0.284551561
4.66,-0.354272366,-0.478006363,-0.168118879
4.67,-0.346247733,-0.476688385,-0.187504545
4.68,-0.217837572,-0.358382225,0.062535375
4.69,-0.163951695,-0.415045738,0.232906729
4.7,-0.265125871,-0.434328079,0.007939339
4.71,-0.228344739,-0.494326592,-0.257104576
4.72,-0.390165269,-0.475198746,-0.404357255
4.73,-0.55766207,-0.372006416,-0.599622846
4.74,-0.501262426,-0.208743095,-0.640560448
4.75,-0.551743865,-0.009285927,-0.724374652
4.76,-0.581407487,-0.008301735,-0.765636027
4.77,-0.067237794,0.057445526,-0.500088811
4.78,0.115470171,0.008237839,-0.475458711
4.79,0.487884641,-0.060061455,-0.560702264
4.8,0.847847819,-0.097265244,-0.47761187
4.81,1.498420358,-0.13439846,-0.099390924
4.82,2.074366093,-0.111347199,0.012237906
4.83,2.331876278,0.065156937,-0.219548523
4.84,2.459618807,0.366436005,-0.368316293
4.85,2.404510736,0.368848801,-0.406295002
4.86,1.666191339,1.252782822,-0.58809334
4.87,1.129493237,1.665398598,-0.744439006
4.88,1.071759224,1.668792725,-0.77878499
4.89,0.79878962,1.820924759,-0.72768414
4.9,-0.016846865,1.388910294,-0.829228282
4.91,-0.370311856,0.863277435,-1.141435385
4.92,-0.41398558,0.866316795,-1.160925746
4.93,-0.816991329,0.33245182,-1.407311678
4.94,-1.0124228,-0.182790756,-1.439254165
4.95,-0.783095837,-1.203548431,-1.272650123
4.96,-0.592366993,-1.685555458,-1.250658989
4.97,-0.352833271,-1.805780888,-1.058646083
4.98,-0.169913143,-2.018622875,-0.568253458
4.99,-0.183080077,-2.014447689,-0.596547186
5,0.226747006,-2.090655804,-0.150113225
5.01,0.459390134,-2.11348629,-0.287085533
5.02,0.621620536,-1.982089996,-0.34306562
5.03,0.601060748,-1.662942886,-0.439908862
5.04,0.776971281,-1.122673988,-0.910796762
5.05,0.75729537,-1.113323212,-0.964087009
5.06,0.791736126,-0.785273552,-1.165114403
5.07,0.548636556,-0.31128788,-1.064991713
5.08,-0.108571261,0.240974426,-1.101558089
5.09,-0.117311627,0.248534203,-1.140941978
5.1,-0.327123284,0.357778549,-1.231401443
5.11,-0.480212003,0.132363319,-1.327481985
5.12,-0.425973624,-0.063393593,-1.572101474
5.13,-0.326020241,-0.219794273,-1.570845008
5.14,0.010423541,-0.355622292,-1.30617857
5.15,0.02193892,-0.3553648,-1.310246229
5.16,0.320547789,-0.218663216,-1.091325521
5.17,0.333882511,-0.218919754,-1.092968702
5.18,0.177181602,-0.029815674,-1.296702862
5.19,-0.154814273,0.430412293,-1.57738471
5.2,-0.445318103,0.68954277,-1.88702333
5.21,-0.681460917,0.74997139,-2.110692024
5.22,-0.679451168,0.894267082,-2.121702194
5.23,-0.480141699,1.097335815,-1.775035977
5.24,-0.209826112,1.220097542,-1.246718884
5.25,0.136562645,1.398713112,-0.702850223
5.26,0.346116245,1.68144989,-0.135585189
5.27,0.19792974,2.072835922,-0.197241426
5.28,-0.06656988,2.372488022,-0.195676565
5.29,-0.175012142,2.776807785,-0.090321302
5.3,-0.144888803,2.780413628,-0.110075712
5.31,-0.108317822,3.369337082,-0.183458567
5.32,0.338237256,3.693922997,-0.019725084
5.33,0.299283266,3.833496094,0.300924301
5.34,0.00517061,3.786945343,0.853985071
5.35,-0.217597783,3.708216667,1.880590916
5.36,-0.00370989,3.583429337,2.894913912
5.37,0.707488298,3.330314636,3.699577093
5.38,1.65294075,2.920907021,4.693869114
5.39,2.301182747,2.36756134,5.50494051
5.4,2.293679476,2.371959686,5.485725403
5.41,2.065422773,1.894935608,6.197698593
5.42,-0.228471071,1.714455605,5.959179401
5.43,-1.597975254,1.61915493,4.880805969
5.44,-2.018686533,1.276042938,4.014575005
5.45,-2.000028133,1.270810127,4.038129807
5.46,-1.429902434,0.249598503,2.929340601
5.47,-1.18210721,0.145688057,3.060482264
5.48,-1.04541707,0.344076157,3.273735046
5.49,-0.830129325,0.920933723,3.073382854
5.5,-0.847129822,0.927600861,3.043879747
5.51,-1.332816362,2.09161377,2.647182226
5.52,-1.48649323,2.45895195,2.6555686
5.53,-1.802747488,2.452922821,3.051928282
5.54,-1.826311946,1.922134399,2.799383163
5.55,-1.827878714,1.927891731,2.776280642
5.56,-1.32071197,-0.179872513,1.120346308
5.57,-1.166131616,-1.095342636,0.350574732
5.58,-1.154976845,-1.098164558,0.362096071
5.59,-1.013619781,-2.05292654,-0.544761658
5.6,-0.912610769,-3.008337498,-1.127918482
5.61,-0.591496527,-4.591068268,-1.495416164
5.62,-0.583267033,-4.595911026,-1.475067377
5.63,-0.213961691,-5.223441601,-1.202518225
5.64,0.319360048,-6.131311417,-0.648865581
5.65,0.195135117,-6.225188255,-0.245673537
5.66,0.340991527,-6.084322929,-0.458018184
5.67,0.335566878,-6.091142654,-0.428651929
5.68,0.796304226,-6.035783768,-0.924472451
5.69,1.394103765,-5.895397186,-1.215641975
5.7,1.40472877,-5.69226265,-0.925908685
5.71,1.063909531,-5.306200504,-0.809463739
5.72,0.593000174,-4.76598835,-0.475968599
5.73,0.025867069,-4.211305618,-0.517910004
5.74,-0.39532584,-3.630865574,-1.061203003
5.75,-0.627989829,-2.996121883,-1.731055975
5.76,-0.857221127,-2.230208397,-2.008788347
5.77,-0.866544247,-2.23982048,-1.955631256
5.78,-1.17072475,-1.461413383,-1.917123318
5.79,-1.864856601,-0.596693993,-1.892180443
5.8,-2.183923244,0.952449799,-1.423041701
5.81,-2.164679527,0.943131447,-1.364961267
5.82,-1.879116416,1.592720032,-0.625009835
5.83,-1.473747015,2.644804001,0.11351049
5.84,-1.069676638,2.751372337,0.199824095
5.85,-1.052053571,2.743703842,0.25756371
5.86,-0.713825524,3.136911392,-0.49226141
5.87,-1.281121254,3.201148987,-0.703653336
5.88,-2.2631073,3.384196281,-0.840170622
5.89,-2.258499861,3.381666183,-0.818246365
5.9,-3.512056112,3.602395058,-0.749613762
5.91,-3.566709518,4.912024498,0.872293234
5.92,-0.605870307,5.523943901,1.476134419
5.93,2.426102638,5.389995575,2.456623077
5.94,3.960654259,4.91300106,3.815562725
5.95,4.453323841,3.952581406,5.004740715
5.96,4.836345196,2.29437542,5.422505856
5.97,4.831308365,2.29236412,5.444882393
5.98,4.203609467,-0.047537804,5.371490479
5.99,3.611546755,-0.619607925,4.032879353
6,2.769360542,-0.284156799,2.224788666
6.01,2.763083935,-0.284147263,2.223374128
6.02,1.074021816,1.511276245,-0.352518439
6.03,1.075740099,1.511151314,-0.35067308
6.04,0.752361655,2.926436424,0.420346558
6.05,1.073328853,3.47541523,0.894156694
6.06,0.984988034,3.823689461,1.213584065
6.07,0.776823521,3.652493477,1.388504028
6.08,0.222684071,3.198767662,1.218704224
6.09,-0.057476118,2.081810951,0.874831677
6.1,0.17685777,0.90956974,1.026684284
6.11,0.132578701,-0.468745232,1.237650156
6.12,0.135722846,-0.468397141,1.234611869
6.13,-0.31643647,-1.71846962,1.150829077
6.14,-0.507193625,-2.895016193,0.936939776
6.15,-0.709728777,-4.97002697,-0.748117149
6.16,-0.481782079,-5.632684708,-1.031744242
6.17,-0.2827968,-6.292725563,-1.298932314
6.18,-0.013854146,-6.641038895,-1.158097029
6.19,0.369364381,-6.610378742,-0.52655673
6.2,0.361646473,-6.363476753,0.170512021
6.21,0.29850772,-6.034493923,0.482672572
6.22,0.201133609,-5.609507561,0.343440473
6.23,0.051000625,-5.246850491,0.054526389
6.24,-0.037742853,-5.037505627,-0.525548339
6.25,-0.050415218,-4.78042078,-1.16006124
6.26,-0.175089181,-4.489837646,-1.439783096
6.27,-0.146995008,-4.488671303,-1.434312582
6.28,-0.048036933,-3.536679745,-1.489453316
6.29,-0.09861666,-2.857535839,-1.56237638
6.3,0.018407226,-1.953507423,-1.294796228
6.31,0.039263248,-1.95242691,-1.29095006
6.32,0.090638757,-0.426239967,-0.022328317
6.33,0.514443755,-0.025276184,0.327774108
6.34,0.808175981,0.202952385,0.363989711
6.35,0.921857715,0.576583862,-0.098772109
6.36,0.841675282,1.026459694,-0.742507458
6.37,0.532879949,1.808776855,-1.226443768
6.38,0.448677987,2.65094471,-1.370421648
6.39,0.492465228,3.4164505,-1.197318077
6.4,0.176689684,3.981042862,-1.147311926
6.41,-0.325607479,4.313735962,-1.173826218
6.42,-0.760775805,4.433803558,-0.820991576
6.43,-0.77786231,4.690889359,-0.042665184
6.44,-0.4704988,4.845317841,0.53897351
6.45,-0.454229832,4.84665966,0.538283229
6.46,0.510915756,5.068319321,1.304586649
6.47,0.091620326,4.914685249,3.118620634
6.48,-0.09670192,3.947826385,4.887841225
6.49,0.055933952,2.86379528,5.822005272
6.5,0.313723445,1.293377876,5.958317757
6.51,0.694916606,0.031525612,5.463624954
6.52,0.810196042,-0.592200279,4.240965366
6.53,0.538351655,-0.304191589,2.742949724
6.54,0.108151376,0.596299171,1.357647657
6.55,-0.785258293,1.922657967,0.15502286
6.56,-0.808372617,1.922522545,0.131111264
6.57,-2.375199318,4.15145874,0.446647704
6.58,-2.619327784,4.894708633,2.393908024
6.59,-2.837532043,4.662209511,3.670234442
6.6,-1.599211335,3.484167099,3.779531956
6.61,-0.245885074,2.16617775,2.782119989
6.62,0.112201273,0.779524803,1.379644156
6.63,0.192697793,-0.282567024,0.374922633
6.64,0.169980913,-0.28427124,0.376527727
6.65,0.671760559,-2.424128056,-0.575110674
6.66,0.689602137,-3.318785191,-0.602780938
6.67,1.070657492,-4.165410042,-0.586231351
6.68,0.916605234,-4.70779562,-0.355507612
6.69,0.888000727,-4.709134579,-0.357497931
6.7,0.890678287,-5.65655756,0.398996472
6.71,0.86073029,-5.658819675,0.407017887
6.72,1.354400158,-5.858018875,0.21809417
6.73,0.698584557,-5.757863998,0.433063328
6.74,0.674744487,-5.760172844,0.447042167
6.75,0.465739518,-5.751176834,-0.974105537
6.76,0.373944014,-5.613939285,-1.692525268
6.77,0.243682504,-5.395424843,-2.193371773
6.78,0.075269833,-4.917698383,-2.177341461
6.79,-0.139617533,-4.439164639,-1.830034971
6.8,-0.790537953,-3.732545853,-1.204503179
6.81,-0.95537734,-2.915500641,-0.985556126
6.82,-1.219699621,-2.1060462,-0.835907221
6.83,-1.367589831,-1.383152008,-0.839820564
6.84,-1.366229296,-1.385791779,-0.800810754
6.85,-0.931064725,0.038720131,-0.401672423
6.86,-0.606106103,0.568012238,-0.30320257
6.87,-0.593611121,1.183724403,-0.501089692
6.88,-1.031145573,1.861932755,-0.53817749
6.89,-1.571270108,2.404072762,-0.518460691
6.9,-1.880336046,2.917822838,-0.490800977
6.91,-2.19617033,3.254648209,-0.529872656
6.92,-2.458915949,3.491163254,-0.908762217
6.93,-3.126980305,3.644050598,-1.57153511
6.94,-4.136380196,3.785152435,-1.883253336
6.95,-4.551288128,4.151544571,-1.199052453
6.96,-3.274307013,4.867689133,0.311846554
6.97,-0.491839588,5.63158989,2.33246994
6.98,1.608123779,5.779292107,2.483452797
6.99,2.798404217,5.519231796,1.958441854
7,3.408037424,5.031392097,2.030527353
7.01,3.563608646,4.345153809,2.319245577
7.02,3.288903236,3.161341667,2.324073076
7.03,3.27891922,3.160539627,2.355212212
7.04,3.016517878,2.135085106,2.406225681
7.05,2.467819691,0.259778023,2.508717299
7.06,2.37927556,-0.162031174,1.614217162
7.07,1.862943172,-0.085616112,0.438585669
7.08,1.643247008,0.201735497,-0.157212794
7.09,1.637466431,0.788666725,-0.067860365
7.1,1.754304171,1.457223892,0.279101133
7.11,1.822873831,1.924859047,0.700993061
7.12,1.798054218,1.925906181,0.666808426
7.13,1.704614758,1.716611862,1.680853367
7.14,0.861679435,1.119826317,1.707339525
7.15,0.125022739,0.166585922,0.937935829
7.16,-0.401193708,-0.889623642,-0.037618309
7.17,-0.918176353,-2.13765192,-0.50803268
7.18,-1.03662324,-3.316559792,-0.555975854
7.19,-1.188374639,-4.136637211,-0.088424653
7.2,-1.148788214,-4.913885117,0.239432573
7.21,-1.130614161,-4.913510323,0.230525613
7.22,-0.593979061,-5.978910446,-0.100697935
7.23,-0.329996675,-6.25202179,-0.396704793
7.24,-0.303914726,-6.25209713,-0.395939052
7.25,0.139012754,-6.230295658,-0.497832388
7.26,0.161591664,-6.229478359,-0.509509981
7.27,0.648535669,-5.206035614,-0.433737963
7.28,0.41029346,-4.496048927,-0.421594799
7.29,0.251482219,-3.896061897,-0.545820117
7.3,0.261762798,-3.269705772,-0.738134384
7.31,0.285920084,-2.667284489,-1.178098321
7.32,0.311968684,-2.665903568,-1.190522909
7.33,0.275230557,-2.161754608,-1.462943792
7.34,0.278275967,-1.607517242,-1.536701322
7.35,0.312250048,-0.577075958,-1.17168355
7.36,0.325760126,-0.576341629,-1.176504731
7.37,0.328187048,0.544868469,-0.388375461
7.38,0.090010971,1.199090004,-0.424438596
7.39,0.108068436,1.652242661,-0.484627992
7.4,0.118571997,1.652897835,-0.488490492
7.41,-0.096438885,2.632715225,-1.09341836
7.42,-0.243917555,3.135935783,-1.261554599
7.43,-0.104618907,3.65610218,-1.045529604
7.44,-0.108074307,3.657353401,-1.062875271
7.45,-0.500424922,3.888625145,-1.629637957
7.46,-1.310523152,3.662777901,-1.650929332
7.47,-1.410286069,3.722468376,-0.274263203
7.48,-1.009083509,4.218646049,1.323622227
7.49,-0.082226902,4.57830143,2.254648685
7.5,0.91584301,4.674129486,2.708879471
7.51,0.950435877,4.46997261,3.399347782
7.52,0.388249755,3.925507545,4.414180756
7.53,0.113328219,2.761189461,4.767858982
7.54,-0.213870734,1.278623581,4.808049679
7.55,-0.206439108,1.281219482,4.785544395
7.56,0.052061886,-0.728650093,4.634749889
7.57,0.04596591,-0.724654198,4.595235825
7.58,-0.356005132,-0.306613922,2.22061038
7.59,-1.188363433,0.661827087,1.015950322
7.6,-1.909522295,1.972280502,-0.027843356
7.61,-1.788406372,2.997751236,-0.134361386
7.62,-1.821526647,3.973049164,0.978975415
7.63,-2.705871344,4.4373312,2.669386148
7.64,-2.232567549,4.170431137,3.748154402
7.65,-1.270719886,3.149535179,3.804219723
7.66,-0.107120454,1.504803658,2.660786152
7.67,0.321867794,-0.016719818,1.231976271
7.68,0.377866447,-1.463644028,0.289005995
7.69,0.484939635,-2.5263381,-0.528318822
7.7,0.588036299,-3.589712143,-1.188246608
7.71,0.567397952,-3.592859268,-1.170315742
7.72,0.537690401,-5.041834831,-1.394401908
7.73,0.343461216,-5.528139591,-0.989649534
7.74,0.048676282,-5.698263645,-0.513450503
7.75,0.207336649,-5.856531143,-0.210198164
7.76,0.370224416,-6.029595375,-0.286148131
7.77,0.386588752,-6.103071213,-0.617070377
7.78,0.150848955,-6.045062065,-0.841935515
7.79,-0.088118717,-5.850744247,-1.078480482
7.8,-0.219584882,-5.553251743,-1.303573251
7.81,-0.237239331,-5.157166481,-1.449595094
7.82,-0.209680215,-4.46833849,-1.362897635
7.83,-0.441153228,-3.755114079,-0.874571443
7.84,-1.064941049,-3.048739433,-0.986921251
7.85,-1.078218818,-3.051281929,-0.962717354
7.86,-1.196218967,-1.545948982,-1.299272299
7.87,-1.160863042,-0.675269127,-1.4081707
7.88,-1.207404733,0.125946045,-1.64040935
7.89,-1.201210856,0.122662544,-1.605549574
7.9,-1.239558578,0.833415985,-1.05105269
7.91,-1.744507551,2.105000496,0.010312915
7.92,-2.056624651,2.754220963,-0.018689752
7.93,-2.040605307,2.751927376,0.009287238
7.94,-1.209331512,3.460836411,-0.281104207
7.95,-1.450575829,3.8875494,-0.292397082
7.96,-1.446401715,3.886042595,-0.271913111
7.97,-1.913744807,4.035673141,-0.580534816
7.98,-3.502899885,3.606163979,-1.498118877
7.99,-3.483973503,3.605173111,-1.482098818
8,-2.533679247,4.442088127,-0.291897029
8.01,-0.212642789,4.929346085,0.65400517
8.02,1.560926199,5.153096199,0.688759446
8.03,2.560326099,5.228104591,1.042966366
8.04,3.211711884,4.941792488,2.495455742
8.05,3.978899956,4.112440109,4.263309002
8.06,3.735179663,2.79019928,5.247438908
8.07,3.259502888,1.599957466,5.093093872
8.08,2.663850307,0.469758034,3.486377716
8.09,2.23757267,-0.29205513,1.505709648
8.1,1.922626615,-0.544083595,-0.327219725
8.11,1.845305443,-0.324293137,-1.22897315
8.12,1.877399445,0.190330505,-1.294318795
8.13,1.552301645,1.045376778,-0.597387075
8.14,1.901585698,1.434045792,-0.072076499
8.15,1.884679317,1.435304642,-0.095446289
8.16,1.306359887,2.445272446,1.295146108
8.17,0.540886819,2.363862038,1.683046818
8.18,0.52740103,2.366481781,1.643734694
8.19,-0.188818187,0.063414574,1.001178265
8.2,-0.553386569,-1.366201401,-0.040553749
8.21,-0.862938643,-2.579086781,-0.68857646
8.22,-1.118198872,-3.766277313,-0.878460467
8.23,-1.140795946,-4.805405617,-0.862861395
8.24,-1.119766355,-4.805607796,-0.861216605
8.25,-0.884109855,-6.041268349,-0.406437695
8.26,-0.320412964,-6.268883705,0.510774076
8.27,0.09847872,-6.472400665,0.734815836
8.28,0.40087983,-6.515363693,0.395835936
8.29,0.407041669,-6.268424034,0.19195199
8.3,0.612390995,-5.837033272,0.055111825
8.31,0.642383158,-5.836499214,0.054399908
8.32,1.058482766,-4.739357471,-1.195600986
8.33,0.991510391,-4.070418358,-1.339199424
8.34,1.014440298,-4.069070816,-1.349509239
8.35,0.526802659,-2.65251255,-1.471089602
8.36,0.537132621,-2.651159286,-1.484563351
8.37,0.437393427,-1.264086723,-1.665640116
8.38,-0.016359657,-0.485385895,-1.507111549
8.39,-0.115002573,0.250274658,-0.908082604
8.4,-0.11315462,0.250969887,-0.915982425
8.41,0.157550931,1.350700378,0.162797034
8.42,0.054116786,1.74887085,0.222750604
8.43,0.068961516,2.098876953,-0.241769075
8.44,0.079135433,2.098442078,-0.23267448
8.45,-0.118458927,3.000294685,-1.50717783
8.46,-0.107979924,2.999519348,-1.493395448
8.47,-0.247767001,3.755576134,-1.607403755
8.48,-0.467427671,4.009081841,-1.748708248
8.49,-0.980656505,3.987627029,-1.580766082
8.5,-0.964884639,3.988595009,-1.585535765
8.51,-1.028010845,4.682105064,0.868607342
8.52,-0.61224258,4.945043564,1.269225597
8.53,-0.224948853,4.889456749,1.348450303
8.54,-0.072551012,4.259149551,2.393242359
8.55,-0.297780305,3.282195091,3.931449413
8.56,-0.266676724,3.28471756,3.920769453
8.57,-0.227501214,0.995830536,5.07256794
8.58,0.045059502,0.071995735,4.981502533
8.59,0.151134551,-0.252846718,4.095966339
8.6,-0.042563677,0.079641342,2.980195045
8.61,-0.058312178,0.77530098,1.876626968
8.62,-0.453388214,1.985181808,0.730787516
8.63,-0.664348722,2.933655739,0.245370865
8.64,-1.043679714,3.692637444,0.994976342
8.65,-2.349431753,4.497716904,2.548720837
8.66,-3.272716045,4.344041824,3.38440299
8.67,-2.788441658,3.381295204,2.855490208
8.68,-1.600345373,1.819097519,1.46532023
8.69,-0.96758163,0.353642464,0.563964009
8.7,-0.599296808,-0.710291863,0.345413923
8.71,-0.345460355,-2.090332985,-0.181196153
8.72,0.099518418,-3.245220184,-0.477288365
8.73,0.583454847,-4.040863991,-0.299106658
8.74,1.009003401,-4.829095364,-0.504589796
8.75,1.095702648,-5.433272839,-0.66625464
8.76,1.279144526,-5.760323048,-0.199063778
8.77,1.256090164,-5.762107372,-0.189319849
8.78,1.252859473,-5.663519859,0.541144133
8.79,1.068754435,-5.632336617,0.073638082
8.8,0.687090159,-5.606248856,-0.175049186
8.81,0.322853953,-5.527527332,-0.606482804
8.82,0.072239012,-5.478152752,-0.996182382
8.83,-0.112918094,-5.280661583,-1.442691088
8.84,-0.334276378,-5.044844627,-1.408303738
8.85,-0.483256698,-4.645812511,-1.326362252
8.86,-0.498368651,-4.64869833,-1.294800997
8.87,-0.929300606,-3.583449841,-1.351024628
8.88,-1.357998729,-2.762221336,-1.463195801
8.89,-1.517958164,-1.866727829,-1.422623277
8.9,-1.513050795,-1.869326591,-1.385838747
8.91,-1.136175752,-0.202945709,-0.939299464
8.92,-1.126516819,-0.205155373,-0.903006434
8.93,-1.303943992,1.456879616,-0.623481274
8.94,-1.632653713,2.175848007,-0.448851585
8.95,-1.987209558,2.672524452,-0.245333821
8.96,-1.705761671,2.772072792,-0.047165066
8.97,-1.300390244,2.70181942,0.028288513
8.98,-1.304507494,2.701126099,0.041239172
8.99,-1.449797273,2.688554764,-0.434000135
9,-3.289474487,2.958780289,-2.191659927
9.01,-3.278879166,2.958622932,-2.18422246
9.02,-4.423106194,3.916329384,-1.454357624
9.03,-2.884862661,4.783191681,-0.087603539
9.04,-0.923549712,5.214053154,0.655307949
9.05,1.13569808,5.670782089,0.876465797
9.06,2.383364439,5.595386505,1.832949758
9.07,3.382752895,4.768264771,3.349778652
9.08,3.381503582,4.767292023,3.385077238
9.09,3.499999046,3.729740143,4.110229015
9.1,2.70588851,1.12168026,2.640117884
9.11,2.172008991,0.31419754,1.435969591
9.12,2.16091013,0.313809395,1.440479755
9.13,1.576076269,-0.263360977,0.947346628
9.14,1.352625251,-0.162781715,0.09114027
9.15,1.338445902,-0.162625313,0.068260342
9.16,1.300468802,0.857670784,0.279915929
9.17,1.065808296,1.607656479,0.273002327
9.18,1.054451704,1.608394623,0.24011597
9.19,1.10779047,2.370662689,0.282362908
9.2,0.886165679,2.194677353,0.912618995
9.21,0.463285118,1.535466194,1.524693727
9.22,0.288522422,0.510387421,1.531255484
9.23,-0.289511144,-0.459592819,1.003146172
9.24,-0.297252536,-0.457870483,0.970380247
9.25,-1.361762762,-2.76956749,-0.54832232
9.26,-1.435603857,-3.724127769,-0.633390665
9.27,-1.158600092,-4.688436031,-0.639977038
9.28,-0.786944509,-5.339138031,-0.677883089
9.29,-0.441207886,-5.719088554,-0.599876702
9.3,0.008187532,-5.967077255,-0.252369911
9.31,0.033440053,-5.965675354,-0.266548067
9.32,0.581186891,-5.770047665,0.274213672
9.33,0.619642675,-5.535921574,0.12937814
9.34,0.683786035,-5.105460644,-0.303246796
9.35,0.713058591,-5.103713512,-0.315272212
9.36,0.903565645,-4.108366489,-1.221735239
9.37,0.796268463,-3.570168018,-1.468695164
9.38,0.819023967,-3.568463802,-1.479576111
9.39,0.535315216,-2.154779434,-1.735374689
9.4,0.638073981,-1.505345345,-1.131457448
9.41,0.56291914,-0.97572422,-0.608537495
9.42,0.338713706,-0.489098549,-0.264487237
9.43,0.153961152,-0.031048775,0.045043647
9.44,0.031214267,0.422247887,0.049703717
9.45,0.203455389,0.889712334,-0.547258019
9.46,0.264467299,1.476165771,-0.87968117
9.47,0.035632581,2.364103317,-1.098789573
9.48,-0.134729981,3.297589302,-1.20932436
9.49,-0.261158168,3.982175827,-1.528376579
9.5,-0.266002685,3.982224464,-1.532045126
9.51,-0.682467341,4.432882309,-1.607523441
9.52,-1.107590914,4.462874413,-1.36556685
9.53,-1.347138166,4.184246063,-0.950239301
9.54,-0.738674521,4.765331268,2.044890881
9.55,-0.116099864,5.006481171,2.42275238
9.56,0.316983104,4.906797409,2.932664394
9.57,-0.060952902,4.174650192,3.549218178
9.58,-0.264173448,3.253437996,4.014885426
9.59,-0.356435537,1.959072113,4.501467705
9.6,-0.579742968,0.476120949,4.475790977
9.61,-0.118759632,-0.462719917,3.756637812
9.62,0.39277935,-0.75555706,3.24494791
9.63,0.199897617,-0.452279091,2.740484238
9.64,-0.573884904,0.112061501,1.947870493
9.65,-0.58445394,0.113783836,1.919557452
9.66,-1.713468075,2.370661736,0.334560752
9.67,-2.114421606,3.442056656,0.45255369
9.68,-2.1332376,3.443597794,0.423545003
9.69,-1.934040785,3.893608093,2.670391321
9.7,-2.07499361,3.537240028,3.343425512
9.71,-1.56806159,2.570266724,2.973394394
9.72,-0.69521749,1.290923119,1.822798371
9.73,-0.115984857,-0.1649189,0.488881588
9.74,-0.121971846,-0.166610718,0.50159204
9.75,0.081509918,-1.516889572,-0.46446687
9.76,0.48732695,-3.535387993,-1.054016709
9.77,0.548015535,-4.349590778,-0.876922727
9.78,0.528401613,-4.352042675,-0.862229586
9.79,0.639390588,-5.211889744,-0.403476834
9.8,1.004053831,-5.360834122,-0.011030853
9.81,1.220773935,-5.58449173,-0.137831152
9.82,1.160374999,-5.660078526,-0.364029586
9.83,1.138454914,-5.663945675,-0.329915762
9.84,0.660568476,-5.586237907,-0.569655299
9.85,0.082450032,-5.443581104,-1.046989202
9.86,0.069524795,-5.446648121,-1.013051867
9.87,-0.211643398,-5.178905487,-1.412041545
9.88,-0.469402492,-4.115950108,-1.622362733
9.89,-0.482360184,-4.118253231,-1.594128609
9.9,-0.846232414,-3.507457733,-1.417299271
9.91,-1.582455158,-2.154389858,-1.578111172
9.92,-1.665968657,-1.471809387,-1.494352579
9.93,-1.376361132,-0.712351799,-0.881531715
9.94,-1.359718561,-0.713853836,-0.841427684
9.95,-0.888316155,0.343218803,-0.22699748
9.96,-0.803498507,0.866584778,-0.536537528
9.97,-1.080538034,1.435611725,-0.961430788
9.98,-1.109200954,1.882767677,-1.189401269
9.99,-0.508469224,2.459339142,-0.778183222
10,-0.424055964,2.942470551,-0.587995708
10.01,-0.994437337,3.317835808,-0.958919883
10.02,-1.932918549,3.556936264,-1.169148922
10.03,-3.151820183,3.611977577,-1.114549756
10.04,-4.2649436,3.483054161,-1.433716774
10.05,-4.209049225,3.529210091,-1.044803619
10.06,-2.378340483,4.391922951,0.473144889
10.07,0.393719792,5.101177216,1.528805256
10.08,0.39767611,5.100698471,1.553234816
10.09,2.837600708,5.358399391,1.239414811
10.1,3.12007165,4.804617882,2.383175135
10.11,3.125550032,4.804368973,2.414433002
10.12,2.635555744,2.687737465,4.466631889
10.13,2.766504288,1.373094559,4.045826912
10.14,2.526692629,0.19938755,2.768087864
10.15,1.754850268,-0.371007919,1.451607585
10.16,1.739429712,-0.371407509,1.433752775
10.17,0.93182838,-0.639848709,-0.488529384
10.18,1.130929708,-0.343104363,-0.634550571
10.19,1.429687023,0.34408474,-0.015241325
10.2,1.427994251,1.158485413,0.510713637
10.21,1.40824616,1.159143448,0.46770218
10.22,1.191757202,2.23750782,1.14091146
10.23,0.589641869,2.403927803,1.262991071
10.24,-0.424127817,2.048694611,1.476501465
10.25,-0.43683064,2.050444603,1.433697581
10.26,-0.798445344,1.005788803,1.522040725
10.27,-1.576292872,-1.777472496,0.217370331
10.28,-1.662896156,-3.038570881,-0.481621385
10.29,-1.649410129,-3.038229465,-0.481967449
10.3,-1.019015193,-5.235956192,-0.892409146
10.31,-0.616174698,-5.937018394,-0.782398284
10.32,-0.092158347,-6.204382896,-0.625908196
10.33,0.40794301,-6.222438812,-0.497701466
10.34,0.742636919,-5.912148952,0.116354883
10.35,0.835771799,-5.500842571,0.499032021
10.36,1.035503626,-4.895260334,0.306412756
10.37,0.804257929,-4.289663792,-0.048565447
10.38,0.833404541,-4.287388325,-0.063312352
10.39,0.749286354,-3.303605556,-1.176437616
10.4,0.528656006,-2.813185692,-1.473638296
10.41,0.55259651,-2.811280251,-1.48286736
10.42,0.182992876,-2.306637287,-1.557653666
10.43,0.178723186,-1.754246712,-1.081748009
10.44,0.38859126,-1.170937538,-0.478602588
10.45,0.387733042,-0.736511231,-0.640035987
10.46,0.293001533,-0.149100304,-0.319574356
10.47,0.200953901,0.292372704,-0.445159733
10.48,0.005951047,0.908428192,-1.068200231
10.49,-0.268792927,1.768326759,-1.344310045
10.5,-0.446887851,2.726272583,-1.2005229
10.51,-0.587292314,3.44243145,-0.988336861
10.52,-0.361297667,3.861813545,-0.861437917
10.53,-0.435684919,3.948703766,-0.605395675
10.54,-0.437186837,3.949733734,-0.621009409
10.55,-0.91381824,3.72100544,-0.394509822
10.56,-0.315499663,4.562413216,0.788178027
10.57,0.605627775,5.284082413,1.494635344
10.58,0.864049852,5.389948845,1.506620288
10.59,0.464607954,4.954595566,1.93227005
10.6,-0.307527244,4.162881851,2.942363262
10.61,-0.699444711,3.101085663,3.56286335
10.62,-1.003010392,1.603787422,4.022012711
10.63,-0.884450615,0.341337204,4.132584095
10.64,-0.432373345,-0.488128662,3.918786764
10.65,0.02671361,-0.673541069,3.292000532
10.66,0.119918644,-0.203402519,2.399957895
10.67,-0.289664328,0.532229424,1.965098023
10.68,-0.930309296,1.66537571,1.390855551
10.69,-0.949182332,1.665903091,1.371005297
10.7,-1.838599682,3.301481247,0.992671669
10.71,-2.095911503,3.524780273,1.364175797
10.72,-2.101721764,3.525994301,1.34761858
10.73,-2.829465389,3.429740906,1.972274065
10.74,-2.490046501,2.782664299,2.097953081
10.75,-0.468637765,0.142577171,1.046792626
10.76,-0.47760284,0.142276764,1.04415822
10.77,0.263309509,-2.243269444,0.104807437
10.78,0.248406261,-2.244496822,0.108020544
10.79,0.545982063,-3.275619984,-0.235684812
10.8,0.846639395,-4.196917534,-0.548289776
10.81,1.295075893,-5.230947018,-0.851488352
10.82,1.17142272,-5.628591537,-0.875374019
10.83,1.1049757,-5.628922939,-0.544665694
10.84,1.067275167,-5.631501675,-0.534662724
10.85,0.748688936,-5.504811287,-0.074335217
10.86,0.530885994,-5.213207245,0.061904073
10.87,0.260684699,-4.8762393,0.387706459
10.88,-0.373853952,-4.761853695,-0.321397722
10.89,-0.598870874,-4.664661407,-1.274029493
10.9,-0.75523603,-4.266021252,-1.869974852
10.91,-0.987328053,-3.754343033,-1.870832324
10.92,-0.996137083,-3.756923676,-1.840085268
10.93,-1.758799672,-2.217414856,-1.938014865
10.94,-1.746200919,-1.542299271,-1.627558231
10.95,-1.664693832,-0.859677315,-1.159866333
10.96,-1.628979564,-0.071227074,-0.477858484
10.97,-1.608459592,-0.072377205,-0.447704792
10.98,-0.91004312,1.04490757,0.102670729
10.99,-0.723486185,1.692760468,-0.314931691
11,-0.981068015,2.297517776,-0.692182779
11.01,-0.965534687,2.725141525,-0.905043185
11.02,-0.863362789,3.198308945,-0.711628437
11.03,-0.864116311,3.197463036,-0.692497611
11.04,-1.615059376,3.881469727,-1.22131598
11.05,-2.783657789,3.804290771,-1.778988957
11.06,-2.779700041,3.804029465,-1.768450618
11.07,-3.461339951,3.768257141,-0.734737992
11.08,-3.440514326,3.768624306,-0.72200942
11.09,0.184252784,5.226575851,0.966683626
11.1,1.506254911,5.541816711,0.48341313
11.11,2.178354025,5.703575134,1.171552539
11.12,2.696801662,4.850414276,2.855784655
11.13,2.973489523,3.535443306,3.926971912
11.14,2.606830359,1.614827156,4.570364475
11.15,2.305123806,0.187431335,3.693001509
11.16,1.925073862,-0.557656288,1.908235908
11.17,1.422926188,-0.737649918,0.475490212
11.18,1.318341494,-0.407582283,-0.641658127
11.19,1.162787199,0.193090439,-0.975770354
11.2,1.136305451,0.94244957,-0.545498908
11.21,1.21255219,1.641685486,0.159036279
11.22,1.208653688,1.641929626,0.138112724
11.23,1.36754775,2.398840904,1.058778167
11.24,1.116437197,2.614697456,1.826011896
11.25,1.108714223,2.614988327,1.803618193
11.26,0.924543381,1.834545135,1.652637482
11.27,0.303173155,-0.559615135,0.326586366
11.28,-0.483323216,-1.914559841,-0.425897509
11.29,-0.992802024,-3.080210209,-0.943008304
11.3,-0.829329073,-3.963205814,-0.676303506
11.31,-0.523984671,-4.774234295,0.194980294
11.32,-0.678327322,-5.429427624,0.267471075
11.33,-0.837104559,-5.790027142,0.338216841
11.34,-0.360271782,-5.810451508,0.470933139
11.35,0.046539485,-5.955181122,0.147761673
11.36,0.265379369,-5.960949898,-0.188391924
11.37,0.296839804,-5.959379196,-0.19114092
11.38,0.735437512,-5.28008461,0.000526965
11.39,0.762930751,-5.27819252,-0.010526955
11.4,0.81281811,-4.397575855,-0.575372577
11.41,0.729436278,-3.938396454,-1.00519073
11.42,0.75213182,-3.936468124,-1.018048525
11.43,0.630055904,-2.61776495,-1.25015831
11.44,0.408685267,-1.936371803,-0.998192787
11.45,0.37146014,-1.322181702,-0.545877457
11.46,0.221509755,-0.375329971,-0.590985775
11.47,0.091563761,0.154644013,-0.614191592
11.48,0.140065074,0.550489426,-0.504221261
11.49,0.154644549,0.864696503,-0.859658539
11.5,-0.027228057,1.200204849,-1.356778383
11.51,-0.16614306,1.839631081,-1.475543976
11.52,-0.085985005,2.73509407,-1.204073906
11.53,-0.163461983,3.618449211,-0.771870732
11.54,-0.107639015,4.394071579,-0.826988757
11.55,-0.246215403,4.803351402,-1.183550239
11.56,-0.503720284,4.781861305,-1.251332641
11.57,-0.685144961,4.394351006,-0.95688498
11.58,-0.658931553,4.304003716,-0.270001292
11.59,-0.070476651,4.88903904,0.830893874
11.6,0.228496373,5.330270767,1.090036988
11.61,0.233567715,5.330922127,1.084370136
11.62,-0.104574859,5.374817848,1.899852037
11.63,-0.563551366,4.49741745,3.46858716
11.64,-0.536276698,4.499049187,3.480488062
11.65,-0.233430207,0.97366333,3.547696114
11.66,-0.097232342,-0.308740616,3.581563711
11.67,0.183156729,-1.174618721,3.318437815
11.68,0.246420205,-1.320129395,2.905235529
11.69,0.248150706,-1.32009697,2.908883572
11.7,0.083494544,-1.016498566,2.46264863
11.71,-0.705019951,0.208580971,0.927988708
11.72,-1.697283506,1.213188171,0.106337905
11.73,-2.267470598,2.122323036,0.159551293
11.74,-2.422354937,2.821038246,1.087660193
11.75,-1.985097647,2.871416092,1.765216589
11.76,-1.426569939,2.18454361,1.920008421
11.77,-0.495363653,1.145617485,1.768339872
11.78,0.172953188,0.063118935,1.054786444
11.79,0.155627966,0.062286377,1.045382619
11.8,0.524949491,-1.758733749,-0.748424351
11.81,0.502408564,-1.760562897,-0.745126486
11.82,0.886624456,-3.225410938,0.114419341
11.83,1.021842003,-3.909740925,0.290012896
11.84,1.188713312,-4.625389099,0.078515887
11.85,1.153753996,-4.627703667,0.082223535
11.86,0.981296241,-5.527955055,-0.215524912
11.87,0.952597678,-5.530174255,-0.202469051
11.88,0.456743866,-5.707090855,-0.099025309
11.89,-0.057310551,-5.577462673,0.154274404
11.9,-0.148961395,-5.545967579,-0.320045829
11.91,-0.169654638,-5.548163891,-0.29122892
11.92,0.093797773,-5.140965939,-1.344140887
11.93,-0.319126904,-4.700003147,-1.72746551
11.94,-0.668856263,-3.961808681,-1.816730857
11.95,-0.850065112,-3.077184677,-2.006187201
11.96,-0.96862185,-2.206793785,-1.7964921
11.97,-1.055823803,-1.185365677,-1.473195195
11.98,-1.371828556,-0.106181145,-0.799843252
11.99,-1.628950119,0.769810677,-0.132012665
12,-1.618438601,0.769763947,-0.107072868
12.01,-1.398326993,1.71552372,0.1196073
12.02,-1.45085299,1.935871124,-0.558195651
12.03,-1.52242136,2.07972908,-1.40496397
12.04,-1.512341619,2.079971313,-1.368967295
12.05,-0.72522974,2.549399376,-1.502516866
12.06,-0.731762052,2.54914856,-1.492012382
12.07,-0.600652933,2.993956566,-0.495528728
12.08,-1.618416548,3.127451897,-1.268211722
12.09,-3.049709797,3.450325012,-1.792343497
12.1,-3.827925444,4.312383652,-1.098804355
12.11,-2.334075689,5.062294006,0.645816326
12.12,-0.215769887,5.500627518,1.440012574
12.13,1.264215589,5.691983223,1.494412541
12.14,1.99485755,5.689182281,1.849725246
12.15,1.987098932,5.688863754,1.868138313
12.16,3.075027704,4.544178009,2.854684114
12.17,3.022335529,3.073989868,3.015543461
12.18,2.717187643,1.723515511,3.100879908
12.19,2.27164793,0.408779144,2.420545816
12.2,1.738594651,-0.532532692,1.115526915
12.21,1.418403029,-0.781847954,0.623167396
12.22,1.411612749,-0.782138825,0.61350584
12.23,1.135426879,0.048400879,-0.547504664
12.24,1.308449864,0.874296188,-0.122235075
12.25,1.533704042,1.50389576,0.612789214
12.26,1.732582092,1.805454254,1.38500452
12.27,1.722915173,1.805309296,1.350068808
12.28,1.524074674,1.077353477,1.825955033
12.29,0.896186829,0.375898361,0.978170812
12.3,0.881343722,0.376179695,0.937982023
12.31,0.091959909,-0.530741692,-0.131934479
12.32,-0.516494453,-1.57393837,-0.578345895
12.33,-0.883792162,-2.573901653,-0.647022605
12.34,-0.861524165,-4.466782093,-0.221725375
12.35,-0.709502816,-5.136088848,0.113278449
12.36,-0.33233425,-5.606644154,0.242495477
12.37,-0.172247142,-5.8545084,0.173307329
12.38,-0.111793757,-5.975431442,0.24163729
12.39,0.393335879,-5.88313961,0.136323214
12.4,0.42248103,-5.881793976,0.131447732
12.41,1.170779347,-5.37999773,-0.001438439
12.42,1.387434602,-4.880516052,-0.227701888
12.43,1.210574627,-4.239735603,-0.331697762
12.44,1.096694708,-3.637257576,-0.496044993
12.45,0.890755415,-3.003810883,-0.826890826
12.46,0.70346868,-2.454481602,-1.10821569
12.47,0.404466033,-1.66601181,-1.358682752
12.48,0.182575822,-0.746026039,-1.447070479
12.49,0.218932807,-0.034477234,-1.118967056
12.5,0.223571301,-0.034173965,-1.119954348
12.51,-0.204320431,0.873679161,-0.018435329
12.52,-0.195334911,0.874217987,-0.018306732
12.53,-0.276513994,1.090226173,-0.543044567
12.54,-0.307551384,1.267820358,-1.306817174
12.55,-0.299627304,1.268089294,-1.301007032
12.56,-0.22552532,2.27622509,-1.735206366
12.57,-0.09142226,3.035286903,-1.294491887
12.58,-0.209158838,3.60292244,-1.114810228
12.59,-0.692846477,3.983961105,-1.252423048
12.6,-1.205732822,3.967877388,-1.417088866
12.61,-1.371617794,4.134101868,-0.856065571
12.62,-0.790748954,4.657413483,0.808859885
12.63,-0.065057874,5.018112183,1.778395891
12.64,0.24013108,5.239585876,1.619268894
12.65,0.279283911,4.991568565,1.706400752
12.66,0.040376484,4.463552475,2.215870857
12.67,-0.338350952,3.500014305,2.120526791
12.68,-0.545805097,2.261336327,2.800648451
12.69,-0.342046917,1.092198372,3.513766766
12.7,-0.134991884,-0.110625267,3.958567858
12.71,-0.132125974,-0.109228134,3.938468456
12.72,0.279313892,-0.809242249,4.298420906
12.73,0.416483223,-0.805524826,4.196281433
12.74,-0.414694071,0.488402367,2.131201267
12.75,-0.804804921,1.355463028,1.028416395
12.76,-1.39150548,2.430512428,0.641381383
12.77,-2.192085743,3.182492256,1.094894648
12.78,-2.205046654,3.18313694,1.075701952
12.79,-2.281215191,2.758280754,2.252192974
12.8,-1.572806716,1.873959541,2.121603012
12.81,-1.58880949,1.875198364,2.095814705
12.82,-0.571250558,-0.348705292,0.480769098
12.83,-0.588651478,-0.348924637,0.472162604
12.84,0.27175045,-2.726977825,-0.082625031
12.85,0.582032263,-3.603802204,0.039179325
12.86,1.053919911,-4.337096691,-0.236047387
12.87,1.18995738,-4.821831226,-0.473301411
12.88,0.972728729,-4.938288212,-0.404640257
12.89,0.545803785,-4.916147709,-0.268097222
12.9,0.518731892,-4.918295383,-0.255039573
12.91,0.28738004,-4.918542862,-0.055121839
12.92,0.148037911,-5.187304497,-0.462214202
12.93,0.125680834,-5.190527916,-0.431067914
12.94,-0.229590997,-5.200927734,-0.93825835
12.95,-0.246845499,-5.204126358,-0.901730418
12.96,-0.353821933,-5.171216011,-1.226661444
12.97,-0.430995345,-5.1282444,-1.400389433
12.98,-0.464152068,-4.895768642,-1.642104387
12.99,-0.932901442,-3.724430561,-1.515224457
13,-0.897654295,-2.878571033,-1.287902355
13.01,-1.119559646,-1.805318356,-0.773452282
13.02,-1.230332136,-0.820545197,-0.565545917
13.03,-1.263738275,0.059002876,-0.689612031
13.04,-1.251251459,0.057540894,-0.653575063
13.05,-1.461908937,1.875933647,-0.999330282
13.06,-1.138987899,2.652956963,-0.488604486
13.07,-1.507366896,3.152490616,-0.643820167
13.08,-1.999388576,3.537302971,-1.151907325
13.09,-1.770433068,3.567962646,-1.139232516
13.1,-0.929058671,3.541278839,-0.745138884
13.11,-1.081622839,3.483465195,-0.890498519
13.12,-2.244718552,3.444925308,-1.311616898
13.13,-3.861940861,3.361158371,-1.316348791
13.14,-4.613975525,3.155790329,-1.154486537
13.15,-4.076574802,3.28106308,-0.52719003
13.16,-2.236783504,4.088730812,0.797408462
13.17,-2.209917068,4.089388847,0.812198639
13.18,1.688579679,5.767936707,0.663476884
13.19,2.94231987,5.923210144,0.809925795
13.2,3.254174948,5.410507202,2.603161812
13.21,3.453465939,4.304242134,4.671380043
13.22,3.309658766,2.252207756,5.737485886
13.23,3.029110432,0.365184784,4.805613995
13.24,2.224109173,-0.89949894,2.791408539
13.25,1.388048053,-1.479263306,0.754612207
13.26,0.656731188,-1.527400017,-1.035050511
13.27,0.650929809,-1.527619362,-1.033362389
13.28,0.528565049,-0.426429749,-1.337888241
13.29,0.769346952,0.586292267,-0.514820874
13.3,0.992501259,1.670951843,0.239850819
13.31,1.019772649,2.324825287,1.080123305
13.32,0.802114189,2.698722839,1.962554574
13.33,0.805598497,2.699220657,1.935656071
13.34,0.193387747,1.246482849,2.052715063
13.35,0.264550537,0.025828362,0.901926458
13.36,-0.272119731,-1.39128685,-0.262949586
13.37,-0.70905447,-2.714957237,-0.753261089
13.38,-0.776283085,-3.681718826,-0.813290536
13.39,-0.601097107,-4.633914471,-0.688357592
13.4,-0.406027108,-5.322594643,-0.345696926
13.41,0.054374635,-5.692609787,-0.024906844
13.42,0.417610288,-5.760795593,0.25895083
13.43,0.654966295,-5.62527132,0.458082229
13.44,0.756126523,-5.312434196,0.763994932
13.45,0.803407311,-5.006590366,0.654668212
13.46,0.83082962,-5.004767895,0.643493354
13.47,0.650810123,-4.330203056,-0.488812447
13.48,0.636704981,-3.964561462,-1.309052944
13.49,0.657749534,-3.962955475,-1.318041682
13.5,0.635508776,-3.496978283,-1.710990071
13.51,0.665710449,-2.540290356,-0.470509082
13.52,0.205091417,-2.127198219,-0.556552231
13.53,0.214658856,-2.126051903,-0.568276584
13.54,0.271609217,-1.078944206,-0.502204061
13.55,0.532061279,-0.429605484,-0.736544728
13.56,0.393325359,0.0709095,-0.601105154
13.57,0.28324157,0.719718933,-0.271315545
13.58,0.285553932,0.719672203,-0.267179459
13.59,0.059387267,1.679662704,-0.260038316
13.6,0.059887052,1.67927742,-0.250621676
13.61,-0.2081604,2.698742867,-0.734613299
13.62,-0.158570409,3.308736801,-0.746993065
13.63,-0.255450487,3.614664078,-1.271767497
13.64,-0.607423186,3.702737808,-1.524926662
13.65,-0.813688457,3.582999229,-1.423144102
13.66,-0.919000566,3.73888588,-0.356534541
13.67,-0.205668807,4.436159134,0.807683289
13.68,0.127142489,4.932221413,0.995557785
13.69,0.133999527,4.932578087,0.999052048
13.7,0.27793777,5.378344536,1.624429226
13.71,0.231891662,4.802013397,2.604839563
13.72,0.224212647,3.761405945,3.853651047
13.73,0.050161123,2.381046295,4.262176037
13.74,0.111748397,1.151119232,4.261376381
13.75,0.119454145,1.151565552,4.265337467
13.76,0.049328029,-0.588870049,3.49470377
13.77,-0.026221573,-0.661032677,2.911972046
13.78,-0.251976252,-0.328832626,2.313046932
13.79,-0.264162958,-0.329554558,2.307575941
13.8,-0.775686741,0.273178101,1.969063282
13.81,-1.720093012,1.843424797,1.238447666
13.82,-2.263395548,2.540006638,1.25732851
13.83,-2.735197306,2.897236824,1.558580756
13.84,-2.45696497,2.831137657,1.554948449
13.85,-1.656275988,2.228742599,1.251740098
13.86,-1.659158468,2.229456902,1.231034517
13.87,-0.849912405,1.36312294,0.977077723
13.88,-0.319160223,0.451098442,0.924470305
13.89,0.281413853,-1.006923676,0.999061108
13.9,0.515919089,-1.756518364,0.71061933
13.91,0.499424726,-1.757019043,0.699602842
13.92,0.408539772,-2.981292248,0.011786759
13.93,0.10970664,-3.470703125,-0.302814901
13.94,0.096294761,-3.471891403,-0.296444178
13.95,0.631925702,-4.320978165,0.269997895
13.96,0.60173285,-4.549958229,0.360505819
13.97,0.525611818,-4.702509403,-0.056942046
13.98,0.301327944,-4.821712971,0.014452755
13.99,0.295351207,-4.823337078,0.043079704
14,0.125626504,-4.817727089,-0.294747233
14.01,0.0197469,-4.66849947,-1.041576624
14.02,-0.103761971,-4.531216621,-0.838195205
14.03,-0.114415765,-4.532619476,-0.812838078
14.04,-0.115249276,-4.375893116,-0.665337682
14.05,0.025994122,-4.116139889,-0.464021564
14.06,-0.458310485,-3.020451069,0.436046481
14.07,-0.434304982,-2.468141079,0.222266361
14.08,-0.438812256,-2.468856335,0.244253144
14.09,-0.739771843,-1.279538155,-0.026360914
14.1,-0.726455808,-0.760437012,0.00860016
14.11,-0.876072884,-0.396907806,-0.124932416
14.12,-0.901136518,-0.028495789,-0.379605651
14.13,-1.02914989,0.383108139,-0.696853817
14.14,-1.266171455,0.852304459,-1.038757801
14.15,-1.402853847,1.42466259,-1.275555134
14.16,-1.404813051,1.798428535,-1.172108889
14.17,-1.464786768,1.822507858,-0.85788995
14.18,-1.887200356,1.695687294,-0.431118727
14.19,-2.33054781,1.592928886,-0.191287145
14.2,-2.456364393,1.765831947,0.236699149
14.21,-1.640400887,2.360593796,0.801045656
14.22,-0.635686278,3.180557251,0.579229116
14.23,-0.612785876,3.181889534,0.602812827
14.24,1.221249819,4.782674789,0.009860519
14.25,1.290739536,5.229623795,0.938083947
14.26,1.314896107,5.231579781,0.972741962
14.27,2.25224638,4.991610527,2.505124092
14.28,2.84477067,4.341795921,2.408357382
14.29,3.055690765,3.403522491,1.856032729
14.3,2.700042963,2.119352341,1.925400615
14.31,1.913165331,0.932437897,2.273768187
14.32,1.683636665,-0.159107208,2.365613937
14.33,1.907094121,-0.788621903,2.08533144
14.34,1.879403591,-0.790715218,2.03414607
14.35,1.770313978,-0.423740387,1.647566319
14.36,1.313102484,1.332205772,1.328073025
14.37,0.652496278,2.073479652,1.284739256
14.38,0.479132682,2.793727875,1.438595891
14.39,0.460050374,2.793790817,1.385334849
14.4,0.179019898,2.887733459,2.784857273
14.41,-0.374709278,1.909446716,2.612748623
14.42,-0.420142829,0.627382278,2.046161652
14.43,0.02342391,-0.752779961,1.224949837
14.44,0.364384681,-2.006127834,0.403238863
14.45,0.607806265,-2.751953125,0.242765605
14.46,0.811638773,-3.092731476,0.695319355
14.47,0.84386915,-3.121741772,1.150756598
14.48,0.838490903,-3.001832962,1.476623535
14.49,0.719007373,-2.780921459,1.627010345
14.5,0.531732321,-2.523731232,1.398666143
14.51,0.364226461,-2.226131916,0.998919606
14.52,0.336562365,-1.983943939,0.546986818
14.53,0.354867339,-1.761315346,0.245902598
14.54,0.513950527,-1.606078148,0.151416659
14.55,0.766653359,-1.44625473,0.284593701
14.56,0.748462141,-1.444461823,0.259949684
14.57,0.922831655,-1.31089592,0.452545703
14.58,1.283358335,-1.028729439,1.410211563
14.59,1.38225317,-0.980953217,1.729560852
14.6,1.353900433,-0.954458237,2.049864531
14.61,1.223347664,-0.89641571,2.180940151
14.62,0.989018381,-0.751873016,1.748572946
14.63,0.957123339,-0.749148369,1.722936988
14.64,0.842172265,-0.521765709,1.029392958
14.65,0.472442031,0.238883019,0.005158782
14.66,0.282070965,0.560890198,0.28803885
14.67,0.285187721,0.712808609,0.531214714
14.68,0.015970156,0.74962616,0.710182786
14.69,-0.009754062,0.754208565,0.676112771
14.7,-0.164309099,0.422805786,0.689017892
14.71,-0.344808877,0.358416557,0.217214942
14.72,-0.782644391,0.505518913,-0.111606002
14.73,-0.980066538,0.641552925,-0.286524296
14.74,-0.955995202,0.764878273,-0.458523095
14.75,-0.943208218,0.763389587,-0.448600233
14.76,-0.972887814,1.051338196,-0.541837633
14.77,-0.970092535,1.104421616,-0.25032568
14.78,-0.946182966,1.102355957,-0.235564828
14.79,-1.110798836,0.741390228,0.85509181
14.8,-0.799459875,0.349410057,0.729375124
14.81,-0.481982708,-0.104639053,0.054974794
14.82,-0.357151926,-0.355372429,-0.451770723
14.83,-0.394320667,-0.551136017,-0.123872519
14.84,-0.552690446,-0.729520798,0.015183806
14.85,-0.735411286,-0.988798142,-0.522345662
14.86,-0.63755244,-1.269708633,-0.536711633
14.87,-0.210401297,-1.392375946,-0.612424433
14.88,-0.199814081,-1.349931717,-0.994041979
14.89,-0.094730109,-1.159555435,-1.399772644
14.9,-0.077168062,-0.831014633,-1.205261827
14.91,0.160491377,-0.299193382,-0.484134495
14.92,0.020644724,0.194716454,0.115011215
14.93,0.109243333,0.657931328,0.187485576
14.94,-0.019917667,0.948732376,0.082072258
14.95,-0.024878204,0.947337151,0.094344854
14.96,-0.335082173,0.763998985,-0.413054109
14.97,-0.448942423,0.43700695,-0.249991357
14.98,-0.576141298,0.055153847,-0.253958285
14.99,-0.752795637,-0.264389038,-0.358094394
15,-0.823872566,-0.497795105,-0.55131793
15.01,-0.819132447,-0.681065559,-0.611983061
15.02,-0.80354768,-0.682420731,-0.593549013
15.03,-0.568242908,-0.657304764,-0.481810153
15.04,-0.410090715,-0.275424957,-0.374056101
15.05,-0.408000708,-0.046527863,-0.194098473
15.06,-0.487297624,0.213941574,0.041411638
15.07,-0.430508047,0.472297669,0.142491102
15.08,-0.324760944,0.486387253,0.059508324
15.09,-0.444662571,0.433301926,-0.287309945
15.1,-0.694599152,0.28183651,-0.606112599
15.11,-0.639455795,0.048867226,-0.820696592
15.12,-0.543943226,-0.143438339,-1.105453491
15.13,-0.566174865,-0.292757034,-1.169895053
15.14,-0.497828126,-0.281650543,-0.917262375
15.15,-0.261880398,-0.193768501,-0.727042735
15.16,-0.162002206,-0.060289383,-0.415761292
15.17,-0.045032024,0.025447845,0.101095974
15.18,0.055375725,-0.00837326,0.128664911
15.19,0.059466511,-0.035101891,-0.08183974
15.2,-0.022298276,-0.050014496,-0.32256341
15.21,-0.112193167,-0.077001572,-0.382589519
15.22,-0.114980161,-0.077728271,-0.373425961
15.23,-0.147755146,-0.18624115,-0.438510656
15.24,-0.145329237,-0.175068855,-0.498669446
15.25,-0.284403861,-0.180739403,-0.464177847
15.26,-0.433829129,-0.200699806,-0.642416596
15.27,-0.335954368,-0.064995766,-0.612384498
15.28,-0.248504579,-0.039299965,-0.017965317
15.29,-0.127438307,-0.07556057,0.430305123
15.3,-0.171084702,-0.197875977,0.093817115
15.31,-0.272280753,-0.195804596,-0.077908576
15.32,-0.151682377,-0.121899605,-0.090289891
15.33,-0.309059441,0.042996407,-0.232081324
15.34,-0.331895769,0.104944229,-0.629656315
15.35,-0.32706064,0.104578972,-0.617284358
15.36,-0.279202163,0.180844307,-0.521264732
15.37,-0.250543237,0.156684876,-0.113921493
15.38,-0.155739129,0.16381073,0.142989963
15.39,-0.153176606,0.163814545,0.145887435
15.4,-0.21046859,0.132717133,0.210683614
15.41,-0.19627136,0.041660309,-0.012649268
15.42,-0.165837646,-0.082922935,-0.207409859
15.43,-0.097020388,-0.217065811,-0.359654486
15.44,0.119008243,-0.162112236,-0.351691425
15.45,0.172577262,-0.090462685,-0.198492378
15.46,0.216243565,0.048239708,0.169375986
15.47,0.072636575,0.112726212,0.294299662
15.48,0.071395606,0.11260128,0.29578495
15.49,0.079821497,-0.014543533,-0.145059854
15.5,0.077975005,-0.014930725,-0.138766289
15.51,0.125160575,-0.103975296,-0.438358337
15.52,0.106761485,-0.075777054,-0.315747827
15.53,0.133467197,0.014714241,-0.015005261
15.54,0.128715575,0.014264107,-0.009969026
15.55,-0.043035209,0.037770271,0.009997517
15.56,-0.241340578,0.034998894,-0.114578039
15.57,-0.24146831,0.034694672,-0.106868804
15.58,-0.252940178,-0.087735176,-0.555299342
15.59,-0.199106455,-0.119104385,-0.486783922
15.6,-0.169184208,-0.078578949,-0.315133452
15.61,-0.168220043,-0.078658104,-0.311367333
15.62,0.078273684,0.036231041,0.142129064
15.63,0.075340748,0.086462021,0.18796283
15.64,0.008412719,0.050507545,-0.016756505
15.65,0.062112302,0.079191208,-0.133732334
15.66,0.062852293,0.079136848,-0.130628511
15.67,-0.012871921,0.052719116,-0.198656768
15.68,0.013797402,0.035838127,0.003891379
15.69,0.17832318,-0.079298019,0.006871194
15.7,-0.001466691,-0.036417007,0.125638366
15.71,-0.189949513,-0.007832527,0.009397805
15.72,-0.188188911,0.03514576,-0.257211536
15.73,-0.18614924,0.035036087,-0.249883995
15.74,0.042815238,-0.008149147,0.775621235
15.75,-0.090973675,-0.091941834,0.313263059
15.76,-0.321812987,-0.13504982,-0.213512123
15.77,-0.213661254,-0.077541351,-0.01137501
15.78,0.0571585,0.008769035,0.164395928
15.79,-0.005674422,0.035215378,-0.152019665
15.8,0.094914526,0.035269737,-0.144279435
15.81,0.137209654,0.028134346,-0.017566636
15.82,0.128090411,0.035375595,0.290581524
15.83,0.223292351,0.013903618,0.547749817
15.84,0.168943584,-0.026722908,0.608398795
15.85,0.04820621,-0.064922333,0.270008147
15.86,-0.107434213,-0.052874565,0.01332207
15.87,-0.247981966,-0.026468277,-0.288811475
15.88,-0.24426645,-0.026432991,-0.281603158
15.89,-0.253059804,-0.016844749,-0.278943718
15.9,0.114997089,-0.043227196,0.369005561
15.91,0.22599563,-0.0720644,0.402559072
15.92,0.128898829,0.033174515,0.08805187
15.93,0.04698807,0.059400558,0.031818822
15.94,0.049300194,0.059339523,0.042199343
15.95,-0.085386872,0.188577652,-0.214631915
15.96,-0.203138948,0.17654419,-0.41307646
15.97,0.017584383,0.118976593,-0.069304213
15.98,0.016272128,0.118821144,-0.064628035
15.99,0.041273534,0.221673012,0.901790857
16,0.052628219,0.183336258,0.729376197
16.01,0.05347079,0.183359146,0.73082757
16.02,-0.010796785,0.092496872,0.473117352
16.03,-0.180578828,0.018500328,0.209380493
16.04,-0.356074274,-0.184723854,-0.100220591
16.05,-0.624150515,-0.289722443,-0.637855947
16.06,-0.616401494,-0.289362907,-0.629969001
16.07,-0.217985332,-0.133295059,-0.268531919
16.08,-0.208457887,-0.049118042,-0.092333123
16.09,-0.076243937,0.003980637,-0.066652745
16.1,-0.070356667,0.004288673,-0.060073365
16.11,0.029502511,-0.086482048,-0.133131072
16.12,0.098874986,-0.036067009,-0.124347895
16.13,0.173295111,0.014191628,-0.047352996
16.14,0.020536542,0.038012505,0.107653454
16.15,-0.163051009,0.037872314,0.085978642
16.16,-0.195373416,0.025802612,-0.101900727
16.17,-0.290472686,-0.062929153,-0.176108778
16.18,-0.29262048,-0.072667122,-0.315193147
16.19,-0.24939692,-0.015386581,-0.148586571
16.2,-0.034949362,0.037065506,0.625216603
16.21,0.082687914,0.046388626,0.803949714
16.22,0.009114683,-0.023303032,0.308867961
16.23,-0.19903785,-0.102464676,0.238954604
16.24,-0.158069551,-0.109633446,0.418224096
16.25,-0.177617133,-0.11429596,-0.005407047
16.26,-0.064760149,-0.190768242,-0.131698117
16.27,-0.062900484,-0.190674782,-0.12807934
16.28,0.026486397,-0.063734055,0.359360129
16.29,-0.131374359,0.000928879,0.274273992
16.3,-0.274208427,0.024921417,0.074484162
16.31,-0.272105634,0.037041664,0.015121799
16.32,-0.269334972,0.037201881,0.01650653
16.33,-0.153043866,-0.070311546,-0.091039509
16.34,0.058626652,-0.079689026,0.011558779
16.35,0.154098898,-0.137039185,0.327430487
16.36,0.344655603,-0.081889153,0.544250786
16.37,0.345215529,-0.081858635,0.547315419
16.38,0.174393982,-0.033890724,0.667162359
16.39,-0.010042965,-0.01219368,0.165202707
16.4,-0.07711345,-0.100645065,-0.101400808
16.41,-0.088207424,-0.074256897,-0.237946525
16.42,-0.03492254,-0.011971474,-0.040089875
16.43,-0.05885303,-0.004781723,0.026552271
16.44,-0.058474839,-0.004748344,0.029352717
16.45,-0.140923917,-0.007054329,0.037682887
16.46,-0.250880599,0.017056465,-0.051276017
16.47,-0.250920117,-0.057003975,-0.040384986
16.48,-0.090775609,-0.08560276,0.030792614
16.49,0.087613881,-0.059181213,0.261049241
16.5,0.087860286,-0.05917263,0.26043725
16.51,-0.045518875,-0.042359352,0.222117171
16.52,-0.044433117,-0.042276382,0.223545149
16.53,0.046827257,-0.030293465,0.030195087
16.54,-0.079539716,-0.006291389,0.061384298
16.55,0.073254585,0.008030891,0.173908711
16.56,0.089101195,-0.018352509,0.130700052
16.57,0.087677598,-0.018434525,0.134115994
16.58,0.052933753,-0.05202961,-0.020293796
16.59,-0.144911528,-0.016206741,0.20063524
16.6,-0.14601624,-0.016285896,0.201495647
16.61,-0.092698574,-0.042734146,-0.015263401
16.62,-0.094603539,-0.042847633,-0.014778834
16.63,-0.280029178,-0.009409904,-0.015653864
16.64,-0.251908422,0.038434029,-0.078003213
16.65,-0.251302004,0.03848362,-0.077034652
16.66,-0.285533845,0.052964211,0.12706849
16.67,-0.04014349,-0.131332398,0.2747823
16.68,-0.039446414,-0.131274223,0.275702894
16.69,0.01034373,-0.27735424,0.155928373
16.7,0.214250863,-0.138640404,0.213717282
16.71,0.180398792,-0.086169243,-0.020508828
16.72,0.177014679,-0.086390495,-0.022132047
16.73,-0.051232159,0.162406921,0.591649354
16.74,-0.219290793,0.128695488,0.542453408
16.75,-0.221155703,0.128576279,0.538987219
16.76,-0.220856369,-0.048750877,-0.13630642
16.77,-0.196816802,-0.144668579,-0.032899596
16.78,-0.198741078,-0.144788742,-0.032213368
16.79,-0.070925832,-0.058683395,-0.085529298
16.8,-0.071842611,-0.058719635,-0.08257395
16.81,-0.027161837,-0.065970421,-0.025017317
16.82,0.339901358,-0.013394356,0.449242503
16.83,0.172425002,0.000841141,0.60866338
16.84,0.171118289,0.000757217,0.609550118
16.85,0.045147955,-0.128622055,0.049580831
16.86,-0.119723201,-0.152675629,0.029532164
16.87,-0.121617913,-0.152795792,0.031537659
16.88,-0.157196999,0.007511139,-0.145521253
16.89,-0.195168912,0.036121368,-0.007351898
16.9,-0.158294678,0.050396919,0.060204513
16.91,-0.202035189,0.055150032,0.101514503
16.92,-0.263467729,0.036053658,0.164498061
16.93,-0.20126605,0.009870529,0.108336598
16.94,-0.19856143,0.010033607,0.109424979
16.95,-0.040275753,-0.116689682,0.167159975
16.96,0.03335458,-0.123748779,0.15720351
16.97,-0.030208588,-0.183547974,0.066698626
16.98,-0.028732121,-0.183447838,0.068522915
16.99,-0.127555013,-0.099515915,0.000283711
17,-0.104685545,-0.14493084,0.001577843
17.01,-0.060460448,-0.116127014,0.11502295
17.02,-0.057178915,-0.044241905,0.335071802
17.03,-0.063578129,0.003703117,0.303482682
17.04,-0.122398078,0.037287712,0.230475381
17.05,-0.133232236,0.039762497,0.03080065
17.06,-0.132458329,0.039834976,0.032849982
17.07,-0.110783041,0.092508316,0.117980555
17.08,-0.101447105,0.037441254,0.138791874
17.09,-0.249436736,-0.008012772,-0.04789909
17.1,-0.374780595,-0.022257805,-0.203481436
17.11,-0.343944371,-0.022107124,-0.242313057
17.12,-0.038672388,0.009114265,0.223428905
17.13,-0.03988409,0.009017944,0.221974611
17.14,0.110850394,-0.197066307,0.627314389
17.15,0.108355343,-0.197232246,0.625184953
17.16,0.080787003,-0.132691383,0.657343507
17.17,0.005340517,-0.029815674,-0.444315136
17.18,-0.017907143,0.037118912,-0.270929635
17.19,-0.13073051,0.139919281,0.419258654
17.2,-0.133828461,0.139687538,0.415678442
17.21,-0.192577004,0.137044907,0.49185583
17.22,-0.400346041,0.036342621,0.228821769
17.23,-0.400137663,0.036366463,0.228561074
17.24,-0.277329683,0.007686615,0.002044875
17.25,-0.230670571,-0.008999825,0.017535143
17.26,-0.228978396,-0.008891106,0.018996447
17.27,-0.116452813,0.010434151,0.379568577
17.28,-0.113303423,0.010655403,0.383261591
17.29,0.075655758,-0.118461609,0.092036113
17.3,0.089952886,-0.202078819,0.01180961
17.31,0.000640154,-0.180366516,0.123297513
17.32,0.0717538,-0.1945858,0.41712153
17.33,0.086676776,-0.163403511,0.244725511
17.34,-0.001802385,-0.137027741,0.074123368
17.35,-0.124037564,-0.105858803,0.071475267
17.36,-0.124088109,-0.105829239,0.07546404
17.37,-0.190856576,-0.165643692,0.050505247
17.38,-0.161483765,-0.196691513,0.132451788
17.39,-0.122697234,-0.158329964,0.201163203
17.4,-0.057717443,-0.143930435,0.070669942
17.41,-0.057460845,-0.143899918,0.07197576
17.42,-0.0887115,-0.131944656,0.057465155
17.43,0.09265393,0.01883316,0.129313931
17.44,0.090338051,0.018661499,0.127152368
17.45,0.018744886,0.040035248,0.277199745
17.46,0.017588735,0.039921761,0.273202777
17.47,-0.150079489,0.078197479,0.106461749
17.48,-0.149213255,0.078208923,0.102775171
17.49,-0.025820196,0.037556648,0.125842378
17.5,-0.005170763,0.042428017,0.285138905
17.51,-0.062742174,0.037752151,0.198928729
17.52,-0.023212194,0.030809402,0.076385833
17.53,-0.018835008,0.031114578,0.077680551
17.54,-0.016399622,-0.040389061,-0.118138015
17.55,-0.052492499,-0.109507561,0.030831337
17.56,-0.018893301,-0.020606995,-0.05117549
17.57,-0.095695853,0.041966438,0.001568124
17.58,-0.091085434,0.042284012,0.002215192
17.59,0.153859735,-0.000614166,0.229625121
17.6,0.111603022,-0.184905052,-0.015426777
17.61,0.110740244,-0.185002327,-0.017636269
17.62,0.254671603,-0.187572479,0.682153285
17.63,0.251831681,-0.187850952,0.672954619
17.64,-0.159489572,0.039452553,-0.210648909
17.65,-0.131881475,0.118374825,0.078528255
17.66,-0.258667469,0.137345314,0.311513722
17.67,-0.214785695,0.053398132,0.429105818
17.68,-0.2043522,-0.052084923,0.637810111
17.69,-0.161792755,-0.138333321,0.354973733
17.7,-0.161382079,-0.138335228,0.35002926
17.71,-0.223658443,-0.063958168,0.057215855
17.72,-0.094308078,-0.008731842,0.215211168
17.73,0.032067537,-0.05169487,0.347933978
17.74,0.114450514,-0.020504951,0.444155753
17.75,0.021231651,0.03455162,0.406104714
17.76,0.006641209,-0.010942459,0.227989122
17.77,-0.072656214,-0.013365746,0.16620332
17.78,-0.029523909,-0.003789902,0.195539087
17.79,-0.080327392,-0.020578384,0.30419454
17.8,-0.090023458,0.008151054,0.276015699
17.81,-0.147641003,0.039255142,0.156965464
17.82,-0.193069935,0.039265633,0.070359483
17.83,-0.192886114,0.039282799,0.070354223
17.84,-0.225993872,0.036911964,0.066295743
17.85,-0.155628502,0.013022423,0.07631065
17.86,-0.083508551,0.015447617,0.091551915
17.87,-0.083515584,0.015443802,0.092343941
17.88,-0.136754215,0.032168388,0.21979171
17.89,-0.137013137,0.03215313,0.220518857
17.9,-0.183047473,-0.013381958,0.011352366
17.91,-0.226753712,0.005743027,-0.037625089
17.92,-0.180101275,0.043960571,0.013966932
17.93,-0.108776331,0.08701992,0.139900133
17.94,-0.132997334,0.063059807,0.101945296
17.95,-0.223624349,0.039158821,-0.023040541
17.96,-0.267904162,0.027259827,0.156617612
17.97,-0.103371203,-0.015711784,0.117739737
17.98,-0.009176135,-0.003665924,0.148700327
17.99,-0.044545472,-0.006012917,0.222550944
18,-0.067715466,-0.010734558,0.250697583
18.01,-0.045026064,-0.003457069,0.082995318
18.02,-0.161305368,-0.008152008,0.15463461
18.03,-0.310639799,0.011109352,-0.059591722
18.04,-0.114654481,0.040011406,-0.046406366
18.05,0.018988848,0.044764519,0.43222931
18.06,0.297164321,0.039858818,0.868457317
18.07,0.293581545,0.039599419,0.86636126
18.08,0.024889171,-0.073143959,0.357138872
18.09,0.059961081,-0.073366165,0.329435825
18.1,-0.089122474,-0.008935928,0.189970568
18.11,0.02367878,0.031608582,-0.007952787
18.12,0.027301908,0.038574219,0.184814945
18.13,0.013600111,0.038302422,0.370361835
18.14,-0.218205094,0.038016319,0.296434522
18.15,-0.157075584,0.018640518,0.325201452
18.16,-0.057999432,-0.072591782,0.105317473
18.17,-0.133899212,-0.070446968,0.057792556
18.18,-0.10405606,-0.135316849,0.000692878
18.19,-0.107627153,-0.135526657,0.004006531
18.2,0.070613742,-0.102231979,0.390007854
18.21,-0.040575564,-0.066519737,0.639416218
18.22,-0.061264455,-0.076158524,0.13270846
18.23,-0.165900171,-0.023545265,-0.140483409
18.24,-0.159958005,-0.059473991,-0.069442227
18.25,-0.058503211,-0.145689964,-0.049663402
18.26,0.055903554,-0.126664162,0.044623863
18.27,0.083538115,-0.038246155,0.1570611
18.28,0.001248181,-0.024044037,0.126974165
18.29,-0.001138747,-0.024142265,0.131210193
18.3,-0.23944062,-0.00261879,0.058956269
18.31,-0.290435255,0.009342194,0.042016163
18.32,-0.237995327,-0.095971107,0.055430651
18.33,-0.238393366,-0.095953941,0.058308251
18.34,-0.045463443,-0.11274147,0.093749419
18.35,-0.046727419,-0.112797737,0.096093938
18.36,-0.114442527,-0.08409214,0.255386233
18.37,-0.037938893,-0.052961349,0.193872184
18.38,-0.038149893,-0.05298233,0.193302274
18.39,-0.139019489,-0.014710426,0.075050503
18.4,-0.136767209,-0.04825592,0.030531406
18.41,-0.012706876,0.02112484,0.076563969
18.42,0.010007501,0.035409927,0.264188409
18.43,0.008908033,0.035327911,0.263251424
18.44,-0.098423421,0.049736023,0.324909776
18.45,-0.090055764,0.035502434,0.029392101
18.46,0.006646037,0.002076149,0.028077357
18.47,0.097484142,0.03561306,0.081090942
18.48,0.093791336,0.035569191,0.199987456
18.49,0.096999943,0.035488129,0.471770942
18.5,-0.077107191,0.03539753,0.098894745
18.51,-0.13706404,0.064164162,-0.122569934
18.52,-0.208532512,0.035518646,0.240727812
18.53,-0.208213389,0.035552025,0.241494715
18.54,0.306914121,-0.062758446,0.517323852
18.55,0.303078204,-0.063010216,0.515733957
18.56,0.022650301,-0.012907028,0.153428078
18.57,0.05811584,0.065908432,0.64619112
18.58,0.055714667,0.065652847,0.639021933
18.59,-0.090777934,-0.030348778,0.055943713
18.6,-0.092821121,-0.030470848,0.056325398
18.61,0.118485153,-0.07382679,0.067245811
18.62,-0.055848181,-0.122000694,0.444105715
18.63,-0.030724525,-0.064788818,0.44259423
18.64,-0.033255219,-0.064959526,0.439873874
18.65,-0.222529471,0.026022911,-0.022223532
18.66,-0.153958023,-0.002578735,-0.147240326
18.67,-0.087311208,-0.021538734,-0.298931539
18.68,0.064429134,-0.016616821,0.078928217
18.69,0.090706855,0.016969681,0.012596816
18.7,0.107005864,0.033791542,0.014454275
18.71,0.106659561,0.033877373,0.021207839
18.72,-0.039326072,0.067527771,0.074209586
18.73,0.07657975,0.017278671,0.163247034
18.74,0.107846558,-0.078474998,0.084736094
18.75,0.105907381,-0.078457832,0.091785431
18.76,-0.049142897,-0.088048935,0.10435462
18.77,-0.159123659,-0.109631538,0.127685219
18.78,-0.280787945,-0.092928886,0.133691251
18.79,-0.200518608,-0.100111008,0.129471391
18.8,-0.201504111,-0.100124359,0.131397963
18.81,-0.229958713,-0.112038612,0.13805756
18.82,-0.198124945,-0.066483498,0.1492351
18.83,-0.029748261,0.002997398,0.170709908
18.84,0.030472994,-0.023324966,0.139158815
18.85,0.016455173,0.031730652,0.286301523
18.86,0.05490005,0.007746696,0.144920737
18.87,-0.033346176,0.034090042,0.165176243
18.88,-0.073355317,0.050879478,0.090715237
18.89,-0.153832495,0.0341959,0.096876241
18.9,-0.186232925,0.000774384,0.146356911
18.91,-0.132356525,-0.102088928,0.073686883
18.92,-0.131798863,-0.102016449,0.075591832
18.93,0.006768346,-0.181012154,0.151011452
18.94,0.051822305,-0.037360191,0.307705492
18.95,0.013086915,0.008120537,0.224392176
18.96,-0.144624233,-0.025360107,0.074970931
18.97,-0.12677449,-0.118634224,-0.129089609
18.98,-0.257751167,-0.190376282,-0.272904009
18.99,-0.235153139,-0.087327003,-0.223267853
19,-0.234135807,-0.087284088,-0.223378331
19.01,-0.036601961,-0.056293488,0.15623942
19.02,-0.045793533,0.056049347,0.354020894
19.03,-0.118393004,0.048804283,0.151369184
19.04,-0.223458827,0.036826134,0.182024211
19.05,-0.207053185,0.106372833,0.315341383
19.06,-0.253896236,0.032326698,0.04162541
19.07,-0.032347023,-0.079930305,-0.239503831
19.08,0.005129576,-0.065369606,-0.052873299
19.09,-0.083262205,-0.050953865,0.214705557
19.1,-0.083440483,-0.050994873,0.213140205
19.11,-0.174435496,0.008808136,0.258332223
19.12,-0.236384451,-0.015184402,0.258129478
19.13,-0.017073989,-0.051049232,0.167100921
19.14,-0.016336322,-0.051044464,0.166332275
19.15,0.089690119,-0.000721931,0.247571617
19.16,0.203136981,0.018473625,0.528932273
19.17,0.10493961,0.032799721,0.269151151
19.18,0.002624929,0.035251617,0.061574042
19.19,-0.022818923,0.023387909,0.150201306
19.2,-0.022165716,0.023456573,0.152026191
19.21,0.004471719,0.035460472,0.241628498
19.22,0.075986385,0.037844658,0.325624526
19.23,0.071494788,0.088171005,0.372431487
19.24,0.02434665,0.03556633,0.357409954
19.25,-0.093532562,0.04053688,0.230872184
19.26,-0.30106914,-0.026264191,0.090269834
19.27,-0.302154422,-0.121732712,-0.171432823
19.28,-0.298380435,-0.121379852,-0.165578261
19.29,-0.287353516,-0.190507889,-0.126232401
19.3,-0.388410628,-0.111165047,-0.178468123
19.31,-0.319545567,-0.113269806,0.009973988
19.32,-0.017164707,-0.050796509,0.181384385
19.33,-0.042554617,0.047610283,0.190387994
19.34,-0.167616963,0.081432343,0.185024783
19.35,-0.092370451,0.038602829,0.002695665
19.36,-0.018238902,0.038805008,0.081942812
19.37,-0.016732574,0.038963318,0.084809303
19.38,0.114992291,0.031867981,0.375158846
19.39,0.057925403,0.017615318,0.340722919
19.4,0.058992147,0.01781559,0.345488519
19.41,0.014800906,-0.053793907,0.216402724
19.42,0.120812684,-0.137413025,0.210018784
19.43,0.106114745,-0.134914398,0.190916464
19.44,-0.028989911,-0.139653206,0.190055922
19.45,-0.194978654,-0.134807587,0.076327756
19.46,-0.285635233,-0.038941383,-0.196111709
19.47,-0.1887905,0.040231705,0.008527368
19.48,-0.082240343,0.040373802,0.419750452
19.49,0.112713814,0.040424347,0.491404474
19.5,-0.059948981,-0.012280464,0.09329845
19.51,-0.059151649,-0.012159348,0.095445409
19.52,-0.186276853,-0.009573936,0.162257642
19.53,-0.128534913,0.064815521,0.042221263
19.54,-0.087199569,0.055461884,-0.195758373
19.55,0.052009702,0.041390419,0.232064992
19.56,0.010621846,0.094232559,0.413551062
19.57,0.077981532,0.072704315,0.25791502
19.58,0.079128742,0.041502953,0.245940149
19.59,0.204013676,-0.008968353,0.311292321
19.6,0.246629626,-0.047550201,0.511005163
19.61,0.145369321,-0.191569328,0.520279586
19.62,0.142947942,-0.191842079,0.515791655
19.63,-0.096980751,-0.201482773,0.07197693
19.64,-0.120973766,-0.091327667,0.020369619
19.65,-0.077748537,-0.005065918,0.117881909
19.66,-0.078041375,-0.005048752,0.119314596
19.67,-0.009132564,0.076387405,0.137970686
19.68,-0.152388394,0.129210472,0.000637054
19.69,-0.129593432,0.112669945,-0.109405637
19.7,-0.150411248,0.081731796,-0.102086157
19.71,-0.082863629,0.053139687,0.078177601
19.72,-0.073164582,0.041197777,0.251786441
19.73,-0.113357902,0.031689644,0.348568678
19.74,-0.28840071,-0.054329872,0.304254085
19.75,-0.284098327,-0.054018021,0.305494428
19.76,-0.245139837,-0.281093597,0.017150313
19.77,-0.239504457,-0.280705452,0.017986745
19.78,-0.118561268,-0.21566391,0.070393085
19.79,-0.113676429,-0.215373039,0.069412857
19.8,-0.027977169,-0.061881065,0.255457819
19.81,-0.033551753,-0.035299301,0.204217702
19.82,-0.02270484,0.043940544,0.108223438
19.83,-0.020046175,0.044121742,0.108208239
19.84,0.029639363,0.075392723,0.118113816
19.85,-0.022100925,0.077814102,0.211034626
19.86,-0.054718614,0.05871582,0.194051415
19.87,-0.053824544,0.05880928,0.194864482
19.88,-0.136439025,0.034965515,0.154615402
19.89,-0.104319811,-0.020010948,0.057397634
19.9,-0.067869663,-0.06542778,0.123006925
19.91,-0.053881049,-0.09183979,0.167267159
19.92,-0.161998928,-0.096697807,0.086890042
19.93,-0.374721706,-0.051204681,-0.04104054
19.94,-0.372720003,-0.051102638,-0.042410642
19.95,-0.334319413,-0.060596466,0.06051518
19.96,-0.10358429,-0.043910027,0.283677399
19.97,-0.103201151,-0.044013977,0.279158473
19.98,0.04952538,-0.087288857,0.420614868
19.99,-0.061137617,-0.07308197,0.272390336
20,-0.043465257,0.003445625,-0.110843122
20.01,0.076461256,0.027337074,-0.05538252
20.02,0.029808581,0.048765183,0.28260839
20.03,0.027586818,0.048513412,0.279347926
20.04,-0.037250578,0.160749435,0.294050396
20.05,-0.251376689,0.105383873,0.057082742
20.06,-0.253767073,0.105216026,0.056862354
20.07,-0.300439715,-0.084018707,0.032854155
20.08,-0.204914749,-0.182195664,0.214228094
20.09,-0.05631274,-0.237289429,0.211003184
20.1,-0.046442509,-0.23727417,0.213345468
20.11,-0.045321405,-0.237161636,0.214502215
20.12,-0.045645356,-0.153207779,0.315559775
20.13,-0.043284178,-0.15302372,0.316572756
20.14,-0.187000632,-0.088171959,0.086019114
20.15,-0.18218118,-0.102355957,0.065161556
20.16,-0.142341614,0.041407585,0.108496383
20.17,-0.100438058,0.096536636,0.210475236
20.18,-0.126268625,0.158804894,0.154340744
20.19,-0.130102575,0.168409348,0.18462342
20.2,-0.128711402,0.168467522,0.183196604
20.21,-0.067220867,0.044046402,0.103014752
20.22,-0.065811276,0.044150352,0.102866277
20.23,-0.064739883,0.017881393,0.143419907
20.24,0.02743268,-0.0873909,0.220306173
20.25,-0.11310643,-0.09928894,0.211429894
20.26,-0.257746458,-0.111143112,0.214311659
20.27,-0.294173062,-0.089478493,0.032041088
20.28,-0.219925761,-0.127608299,-0.046628058
20.29,-0.149273932,-0.132276535,-0.11742577
20.3,0.016608477,-0.15372467,0.217063606
20.31,0.167027831,-0.12741375,0.310903251
20.32,0.096294165,-0.134641647,0.218965054
20.33,-0.027081609,-0.034097672,0.211816043
20.34,-0.062080026,-0.010242462,0.123921126
20.35,0.01611805,0.044571877,-0.056211233
20.36,-0.019535244,0.068194389,0.220650822
20.37,-0.024257302,0.067788124,0.21812743
20.38,-0.151534557,0.041012764,0.224537581
20.39,-0.372506559,-0.031036377,-0.07960543
20.4,-0.374071598,-0.031087875,-0.077638537
20.41,-0.357815862,-0.069387436,-0.198447764
20.42,-0.150943339,-0.069478989,-0.025490046
20.43,-0.014451265,-0.122346878,0.533022523
20.44,0.164264888,-0.204092026,0.864294767
20.45,0.116030455,-0.221147537,0.629771709
20.46,-0.150690556,-0.111174583,0.204989702
20.47,-0.175174356,-0.087104797,-0.386576772
20.48,-0.113003612,-0.163640022,-0.268409818
20.49,-0.115402758,-0.16380024,-0.268591583
20.5,0.08975184,-0.023036957,0.744118929
20.51,0.061649144,0.024199486,0.49390465
20.52,-0.131535769,0.014038086,0.278552234
20.53,-0.100571096,-0.091790199,-0.044062063
20.54,-0.088488519,-0.096992493,0.01333344
20.55,-0.0661394,-0.138053894,0.073269963
20.56,-0.026685178,-0.104856491,0.095445782
20.57,0.190291107,-0.071627617,0.154014438
20.58,0.12251848,-0.007225037,0.383652091
20.59,-0.037201107,0.038125038,0.194865719
20.6,-0.061656475,0.018927574,0.013058662
20.61,-0.102506459,-0.086413383,0.035767391
20.62,-0.102393389,-0.086392403,0.036108762
20.63,0.038534224,-0.000230789,0.231561333
20.64,0.037189841,-0.000372887,0.228704214
20.65,-0.019928992,0.068875313,0.178531468
20.66,-0.120059133,0.075888634,0.152047232
20.67,-0.136286497,0.037406921,-0.042493939
20.68,-0.141140163,-0.015482903,0.006661281
20.69,-0.043383121,-0.051670074,0.221974313
20.7,-0.046478748,-0.052000046,0.214938417
20.71,0.065599561,-0.052283287,0.330653518
20.72,0.063153327,-0.052503586,0.326214075
20.73,-0.222783029,0.035965919,0.115371831
20.74,-0.136405885,0.021585464,-0.023045942
20.75,-0.137038052,0.004746437,-0.101463676
20.76,-0.003903806,0.035790443,0.040246382
20.77,-0.074990511,0.035639763,0.139753848
20.78,-0.075955868,0.035531044,0.136571139
20.79,-0.093288064,0.004324913,0.098719321
20.8,-0.120073676,-0.024435997,0.09509813
20.81,-0.070627153,-0.026908875,0.10262765
20.82,0.050099373,0.004096031,0.332202792
20.83,0.069867671,-0.020031929,0.328050375
20.84,-0.013452828,-0.041741371,0.336536825
20.85,-0.16092515,-0.075392723,0.277580857
20.86,-0.338050067,-0.051498413,-0.183349699
20.87,-0.294525266,0.00597477,-0.165164039
20.88,-0.158398211,0.008314133,0.248606011
20.89,0.146560013,0.003354073,0.649796248
20.9,0.245781392,-0.030487061,0.404455841
20.91,0.176242888,-0.105081558,0.682406426
20.92,0.17651546,-0.083874702,0.845869184
20.93,-0.128406107,-0.050650597,0.066161886
20.94,-0.129761338,-0.050771713,0.061407976
20.95,-0.181618094,0.032931328,-0.461579144
20.96,0.001913667,0.142861366,0.221816927
20.97,0.080815881,0.147326469,0.395212054
20.98,-0.00157392,0.113444328,0.295483351
20.99,-0.04011333,0.050882339,0.211704344
21,-0.137521505,0.017131805,0.144101232
21.01,-0.140068591,0.01698494,0.142529458
21.02,-0.062354267,-0.07647419,0.06508147
21.03,0.027441919,-0.026256561,0.254209876
21.04,0.093554527,-0.038274765,0.366681784
21.05,0.137925237,-0.007192612,0.291020095
21.06,0.043272495,0.011890411,0.034477219
21.07,-0.018036902,-0.033658028,0.019139361
21.08,0.006368816,-0.072021484,0.018215094
21.09,0.109019101,-0.055397987,0.04106814
21.1,0.093075633,0.009059906,0.083067864
21.11,0.089189708,0.008863449,0.083562955
21.12,-0.160216689,0.164345741,0.286747813
21.13,-0.226281881,0.161876679,0.321911991
21.14,-0.321901441,0.051745415,0.271847904
21.15,-0.147578061,-0.0534935,0.223142266
21.16,-0.093101025,-0.189858437,0.160761863
21.17,0.032982081,-0.283124924,0.029184815
21.18,0.033517808,-0.283088684,0.031424697
21.19,-0.019533515,-0.137049675,0.04659231
21.2,0.116295368,-0.017370224,0.238872618
21.21,0.114345998,-0.01751709,0.235386521
21.22,0.196314573,0.080537796,0.421094924
21.23,0.194954097,0.08043766,0.418226659
21.24,-0.030442059,0.133088112,0.245186567
21.25,-0.12044251,0.102020264,0.20254612
21.26,-0.128100634,0.030301094,0.120035961
21.27,-0.126043379,0.030436516,0.121864349
21.28,-0.050068796,-0.029336929,0.219103068
21.29,-0.03640902,-0.065155029,0.264788359
21.3,0.129974365,-0.055520058,0.335816979
21.31,0.122888565,-0.096241951,0.301272452
21.32,0.122350514,-0.09625721,0.301022291
21.33,-0.051535428,-0.120138168,0.146372318
21.34,-0.189134419,0.025988579,-0.052494012
21.35,0.031750828,-0.012303352,0.476696253
21.36,0.031043261,-0.012348175,0.47363919
21.37,0.079335988,0.025813103,0.327137888
21.38,0.078063786,0.025735855,0.325557351
21.39,-0.129733384,-0.04846096,0.448939145
21.4,-0.132837057,-0.000502586,0.300245166
21.41,-0.15410769,0.011593819,-0.243924499
21.42,-0.168232262,0.023736,-0.127124816
21.43,-0.168877065,-0.014458656,0.026424333
21.44,-0.118763328,-0.024050713,0.275198609
21.45,-0.052447557,-0.04326725,0.433681995
21.46,-0.069806337,-0.043290138,0.374173015
21.47,-0.069388986,-0.043280602,0.373689622
21.48,-0.182647407,-0.076704025,-0.010249592
21.49,-0.213402748,-0.059762955,0.153185278
21.5,-0.071762443,-0.081171989,0.17180106
21.51,-0.157755911,-0.078593254,0.158943996
21.52,-0.154407144,-0.078382492,0.163899571
21.53,-0.196887255,-0.059017181,-0.190166235
21.54,-0.19447434,-0.0588274,-0.184226334
21.55,-0.138033271,-0.092247009,-0.130034939
21.56,0.037363708,0.032296181,0.255807459
21.57,-0.017944872,0.077773094,0.343980014
21.58,-0.003332496,0.130458832,0.290786922
21.59,-0.027370572,0.032281876,0.120802775
21.6,-0.07536006,-0.013202667,0.173701286
21.61,-0.028308451,-0.113837242,0.136148736
21.62,-0.027419806,-0.135477066,0.356784493
21.63,-0.028853655,-0.135595322,0.353406549
21.64,-0.022681534,-0.157232285,0.410078347
21.65,-0.022430182,-0.157220841,0.408502489
21.66,-0.172377169,-0.049432755,0.228475958
21.67,-0.23740381,-0.030168533,0.056228448
21.68,-0.249521673,-0.020459175,-0.122036338
21.69,-0.189983428,-0.029900551,-0.057750478
21.7,-0.085415483,-0.01543808,0.096611246
21.71,-0.11569202,0.03489399,0.207362205
21.72,-0.248389602,0.09484005,0.236979067
21.73,-0.312616527,0.044730186,0.065987699
21.74,-0.309401393,0.044938087,0.068401195
21.75,-0.186920822,-0.019522667,-0.00471665
21.76,-0.079208016,-0.072038651,0.08641009
21.77,-0.078330994,-0.071990013,0.087150097
21.78,-0.101725459,-0.086315155,0.139800176
21.79,-0.18742168,-0.100646973,0.077316977
21.8,-0.291946113,-0.007246017,0.004852772
21.81,-0.234978378,0.050322533,0.047615375
21.82,-0.233175755,0.050427437,0.047279861
21.83,0.222397894,0.00736618,0.339721561
21.84,0.222431749,0.007382393,0.340687782
21.85,0.062519193,-0.011717796,0.033722527
21.86,-0.028372347,0.012265205,0.228476465
21.87,-0.020999849,0.041018486,0.495349824
21.88,-0.077748716,0.055403709,0.054437328
21.89,-0.100308776,0.034000397,-0.160910189
21.9,-0.090102494,0.036481857,0.064593986
21.91,-0.090271413,0.036510468,0.067307919
21.92,-0.160599053,0.034085274,0.069260806
21.93,-0.262392581,0.03405571,0.08385668
21.94,-0.325087369,0.03404808,0.090358458
21.95,-0.32376343,0.034161568,0.092833325
21.96,-0.141566575,-0.030302048,0.213161916
21.97,-0.138473868,-0.0300951,0.215871751
21.98,0.046230137,-0.125657082,0.345946372
21.99,0.21432966,-0.106277466,0.390191853
22,0.196632087,-0.065421104,0.119681291
22.01,0.087689012,0.035303116,0.066509604
22.02,0.074928761,0.035513878,0.120928884
22.03,0.078318179,0.035658836,0.114723235
22.04,0.11906293,0.03574276,0.108214222
22.05,0.127474248,0.035773277,0.12536037
22.06,0.103515178,0.038084984,0.188170239
22.07,0.007483244,0.035570145,0.326251924
22.08,0.00510484,0.035443306,0.327136308
22.09,-0.271784902,-0.079547882,0.208557129
22.1,-0.338487029,-0.120188713,0.120213218
22.11,-0.35089308,-0.153525353,-0.031574935
22.12,-0.279379964,-0.115034103,0.002940282
22.13,-0.224216998,-0.035822868,0.077251002
22.14,-0.111566067,0.019428253,0.143517301
22.15,-0.001486182,0.043518066,0.194821149
22.16,0.000474632,0.043663979,0.195765734
22.17,0.055044591,0.094076157,0.349687308
22.18,0.052372515,0.058285713,0.373233169
22.19,0.092836976,0.020088196,0.193293139
22.2,0.044539571,-0.06594944,0.146857843
22.21,-0.01100105,-0.070593834,0.167897701
22.22,-0.006763518,-0.130285263,0.179530561
22.23,-0.043962181,-0.075097084,0.181905478
22.24,-0.062398016,-0.087003708,0.140700638
22.25,-0.057064116,-0.096504211,0.099473566
22.26,-0.059344411,-0.110825539,0.091585159
22.27,-0.059454024,-0.110812187,0.092718542
22.28,-0.296409428,-0.12750721,-0.283063442
22.29,-0.357909203,-0.031647682,0.166136622
22.3,-0.256210744,0.009077072,0.494694203
22.31,-0.059242189,-0.005336761,0.407112122
22.32,-0.054895818,-0.125137329,0.296000004
22.33,0.016590178,-0.230564117,0.360931307
22.34,0.016577005,-0.230603218,0.358459353
22.35,-0.055950344,-0.129998207,0.089616194
22.36,0.036633074,-0.079644203,-0.057280943
22.37,0.058327913,-0.029352188,0.151385695
22.38,-0.009638488,0.037576675,0.486754358
22.39,-0.047121465,0.037368774,0.404457152
22.4,-0.083212376,0.037100792,0.242546856
22.41,-0.030413747,0.036866188,0.14352949
22.42,-0.123494327,0.017500877,0.180305928
22.43,-0.099864841,0.036600113,0.192234725
22.44,-0.147215188,-0.023225784,-0.011762053
22.45,-0.049999595,-0.035079002,-0.069407076
22.46,0.084804296,-0.090057373,0.129311815
22.47,0.237989128,-0.051751137,0.306996107
22.48,0.153196991,-0.032646179,0.237764955
22.49,0.025907636,-0.020690918,0.219377056
22.5,-0.06286788,-0.018283844,0.127033204
22.51,-0.155922234,-0.063729286,-0.006129667
22.52,0.040119231,-0.099660873,-0.032049343
22.53,0.038541317,-0.099785805,-0.032848388
22.54,-0.085197806,0.000635147,0.179980278
22.55,-0.126711786,0.036450386,0.161916956
22.56,-0.12759006,0.036323547,0.158474699
22.57,-0.10271579,0.024213791,0.114253208
22.58,0.145534217,-0.038334847,0.28964746
22.59,0.141034007,-0.038754463,0.280950368
22.6,0.205504537,-0.017641068,0.443508834
22.61,-0.037553728,-0.022767067,0.250249744
22.62,-0.109383047,-0.006214142,0.114820853
22.63,-0.167930245,-0.020693779,0.068658084
22.64,-0.101059735,0.008013725,0.02367197
22.65,-0.068429291,0.034272194,0.172851235
22.66,0.030948937,0.03417778,0.330734342
22.67,-0.004054368,0.034063339,0.199181378
22.68,-0.165181279,0.03400898,0.098064795
22.69,-0.143329501,0.0340271,0.066721782
22.7,-0.095318258,0.024456024,0.061282661
22.71,-0.055120647,-0.013898849,0.066877931
22.72,0.046665311,0.024311066,0.227883026
22.73,0.044764459,0.024178505,0.225508109
22.74,0.007330596,0.012105942,0.318964988
22.75,-0.413761973,-0.138728142,-0.00479345
22.76,-0.412039638,-0.138632774,-0.005300812
22.77,-0.263931394,-0.140909195,0.104067184
22.78,-0.068302929,-0.069012642,0.497003049
22.79,-0.01014328,-0.10013485,0.459713042
22.8,0.17689243,-0.06901741,0.701409757
22.81,0.049648106,-0.083450317,0.52390039
22.82,0.050178587,-0.08346653,0.51808095
22.83,-0.035908043,-0.014059067,0.027878989
22.84,-0.035323262,-0.014032364,0.026504193
22.85,-0.121324241,0.091305733,0.443893105
22.86,-0.197807789,0.081712723,0.410411328
22.87,-0.331715643,0.017059326,0.18340537
22.88,-0.399542153,-0.054672241,0.031318679
22.89,-0.43944937,-0.126320839,0.019045699
22.9,-0.284160674,-0.126055718,0.043583486
22.91,-0.078164041,-0.06829071,0.062217388
22.92,0.052918017,-0.015324593,0.082454048
22.93,-0.006283998,0.030379295,0.072808415
22.94,0.063248694,0.047327042,0.24986887
22.95,0.064053833,0.047389984,0.25322634
22.96,-0.017584443,0.035435677,0.04050817
22.97,-0.09998405,0.042603493,0.209148377
22.98,-0.031828403,0.044935226,0.392911255
22.99,-0.03577137,0.035289764,0.142059416
23,-0.043894112,0.008957863,0.054844152
23.01,-0.233659625,0.035338402,0.069246992
23.02,-0.235511482,0.013889313,0.068377003
23.03,-0.222561061,-0.029069901,0.045458779
23.04,-0.178185463,-0.064828873,0.086815387
23.05,-0.176809788,-0.064684868,0.091484547
23.06,-0.055975497,-0.086102486,0.244089633
23.07,-0.116910875,-0.095549583,0.238497198
23.08,-0.167648733,-0.112146378,0.126889765
23.09,-0.259021998,-0.109581947,0.118216842
23.1,-0.256858349,-0.109389305,0.120931953
23.11,0.02406466,-0.02072525,0.11197789
23.12,0.064490557,0.031979561,0.260664254
23.13,0.06389755,0.031983376,0.262912333
23.14,-0.02279228,0.020038605,0.14407295
23.15,-0.12132138,-0.037366867,0.112682454
23.16,-0.121653974,-0.037319183,0.116871126
23.17,-0.082302451,-0.037347794,0.072209857
23.18,-0.040978074,-0.11883831,0.12664859
23.19,-0.03375721,-0.075853348,0.182744488
23.2,0.042795658,-0.049650192,0.401036173
23.21,0.006762683,-0.092907906,0.324925005
23.22,-0.167115629,-0.104922295,0.13548319
23.23,-0.167494118,-0.104887962,0.138297081
23.24,-0.389858246,-0.133543968,-0.301423609
23.25,-0.321965516,-0.090346336,-0.267684043
23.26,-0.054354668,-0.068836212,0.067670465
23.27,0.175382942,-0.104939461,0.472111255
23.28,0.171264976,-0.105251312,0.467978686
23.29,0.167591542,-0.18698597,0.772023678
23.3,0.069325805,-0.134571075,0.372071266
23.31,-0.163862824,-0.113196373,-0.373900056
23.32,-0.173543096,-0.086884499,-0.471036434
23.33,-0.074885011,-0.005636215,0.045861587
23.34,-0.042988896,0.034738541,0.417928934
23.35,-0.055262327,0.034312248,0.416637361
23.36,-0.101000071,0.033905029,0.391452134
23.37,-0.153193772,0.023973465,0.287289143
23.38,-0.121754825,-0.028900146,0.127965435
23.39,-0.037011743,-0.041005135,0.068808973
23.4,-0.038366079,-0.041130066,0.06548129
23.41,-0.017515242,-0.117809296,0.151053906
23.42,0.105885565,-0.137062073,0.14369756
23.43,0.154712766,-0.149137497,0.186757743
23.44,0.124119788,-0.134917259,0.104449973
23.45,0.076106936,-0.156609535,0.006830722
23.46,0.061178446,-0.163985252,0.098667227
23.47,0.091667295,-0.130647659,0.179940537
23.48,0.088212192,-0.130857468,0.176970005
23.49,-0.018213451,0.0317173,0.176176876
23.5,-0.143389583,0.079410553,0.196895987
23.51,-0.210237205,0.031386375,0.097697943
23.52,-0.166251719,0.031274796,0.032601926
23.53,-0.167684078,0.031188011,0.030289557
23.54,-0.133160234,-0.026381493,-0.048716173
23.55,-0.189410448,-0.067182541,-0.048791431
23.56,-0.152428627,0.030866623,0.017293882
23.57,-0.125192285,0.08581543,0.072907783
23.58,-0.045185685,0.169500351,0.2429699
23.59,-0.046846569,0.169383049,0.235970259
23.6,0.104396403,0.118965149,0.275129348
23.61,0.038237929,0.054237366,0.180309519
23.62,0.037492394,0.054176331,0.177018076
23.63,-0.046560287,0.0086689,-0.012042465
23.64,-0.039255679,-0.075127602,-0.020525852
23.65,-0.034901083,-0.072768211,0.014204612
23.66,0.042262584,-0.053704262,0.126817435
23.67,0.039503664,-0.053857803,0.12374109
23.68,-0.026008517,0.029773712,0.184543282
23.69,-0.079613358,0.041573524,0.054196287
23.7,-0.147582948,0.038998604,0.15438357
23.71,-0.189038396,0.029256821,0.165392295
23.72,-0.149388075,-0.037959099,0.052533541
23.73,-0.284212381,-0.059659958,-0.164802373
23.74,-0.281538606,-0.035810471,-0.113556899
23.75,-0.106049538,-0.050269127,0.403867811
23.76,0.083292335,-0.045580864,0.792254269
23.77,0.080062538,-0.045742989,0.786396742
23.78,0.015332133,-0.021916389,0.327245534
23.79,-0.137171567,-0.120159149,0.266673297
23.8,-0.086187959,-0.093896866,0.07429266
23.81,-0.08789739,-0.093969345,0.071009405
23.82,-0.080572158,0.035216331,0.085764416
23.83,-0.151717573,0.044615746,0.439642608
23.84,-0.209126264,0.085127831,0.446149349
23.85,-0.232536942,0.056243896,0.316844702
23.86,-0.197756976,0.027374268,0.212636054
23.87,-0.200411588,0.027277946,0.208132893
23.88,-0.180152863,0.015255928,0.004605595
23.89,-0.09938553,-0.013498306,0.040554788
23.9,-0.059428155,-0.011142731,0.099405624
23.91,-0.00507468,0.027123451,0.082039483
23.92,0.008442223,0.027053833,0.07553871
23.93,0.024060309,0.029384613,0.194561988
23.94,0.008335948,0.026916504,-0.059469771
23.95,0.020682931,0.026787758,-0.033768926
23.96,-0.055675417,0.026674271,0.188287005
23.97,-0.057159513,0.026597023,0.193664029
23.98,-0.139837354,0.031315804,-0.028064357
23.99,-0.157171011,0.045645714,-0.062839389
24,-0.148429781,0.026446342,0.028592402
24.01,-0.16579935,0.040788651,0.123760015
24.02,-0.16511488,0.040818214,0.128067941
24.03,-0.289690614,-0.004575729,0.099721119
24.04,-0.238650471,-0.100196838,0.029538158
24.05,-0.235459566,-0.100043297,0.036095325
24.06,-0.041635871,-0.147802353,0.070898637
24.07,-0.039747864,-0.1477108,0.075229943
24.08,0.016820043,-0.126089096,0.138645977
24.09,0.001139164,-0.070961952,0.096507564
24.1,0.002696037,-0.070861816,0.101204783
24.11,-0.10812372,-0.015699387,-0.003567118
24.12,-0.042879164,-0.018057823,0.001282658
24.13,-0.042442799,-0.018009186,0.004814342
24.14,-0.08562538,0.022717476,0.170492113
24.15,-0.162396789,-0.00360775,0.207096487
24.16,-0.192900986,-0.065816879,0.124442451
24.17,-0.215824932,-0.12081337,0.018040318
24.18,-0.114087313,-0.211708069,0.021810483
24.19,-0.072677344,-0.249959946,0.02433211
24.2,-0.072461635,-0.249950409,0.025320541
24.21,-0.094012797,-0.278683662,0.008582234
24.22,-0.090060949,-0.180549622,0.076724999
24.23,-0.179514796,-0.183003426,0.160717011
24.24,-0.249333113,-0.130369186,-0.191189885
24.25,-0.241612524,-0.12077713,-0.2008342
24.26,-0.241316468,-0.120757103,-0.201101333
24.27,0.008759916,-0.168720245,0.189350829
24.28,-0.079888642,-0.314892769,-0.406060726
24.29,-0.242144257,-0.370038986,-0.474062622
24.3,-0.154486924,-0.370088577,0.015031781
24.31,-0.167523921,-0.35340786,-0.032816157
24.32,-0.16892913,-0.353494644,-0.036436103
24.33,-0.225167662,-0.324831963,-0.595270097
24.34,-0.263218194,-0.279450417,-0.278932333
24.35,-0.271799684,-0.270070076,-0.08472871
24.36,-0.28805387,-0.277470589,-0.034019616
24.37,-0.292052597,-0.277686119,-0.044673115
24.38,-0.307249636,-0.275461197,-0.213415384
24.39,-0.438034773,-0.2539711,-0.266673654
24.4,-0.28496486,-0.311462402,-0.056576315
24.41,-0.285475731,-0.31146431,-0.067693919
24.42,-0.177997857,-0.395260811,-0.355215281
24.43,-0.178374887,-0.395244598,-0.364537239
24.44,-0.078541905,-0.354528427,-0.324654937
24.45,-0.104628414,-0.246829987,-0.315780133
24.46,-0.392179519,-0.232523918,-0.212975681
24.47,-0.416439056,-0.270768166,-0.268303812
24.48,-0.323397577,-0.239584923,-0.670261145
24.49,-0.32429862,-0.239588738,-0.675944448
24.5,-0.3789922,0.023504257,-1.120435476
24.51,-0.417681336,0.162109375,-1.204979181
24.52,-0.5341537,0.418097496,-0.838100314
24.53,-0.549778879,0.62395668,-0.335541427
24.54,-0.56261909,0.624038696,-0.3638767
24.55,-0.634110272,0.585944176,-0.283294171
24.56,-0.814241767,0.356358528,-1.018956542
24.57,-0.928266764,0.306419373,-1.209717512
24.58,-0.773469329,0.340421677,-1.191354513
24.59,-0.602484107,0.343403816,-1.133786559
24.6,-0.412731707,0.255551338,-0.956144035
24.61,-0.36344859,0.158314705,-0.751880288
24.62,-0.430568874,0.032712936,-0.718755007
24.63,-0.444368541,0.034453392,-0.764048457
24.64,-0.402866542,-0.300667763,-1.060478449
24.65,-0.226323441,-0.505672455,-1.164598227
24.66,-0.253617406,-0.501275063,-1.240857363
24.67,-0.086791411,-0.732429504,-1.256698012
24.68,-0.347439826,-1.641489983,-0.915158272
24.69,-0.472079217,-2.335134506,-1.25095892
24.7,-0.514907122,-2.321662903,-1.37952292
24.71,-0.750785112,-3.121180058,-1.551412821
24.72,-0.707815886,-4.565412045,-0.843155563
24.73,-0.634455681,-5.255960464,-0.513469458
24.74,-0.894230902,-5.80798769,-0.445586681
24.75,-1.126282454,-6.252405167,-0.679321647
24.76,-1.14583993,-6.491389751,-1.05093348
24.77,-0.916842759,-6.633579254,-0.951991916
24.78,-0.723198474,-6.532200813,-0.424316645
24.79,-0.302063763,-6.488361359,0.580703974
24.8,0.0170497,-6.489517212,0.369987488
24.81,0.000557333,-6.42168808,-0.102099419
24.82,0.185613155,-6.291506767,-0.239842415
24.83,0.113384664,-6.205852509,-0.452651978
24.84,0.790198386,-5.814887047,-0.625703096
24.85,1.218427658,-5.003732681,-0.628952503
24.86,1.363957405,-3.714762688,-0.357460976
24.87,1.28502202,-3.606391907,-0.560760021
24.88,0.654489279,-1.933190823,0.140490532
24.89,0.101245284,-0.201205254,0.621299744
24.9,-0.430035293,1.616274834,1.761668682
24.91,-0.409397662,3.148825645,3.219630718
24.92,1.320733309,5.283617973,4.058087826
24.93,1.277517557,5.35911274,3.953898907
24.94,0.686863661,5.850816727,1.053063393
24.95,-1.080122232,4.970927715,2.113485336
24.96,-1.134176135,5.060029984,2.002644539
24.97,-1.450466037,1.71589613,4.35431385
24.98,-0.398632288,0.520064831,3.994349003
24.99,1.49525106,-0.281560898,3.08441782
25,1.42553699,-0.198084354,3.000936508
25.01,4.76341486,0.429266453,1.154940128
25.02,4.626940727,2.037796974,1.088495255
25.03,4.400799751,4.446617126,0.781504154
25.04,3.831125736,6.064515114,0.442439556
25.05,2.515205383,8.173092842,0.033940315
25.06,2.463384151,8.185497284,0.036596775
25.07,-0.45367527,10.45693207,1.514168262
25.08,-1.958157182,10.13745499,3.072883129
25.09,-1.957718253,10.14320469,3.066231251
25.1,-2.327768803,8.739356995,2.432915211
25.11,-1.888127089,4.173482895,-1.435103893
25.12,-1.425953627,2.155695915,-1.890807629
25.13,-0.844185948,0.3382411,-1.170838833
25.14,-0.099996924,-0.981033802,-0.423613548
25.15,0.715465784,-1.824781418,0.185214043
25.16,1.353661537,-1.890140057,0.60969162
25.17,1.641498804,-1.162993431,0.641160488
25.18,0.928532362,-0.272968292,0.714508057
25.19,0.079146504,0.971431732,-0.126285076
25.2,-1.079504848,2.4324193,-1.543025494
25.21,-1.709672332,3.309118748,-2.022687197
25.22,-1.665837288,3.255414486,-1.965464354
25.23,-2.255838633,4.479519367,-1.395522118
25.24,-1.363140941,4.016745567,-0.827138901
25.25,0.04687047,2.599278927,-0.078747272
25.26,-0.050744772,1.064003468,-0.271739006
25.27,-0.926800847,-0.51401329,-0.890006542
25.28,-2.041164398,-2.294253826,-0.558358192
25.29,-3.394717216,-3.462369442,0.778487682
25.3,-3.966014862,-4.425893784,1.91305542
25.31,-3.825312614,-5.115281105,3.175186634
25.32,-3.919453144,-3.951243877,3.128559113
25.33,-5.006826401,-1.287026882,0.908799648
25.34,-6.355670929,1.672862053,-2.074926853
25.35,-7.271664619,5.159781456,-3.618118286
25.36,-6.125323296,7.636940002,-1.860839605
25.37,-4.276275158,9.223070145,1.53924799
25.38,-4.114511967,9.223484039,1.523281097
25.39,0.127901524,11.51614094,5.357444763
25.4,1.723197341,12.34449196,4.972126007
25.41,2.870950222,13.08425903,2.852602482
25.42,2.953749657,13.07038593,2.874018669
25.43,0.183984771,11.85235691,-0.219491959
25.44,-0.719267786,9.91404438,-1.209034443
25.45,-1.204442143,7.257789612,-2.204800367
25.46,-0.352774084,3.962456703,-1.900983572
25.47,-0.36503765,3.9145298,-1.821222067
25.48,2.507153988,-3.664284229,1.641028404
25.49,2.774638176,-6.633661747,1.128935814
25.5,2.052038908,-8.917412758,-1.413923502
25.51,2.086536169,-11.50678062,-4.104237556
25.52,0.813555241,-12.46094036,-6.893625259
25.53,-0.766453862,-12.80541897,-8.482517242
25.54,-1.361852646,-11.92690659,-7.795764923
25.55,-1.573554158,-10.98060608,-5.238722801
25.56,-1.532177329,-10.19122696,-2.027041674
25.57,-0.63476944,-9.145158768,0.984162331
25.58,1.128771782,-8.204567909,1.477800846
25.59,3.560718536,-7.310953617,-0.606663227
25.6,3.487318039,-7.297445774,-0.620332718
25.61,6.075290203,-3.67596674,-6.605427265
25.62,5.676586151,0.54705143,-6.38249588
25.63,6.454169273,4.268852234,-4.33739996
25.64,6.338603973,4.248253822,-4.280894279
25.65,6.388891697,9.947546959,4.435871601
25.66,6.355829239,9.92684269,4.480249405
25.67,3.64425087,10.62940121,7.496770382
25.68,1.059609652,9.974437714,7.7312994
25.69,-0.015110552,8.524934769,4.562670708
25.7,-1.499107122,7.534416199,-1.222028732
25.71,-1.506487131,7.826831818,-1.335461378
25.72,-1.479002953,7.841217995,-1.367523909
25.73,-1.71197176,8.579627037,1.562709808
25.74,-1.427060008,9.41258049,6.170688629
25.75,-1.390426159,9.445215225,6.105975628
25.76,-3.506047249,3.744968414,8.796926498
25.77,-3.569568396,-1.17199707,7.542497158
25.78,-5.087128639,-6.297962189,3.873558521
25.79,-4.442606449,-10.31373596,-1.369253159
25.8,-2.943325043,-13.89114666,-7.20224762
25.81,-2.454263926,-14.82382298,-9.885416031
25.82,-2.255556107,-13.81252193,-9.135621071
25.83,-2.258484602,-13.80442715,-9.150873184
25.84,-2.050661564,-12.09160995,-5.636685371
25.85,-4.489636898,-10.02906609,2.787735462
25.86,-4.498030663,-9.991415024,2.719580173
25.87,-3.697001934,-8.934606552,-0.163526058
25.88,-2.827400684,-7.636975765,-2.430182934
25.89,-1.624103904,-6.033560753,-3.934137344
25.9,-1.017332315,-3.567827225,-4.72499609
25.91,0.508771896,-0.718805313,-3.085432529
25.92,2.977161407,1.991415024,0.667197704
25.93,3.278958559,5.593126297,5.720768452
25.94,-0.039463043,8.325714111,8.030981064
25.95,-4.04458952,8.701457024,8.113959312
25.96,-4.53537035,8.314101219,9.451109886
25.97,-3.265144587,7.722583771,12.07267952
25.98,-1.585258007,8.002635956,10.48652458
25.99,-1.569746494,7.990465164,10.50781822
26,-0.619127274,12.5354147,0.638794899
26.01,-0.549496472,14.33311272,-2.087314129
26.02,-0.400943309,15.09730148,-0.501744747
26.03,-0.370007783,15.09986877,-0.506533146
26.04,0.061032783,11.51165581,8.214202881
26.05,1.621750832,7.907099724,10.45039368
26.06,2.941726446,5.20049572,10.62682152
26.07,2.017118692,0.608009338,8.418264389
26.08,0.940982223,-3.433355808,4.950260162
26.09,-0.729303122,-7.764469147,-1.190612793
26.1,-0.718797565,-7.887606621,-0.923125744
26.11,-1.758810759,-13.40258408,-13.09948349
26.12,-2.052319288,-14.02266693,-14.07314301
26.13,-0.88125515,-14.31927013,-11.18489456
26.14,0.889954805,-14.86370659,-6.736232281
26.15,1.958648324,-15.93522263,-2.336653709
26.16,4.010202885,-16.02955246,1.668415785
26.17,3.860196829,-15.98634815,1.578061819
26.18,3.147871017,-13.79093075,1.656082392
26.19,1.057324886,-11.54087925,-1.045194387
26.2,-0.282587886,-8.449965477,-5.019339561
26.21,-0.28367275,-8.469433784,-4.968173027
26.22,5.603376389,1.349744797,-5.439788818
26.23,5.609537601,1.326544762,-5.378047943
26.24,12.8657589,7.622328758,4.360125542
26.25,12.70092773,7.640551567,4.361111641
26.26,7.030000687,9.466705322,8.855182648
26.27,0.228784919,11.55531216,9.663544655
26.28,-6.375429153,14.4994936,7.166744232
26.29,-6.003092766,14.94778252,3.498140812
26.3,-5.908790112,14.9177494,3.551081419
26.31,-5.04897213,13.6958313,0.416388512
26.32,-0.871356249,8.772167206,-0.756192923
26.33,-0.805392623,8.779304504,-0.794613838
26.34,2.319983721,6.197256088,5.790637493
26.35,2.538065434,4.330447197,11.1182785
26.36,4.358912468,2.841113091,15.11100197
26.37,3.80824542,0.97003746,14.32586288
26.38,-1.092923164,-2.595062256,10.18871212
26.39,-0.997232795,-2.646003723,10.31257629
26.4,-7.650475502,-10.08299923,-6.771701813
26.41,-6.304978371,-12.45654678,-9.784568787
26.42,-5.021612167,-13.32210255,-9.450759888
26.43,-4.196158886,-14.06240463,-6.426463604
26.44,-3.392142534,-16.16179276,-4.17381525
26.45,-3.383388042,-16.1751194,-4.122274399
26.46,-2.753670931,-17.39928627,-2.395812035
26.47,-4.731495857,-17.10546875,1.534954786
26.48,-4.465778351,-15.7199688,-0.376539946
26.49,-4.252529144,-13.27453804,-3.623844624
26.5,-3.548342705,-10.31545258,-4.780501366
26.51,-3.564027786,-10.31207085,-4.792397022
26.52,-1.237746358,-4.632759571,-2.098397255
26.53,-0.186057419,-1.018751144,0.275051355
26.54,2.994307041,3.420614243,4.022075653
26.55,5.340272427,6.898878098,7.571409225
26.56,2.6191082,10.18849182,8.371011734
26.57,0.409668744,13.57598686,6.070007324
26.58,-0.101171605,15.81559753,8.080079079
26.59,-1.094625592,16.43886948,12.87186623
26.6,-3.023224354,17.08781242,12.70837021
26.61,-6.253773689,17.62884712,5.657009125
26.62,-7.260761738,16.80747223,-1.526627421
26.63,-7.219388008,16.77861786,-1.438296676
26.64,-3.711730242,11.57771206,-0.372835159
26.65,-3.732191563,11.57328224,-0.358585596
26.66,-1.580593586,8.851283073,3.856441736
26.67,1.404880643,2.659414291,9.090136528
26.68,1.362244129,2.648050308,9.128681183
26.69,2.348276854,-4.549406052,5.475797176
26.7,0.852733076,-7.117091179,1.017585754
26.71,-0.308644801,-9.560475349,-3.496321678
26.72,-0.301261425,-9.596801758,-3.355151415
26.73,-0.175095066,-11.78956413,-6.498686314
26.74,0.54839325,-14.591465,-5.690933228
26.75,2.454144955,-15.65962601,-5.052343369
26.76,4.468183994,-16.62826157,-3.649302959
26.77,4.580361843,-17.52091599,-1.310304642
26.78,3.770506382,-17.34490776,0.338439941
26.79,3.480243683,-16.35834694,-0.058788061
26.8,1.67439723,-13.54158306,-1.538860321
26.81,-0.777580261,-9.801645279,-4.011018276
26.82,-0.637840152,-6.50222683,-6.687406063
26.83,1.551615715,-2.891695023,-7.090332031
26.84,5.970684528,4.582493782,-3.616462231
26.85,5.94619751,4.590111732,-3.639891624
26.86,10.35239506,11.26121426,5.426681519
26.87,6.082149506,12.57213402,6.69328022
26.88,0.692407847,12.74713135,9.25360775
26.89,-2.281059742,12.48940849,10.46545124
26.9,-2.180587769,12.47300625,10.48655891
26.91,-0.930704653,11.87812233,5.857656956
26.92,-0.798388779,11.62661076,1.428432941
26.93,-1.088173151,13.13104725,-3.13358736
26.94,-0.083139658,11.85462856,-1.119198322
26.95,0.996528745,10.35022354,5.942967415
26.96,-0.054528952,9.465042114,12.89824295
26.97,0.001412719,9.497345924,12.77441978
26.98,-1.570637226,6.481274605,15.81490135
26.99,-0.289438605,-2.559695244,11.50102139
27,-0.409049094,-8.130872726,5.064660072
27.01,-4.154060364,-12.98753262,-2.525794029
27.02,-4.056016922,-13.02584553,-2.37209034
27.03,-5.241036892,-16.27381897,-10.3371563
27.04,-4.528598309,-16.1416626,-9.011334419
27.05,-4.526952267,-16.15922165,-8.925380707
27.06,-4.144992828,-15.21205521,-0.113357902
27.07,-3.214248419,-15.0434761,1.684300542
27.08,-4.036779881,-13.98486519,1.956062078
27.09,-5.895757198,-13.25008392,2.665451527
27.1,-5.92909193,-13.22845268,2.573602915
27.11,-4.875885963,-12.01752186,1.00466609
27.12,-2.096915245,-7.922156811,-4.861260891
27.13,-1.198051214,-5.708537102,-2.835626602
27.14,-0.519913018,-2.973843575,-0.850528359
27.15,0.41918689,0.961578369,1.806209087
27.16,0.411596298,0.975111961,1.757202387
27.17,3.700663328,9.600719452,7.518426895
27.18,3.729382038,9.618382454,7.454564571
27.19,-1.998807669,18.00024796,4.599950314
27.2,-1.892350197,17.71207047,14.52615738
27.21,-4.143390656,17.04421234,19.03872299
27.22,-8.134150505,17.52013969,9.993697166
27.23,-9.893620491,17.74730682,-1.426769495
27.24,-9.861180305,17.71053123,-1.306723356
27.25,-4.290555954,10.72112274,-4.987211704
27.26,-1.21940434,6.391386032,-1.386935234
27.27,-1.281530023,6.394581795,-1.395842314
27.28,1.256819248,0.900375366,5.997633457
27.29,0.769297123,-1.537509441,9.918106079
27.3,1.225055814,-3.81030035,11.27423191
27.31,1.51557076,-6.249411583,7.559859276
27.32,1.738727927,-9.298347473,1.498405933
27.33,1.725272179,-9.32986927,1.623097897
27.34,0.920123994,-13.89409351,-8.722522736
27.35,0.448922753,-15.2678051,-9.219836235
27.36,1.637212515,-16.51250458,-7.351103783
27.37,3.037093878,-17.48666382,-4.946474075
27.38,3.65575695,-17.74351692,-2.902909279
27.39,2.650267124,-16.61253357,-1.037207365
27.4,1.716313481,-14.52967453,-0.544831157
27.41,-0.675980806,-11.66190529,-1.627691507
27.42,-2.845122576,-8.579818726,-4.450255871
27.43,-2.858853579,-8.574921608,-4.464717865
27.44,-0.891309559,-2.389927864,-8.029911995
27.45,2.429355145,3.057548523,-2.983304977
27.46,2.397156239,3.06879425,-3.015231371
27.47,11.46743393,9.040262222,6.811835289
27.48,11.3000679,9.069804192,6.779749393
27.49,7.769976616,14.78531361,5.546358585
27.5,6.316839218,15.69454193,9.831630707
27.51,4.790112972,14.87872982,9.473243713
27.52,0.468848348,14.1047411,5.486898422
27.53,-1.493157387,12.3244791,1.299795628
27.54,-1.343213201,10.8131876,-1.415802717
27.55,-1.601790667,10.08957386,1.167088032
27.56,-0.197346389,10.30282497,5.11149025
27.57,-1.860660911,9.686774254,10.26040459
27.58,-3.983519316,8.415483475,11.09638309
27.59,-3.88277173,8.398237228,11.12170315
27.6,-3.730781555,4.74659729,9.387063026
27.61,0.841379583,-7.428774834,9.303058624
27.62,0.888349176,-7.473526001,9.460107803
27.63,-2.951346159,-15.32361889,-1.17737639
27.64,-4.692211151,-16.55389977,-7.959728241
27.65,-6.40985775,-14.87356567,-12.47545052
27.66,-6.698592663,-14.51457882,-10.74980927
27.67,-7.214076519,-14.03512192,-5.424215794
27.68,-7.089754581,-14.14745712,-0.336374283
27.69,-7.21675396,-14.06208038,3.496639967
27.7,-6.309850693,-13.30348206,5.023383141
27.71,-4.997037888,-12.5553875,2.351690769
27.72,-4.004970551,-11.40503311,-0.960179329
27.73,-3.167713404,-9.791840553,-2.397351027
27.74,-3.112681866,-7.693736076,-2.00433445
27.75,-2.990294695,-5.444117069,-1.936990499
27.76,-1.409637332,-1.706243515,-2.389525414
27.77,3.162500381,5.184526443,0.023689747
27.78,6.935782909,9.408028603,4.666776657
27.79,3.483198404,16.01859093,5.154151917
27.8,-1.777303815,21.42321396,7.350738525
27.81,-1.018554807,20.7361927,17.94469261
27.82,-2.819050312,18.03992462,24.93701553
27.83,-7.745871067,14.57151413,21.49175262
27.84,-7.706418991,14.56672859,21.50126648
27.85,-9.548106194,11.64855957,-9.408765793
27.86,-4.853562355,9.380913734,-9.717023849
27.87,0.671414673,6.742736816,-3.611575603
27.88,3.836339712,4.266452789,1.91379261
27.89,4.854717731,2.339911461,3.864011288
27.9,5.00666666,1.664079666,6.199773788
27.91,4.471618652,-0.532583237,7.746929646
27.92,4.460399151,-0.533779144,7.752430916
27.93,2.025207281,-3.482259274,5.989736557
27.94,0.085434824,-5.659019947,1.274578333
27.95,-0.866399407,-8.38305378,-3.517006874
27.96,2.039959908,-12.97153664,-5.605344772
27.97,3.234748125,-14.33878326,-5.215427399
27.98,3.600774527,-14.9480238,-4.609685898
27.99,3.68006444,-15.50365639,-3.51937747
28,3.615345001,-15.49686718,-3.535333633
28.01,2.990014315,-16.31247711,-1.135023832
28.02,0.422295928,-15.77219772,-0.431949735
28.03,0.377170563,-15.75793076,-0.480353952
