Time (s),Linear Acceleration x (m/s^2),Linear Acceleration y (m/s^2),Linear Acceleration z (m/s^2)
0,-0.451590687,-0.067741394,1.142785311
0.01,-0.928512931,-0.004166603,0.943588615
0.02,-1.184635401,-0.010286331,1.029089093
0.03,-0.904722691,-0.12964344,1.043048143
0.04,-0.237239748,-0.254426956,0.978319526
0.05,0.704040051,-0.468532562,0.945748448
0.06,0.678713918,-0.463313103,0.916000128
0.07,1.56496048,-0.612927437,0.994527459
0.08,1.13844502,-0.418514252,1.231821537
0.09,0.544768333,-0.162778854,1.060834408
0.1,0.558143973,-0.161815643,1.058343649
0.11,-0.125896573,0.02277565,0.432315588
0.12,-1.107407928,0.120698929,1.080001831
0.13,-1.540967941,0.233110428,0.812044382
0.14,-0.904100061,0.231729507,0.168247938
0.15,-0.909684837,0.229245186,0.179144502
0.16,0.374883413,-0.314507484,-0.238548756
0.17,0.324079037,-0.362161636,-0.112484217
0.18,0.07997334,-0.402019501,0.36826992
0.19,-0.227799773,-0.330604553,0.53852582
0.2,-0.244284928,-0.357330322,0.244786024
0.21,-0.193513483,-0.434427261,0.26290226
0.22,-0.280488282,-0.520607948,0.58238709
0.23,-0.811180651,-0.402365685,1.146354675
0.24,-0.876451075,-0.332290649,1.09138298
0.25,-0.402019501,-0.235447884,0.64715004
0.26,0.065837055,-0.142344475,0.16089344
0.27,0.267955512,-0.078110695,0.042569637
0.28,0.33208698,-0.087283134,0.060731649
0.29,0.355077714,-0.113815308,0.182144165
0.3,0.162268013,-0.209362984,0.516987801
0.31,0.258702666,-0.253857613,0.515324831
0.32,0.046728075,-0.338811874,0.452261448
0.33,-0.226503402,-0.438077927,0.547262192
0.34,-0.293960303,-0.429448128,0.383380652
0.35,-0.28875047,-0.428492546,0.380008936
0.36,-0.319334924,-0.304365158,0.026148319
0.37,-0.373114228,-0.205358505,-0.369922042
0.38,-0.345976532,-0.073145866,-0.637684941
0.39,-0.341862947,-0.074518204,-0.630412698
0.4,-0.255361408,-0.053433418,-0.129531741
0.41,-0.378493279,0.046147347,0.558455229
0.42,-0.270647466,-0.030544281,1.103063107
0.43,0.089876801,-0.059067726,1.217583656
0.44,0.086803377,-0.056530952,1.205150127
0.45,0.258038282,-0.101746559,1.247195959
0.46,0.492810041,-0.084801674,1.050038576
0.47,0.420002818,-0.113936424,0.630883932
0.48,0.380901575,-0.158261299,0.215508699
0.49,0.174330592,-0.225424767,-0.246652365
0.5,-0.060709894,-0.255987167,-0.49700284
0.51,-0.216654688,-0.297148705,-0.69191134
0.52,-0.278251797,-0.338926315,-0.862096429
0.53,-0.177194268,-0.353557587,-0.753901362
0.54,-0.124041706,-0.359851837,-0.40014565
0.55,-0.284349889,-0.089756966,-0.130382896
0.56,-0.531254232,0.097131729,0.022157669
0.57,-0.249545246,0.039983749,0.217392445
0.58,0.118168861,-0.024163246,0.461454392
0.59,0.006091088,0.026906967,0.775285721
0.6,-0.119970977,0.068557739,0.600623131
0.61,-0.191967875,0.057061195,0.267931223
0.62,-0.192632765,0.056994438,0.268133402
0.63,-0.038780987,-0.079789162,0.111180067
0.64,-0.046337992,-0.08049202,0.112833738
0.65,0.497390717,-0.315727234,0.060562849
0.66,0.580372572,-0.397490501,-0.009217978
0.67,0.576292038,-0.397439003,-0.010294199
0.68,-0.184066504,-0.193329811,0.647984505
0.69,-0.734091997,0.077867508,0.409493685
0.7,-0.831065774,0.247645378,-0.142829895
0.71,-0.678248644,0.327818871,-0.259782434
0.72,-0.756245136,0.245225906,0.058241844
0.73,-0.751615107,0.244566917,0.062273026
0.74,-0.555299282,0.079025269,0.483319283
0.75,0.287873656,-0.35556984,1.017786503
0.76,0.285015076,-0.357513428,1.02633667
0.77,0.354836077,-0.54215622,0.820645809
0.78,0.111726016,-0.435919762,-0.351042748
0.79,-0.011155039,-0.302817345,-0.931658149
0.8,0.025951892,-0.184979439,-1.409312248
0.81,0.111137837,-0.169787407,-1.179753423
0.82,0.107596219,-0.174541473,-1.156552553
0.83,0.088402361,-0.055709839,-0.194679976
0.84,-0.156879574,0.030118942,0.504027247
0.85,-0.203288764,0.089236259,1.956644297
0.86,-0.270837843,0.0769701,1.995185256
0.87,-0.28291887,0.027440071,1.797262788
0.88,-0.283483237,0.019955635,1.83791244
0.89,0.138305843,-0.261377335,0.64175427
0.9,0.135445774,-0.27059269,0.694192052
0.91,0.124447405,-0.328188896,-0.009539604
0.92,0.449295759,-0.25657177,-1.071955323
0.93,0.306068897,-0.150835037,-1.321333289
0.94,0.308595181,-0.159072876,-1.265232563
0.95,-0.391529262,0.286540031,-1.163201809
0.96,-0.602689385,0.398409843,-0.72275722
0.97,-0.789791226,0.303182602,-0.613867879
0.98,-0.802634358,0.228022575,-0.479505181
0.99,-0.275755435,0.026321411,-0.106883884
1,0.133155614,-0.256479263,0.058439136
1.01,0.433267504,-0.47431469,0.285894871
1.02,0.417999715,-0.46918869,0.446819782
1.03,0.311534762,-0.303476334,0.299877524
1.04,-0.018951178,-0.147468567,-0.272529244
1.05,-0.544219852,0.010901451,-0.689900756
1.06,-0.759821057,0.018789291,-1.069173813
1.07,-0.679210424,-0.092542648,-1.443734407
1.08,-0.479163617,-0.028502464,-1.174003482
1.09,-0.181082159,0.078030586,-0.035953403
1.1,0.145537406,0.089915276,1.070380092
1.11,0.13317126,0.09246254,1.045697212
1.12,-0.082682967,0.111185074,1.329352736
1.13,-0.215590298,0.191262245,1.088120699
1.14,-0.21289888,0.191242218,1.088974953
1.15,-0.255901307,-0.001685143,0.25632894
1.16,-0.368907988,-0.153059006,-0.320876181
1.17,-0.411325961,-0.226098061,-0.933602214
1.18,-0.406496644,-0.227754593,-0.918411732
1.19,-0.3381733,-0.341876984,-1.22309649
1.2,0.367743284,-0.29996109,-0.612979889
1.21,0.1262777,-0.103849411,0.457063198
1.22,-0.167641282,0.090877533,1.09723258
1.23,-0.168300748,0.170805931,1.030366898
1.24,-0.078516185,0.219132423,0.522850514
1.25,-0.229097664,0.151774406,-0.181336701
1.26,-0.22773689,0.150830269,-0.173055112
1.27,-0.562623918,0.023165703,-0.888821125
1.28,-0.668861747,0.046748161,-0.47993356
1.29,-0.553197026,-0.065566063,0.235643506
1.3,-0.548752666,-0.064727783,0.229959965
1.31,0.05851692,0.070405006,0.930207968
1.32,0.02812463,0.159671783,0.745074034
1.33,-0.028339893,0.174554825,0.379561544
1.34,0.02452001,0.165269852,0.159309268
1.35,0.046417564,0.110374451,0.205140591
1.36,0.061622709,0.093902588,0.189635754
1.37,0.05632928,0.094092369,0.186528802
1.38,0.062752068,0.010409355,0.205505848
1.39,0.009884715,0.003241539,0.266255736
1.4,-0.176282913,-0.085553169,-0.06131804
1.41,-0.240594506,0.091310501,-0.14309144
1.42,-0.241692513,0.090910912,-0.140077949
1.43,-0.203129172,0.109741211,0.058325648
1.44,-0.170784742,0.092776299,0.492438316
1.45,-0.175510019,0.092806816,0.491046548
1.46,0.155377671,-0.03409481,0.364700198
1.47,0.147798762,-0.034323692,0.364650607
1.48,0.224035561,-0.142464638,0.255927801
1.49,0.218553037,-0.142842293,0.257722259
1.5,0.110623464,-0.188777924,-0.185092986
1.51,0.281878322,-0.155676842,-0.015456319
1.52,0.274979204,-0.155599594,-0.017670512
1.53,0.024492696,-0.092797279,0.546171188
1.54,-0.335096777,-0.020242691,0.494095922
1.55,-0.701293469,0.035208702,0.505810142
1.56,-0.390220255,0.033088684,0.267596841
1.57,0.045724139,-0.027032852,0.004576683
1.58,0.115653217,-0.051793098,-0.046020865
1.59,0.116112053,-0.052814484,-0.037492633
1.6,-0.022229522,0.030052185,-0.12536788
1.61,-0.036266088,0.012454987,-0.139719486
1.62,-0.036383867,0.023651123,-0.039861202
1.63,-0.03722471,0.02309227,-0.035337925
1.64,0.061891958,0.001148224,0.322030306
1.65,-0.068986446,0.005786896,0.627006292
1.66,-0.1269795,-0.039773941,0.591624498
1.67,-0.12691462,-0.040005684,0.593673825
1.68,-0.055285096,-0.076483727,0.337423086
1.69,-0.104904056,-0.093977928,0.152417779
1.7,-0.026898146,-0.183285713,-0.06375432
1.71,-0.026122779,-0.184282303,-0.054799676
1.72,-0.091751754,-0.199716568,-0.576581776
1.73,-0.091125131,-0.200543404,-0.569156349
1.74,-0.038958758,-0.066734314,-0.097619355
1.75,-0.217286885,0.082042694,0.560016275
1.76,-0.041073561,0.121005058,0.877266169
1.77,0.20173204,0.090409279,0.656757712
1.78,0.188206703,0.083104134,0.42992568
1.79,0.055861086,0.082886696,0.189890146
1.8,0.134875074,0.02265358,-0.139675498
1.81,0.105108291,-0.085698128,-0.153591573
1.82,-0.063865453,-0.15809536,-0.045925021
1.83,-0.046060026,-0.077077866,-0.059494972
1.84,0.040221021,0.075633049,0.104983687
1.85,0.002080172,0.041658401,0.355278254
1.86,0.129313484,-0.071259499,0.49707377
1.87,0.12622048,-0.071451187,0.498145461
1.88,0.124463201,-0.224663734,0.434702754
1.89,-0.124394015,-0.219888687,0.180534601
1.9,-0.093477994,-0.102693558,0.061938524
1.91,-0.091085464,-0.059766769,0.082588553
1.92,-0.215105236,-0.007379532,-0.096613586
1.93,-0.213474423,-0.007909775,-0.09142071
1.94,-0.054424688,0.029801369,0.04357481
1.95,0.001990736,0.077340126,0.245198727
1.96,-0.097401738,0.084269524,0.352642417
1.97,-0.097343296,0.084087372,0.354375243
1.98,-0.191823944,0.04797554,0.385111451
1.99,-0.175269261,0.004588127,0.275918365
2,-0.083801448,-0.046280861,0.083260298
2.01,-0.080902219,-0.047255516,0.093297958
2.02,-0.025105655,-0.019627571,-0.022415996
2.03,-0.078923762,0.024681091,-0.002964616
2.04,-0.136161447,0.071347237,0.113171578
2.05,-0.070022732,0.067777634,0.037922561
2.06,-0.089962453,-0.026893616,-0.102873147
2.07,-0.082955509,-0.028266907,-0.086909533
2.08,0.011416525,-0.120578766,-0.083317697
2.09,-0.007730812,-0.047655106,0.034867823
2.1,-0.073076367,0.056489944,0.130272508
2.11,-0.081403255,0.086567879,0.389623284
2.12,0.024390757,0.11676693,0.41516006
2.13,0.091568634,0.103815079,0.278463066
2.14,-0.093847752,0.076372147,0.179735005
2.15,-0.22939834,0.058484077,0.029614568
2.16,-0.274400562,0.035766602,-0.37022987
2.17,-0.265621603,0.034435272,-0.350838631
2.18,-0.212263018,-0.045656204,-0.484966189
2.19,-0.426510215,0.034984589,0.280078113
2.2,-0.274418771,0.053587914,0.542466939
2.21,-0.063218415,0.053061485,0.464324117
2.22,0.075593531,-0.014668465,0.306707859
2.23,0.082422495,-0.015493393,0.321175635
2.24,0.100605846,-0.15520668,-0.125990391
2.25,0.051097214,-0.247028351,-0.164016366
2.26,0.087880671,-0.216565132,-0.151518107
2.27,-0.186621726,-0.073431015,-0.018627942
2.28,-0.5255723,-0.085647583,0.289419234
2.29,-0.390906841,0.048197746,0.360084295
2.3,-0.134701759,-0.074243546,0.514054477
2.31,-0.299476326,-0.055452347,0.361217201
2.32,-0.268322527,-0.000760078,0.266946793
2.33,-0.200646132,0.046717644,0.152669549
2.34,-0.089072287,0.0461483,-0.245640665
2.35,0.081094354,-0.055256844,-0.726195395
2.36,0.22790581,-0.13527298,-0.797708571
2.37,0.228960574,-0.136021614,-0.784112871
2.38,-0.04809171,-0.033249855,0.496026397
2.39,-0.176867276,0.043492317,1.078295231
2.4,-0.072969198,0.005311012,1.05049777
2.41,0.022032231,-0.083235741,0.660910785
2.42,-0.097686559,-0.152749062,0.25721556
2.43,-0.271025807,-0.131379128,-0.062006712
2.44,-0.287002027,-0.136393547,-0.388367832
2.45,-0.279989749,-0.086458206,-0.629406869
2.46,-0.163959265,-0.046146393,-0.568506956
2.47,-0.018354565,-0.060852051,-0.318486691
2.48,-0.033732384,-0.063513756,-0.149124116
2.49,-0.125448465,0.008067131,0.137401283
2.5,-0.266607583,0.041422844,0.306159198
2.51,0.038134784,0.041228294,0.214739054
2.52,0.032162517,0.024144173,0.32784313
2.53,0.045662403,-0.016802788,0.276990056
2.54,0.04670167,-0.017043114,0.283058256
2.55,-0.003130347,-0.144195557,0.023354381
2.56,-0.002580613,-0.144414902,0.028541118
2.57,-0.286651492,-0.122944832,-0.052477062
2.58,-0.147236377,-0.120601654,-0.012506276
2.59,-0.178730249,-0.106330872,0.039216965
2.6,-0.347664326,0.037298203,0.050719202
2.61,-0.552324653,0.063682556,0.209272564
2.62,-0.476421475,0.056693077,0.1358473
2.63,-0.469426513,0.056822777,0.14105013
2.64,-0.048356056,0.04240799,0.113992155
2.65,0.156208485,0.037475586,0.057028532
2.66,0.159635574,0.039710999,0.053052813
2.67,0.014296651,0.039591789,0.074183136
2.68,0.017681599,0.039566994,0.079290688
2.69,-0.089796901,0.037132263,-0.059603423
2.7,-0.166596711,0.001174927,0.126307279
2.71,-0.036378205,-0.144942284,0.325272262
2.72,0.103927076,-0.221666336,0.271795034
2.73,-0.013832152,-0.255374908,0.569960237
2.74,-0.016718268,-0.255483627,0.568701506
2.75,0.052091569,-0.341769218,0.118935585
2.76,-0.017898798,-0.243732452,-0.33923161
2.77,-0.051932633,-0.126638413,-0.505209923
2.78,-0.012154341,-0.055046082,-0.436544985
2.79,-0.072023928,0.066870689,0.165274948
2.8,-0.087100804,0.210560799,0.700659275
2.81,-0.091709137,0.210681915,0.692279577
2.82,-0.125190347,0.241921425,0.83968246
2.83,-0.284695208,0.218095779,0.615373015
2.84,-0.20300293,0.069613457,0.063981861
2.85,-0.200370252,0.069459915,0.07108292
2.86,-0.007089615,0.023760796,0.042595148
2.87,0.006758094,-0.237397194,0.13809526
2.88,0.072591871,-0.285440445,-0.014047742
2.89,0.051267505,-0.307217598,-0.302336484
2.9,0.051434994,-0.307507515,-0.294832707
2.91,-0.237573445,-0.240610123,-0.062751293
2.92,-0.184670866,-0.140102387,0.181277633
2.93,0.006327808,-0.056393623,0.185251266
2.94,0.004608154,-0.05655098,0.187038451
2.95,-0.214434326,0.036672592,0.105543613
2.96,-0.240496934,0.067741394,0.067015678
2.97,-0.24473697,0.046136856,0.064436018
2.98,-0.243888199,0.046099663,0.066910893
2.99,-0.216733456,0.014913559,0.093775362
3,-0.158907235,-0.09535408,-0.050469607
3.01,-0.157930195,-0.09542942,-0.046635121
3.02,0.003247499,-0.078722,0.214667231
3.03,-0.006316721,-0.114688873,0.448605239
3.04,0.008269608,-0.186561585,0.516969442
3.05,0.018141866,-0.220085144,0.338216275
3.06,0.037776232,-0.215319634,0.13848576
3.07,0.049945205,-0.215372086,-0.048529327
3.08,-0.03677094,-0.124497414,-0.135028124
3.09,-0.037666142,-0.124587059,-0.133644849
3.1,-0.144401908,-0.043263435,-0.128634483
3.11,-0.234803259,0.028481483,-0.011739671
3.12,-0.272343576,0.100215912,-0.044796586
3.13,-0.225354075,0.092936516,-0.112660229
3.14,-0.226480722,0.092791557,-0.110296428
3.15,-0.003422678,-0.055768967,0.345381826
3.16,0.150981844,-0.158840179,0.855166316
3.17,0.164279938,-0.180353165,0.774717748
3.18,0.073575795,-0.079690933,0.392787814
3.19,0.073195577,-0.079603195,0.389738083
3.2,-0.163491309,-0.012629509,-0.383964032
3.21,-0.302859575,0.035183907,0.06047523
3.22,-0.136913985,0.054374695,0.631822288
3.23,0.003672034,0.035308838,0.64400661
3.24,0.000358373,0.035377502,0.63727355
3.25,-0.07253927,0.028318405,0.526603997
3.26,-0.185281277,-0.112772942,-0.063755095
3.27,-0.1723122,-0.167769432,-0.230960459
3.28,-0.055991799,-0.203680992,-0.23564744
3.29,0.12591368,-0.251641274,-0.03605184
3.3,0.21755898,-0.230225563,0.404134184
3.31,0.216940254,-0.230257034,0.404853165
3.32,0.053650558,-0.055565834,0.327466518
3.33,-0.092233598,-0.074812889,0.133701146
3.34,-0.092048019,-0.074913025,0.137178481
3.35,-0.082557142,0.035098076,-0.067280829
3.36,-0.084585726,0.034842491,-0.062685609
3.37,-0.373780578,0.070551872,0.033642083
3.38,-0.369972587,0.034557343,0.164106071
3.39,-0.370618194,0.034502983,0.165151775
3.4,-0.241691768,0.034402847,0.116783708
3.41,-0.155288637,-0.090146065,-0.098686501
3.42,-0.154397547,-0.090188026,-0.096030429
3.43,-0.128449857,-0.07338047,-0.135191441
3.44,-0.168800145,-0.046910286,-0.025018543
3.45,-0.082397103,-0.075452805,0.43070972
3.46,-0.080712497,-0.075291634,0.428050429
3.47,0.146653622,-0.103954315,0.488031298
3.48,0.165403068,-0.106322289,0.4271366
3.49,-0.001962125,-0.02256012,0.102560073
3.5,-0.109470069,0.022903442,0.087480664
3.51,-0.145181656,0.034836769,0.091186583
3.52,-0.009056389,-0.003540993,0.023159862
3.53,-0.010481477,-0.003681183,0.025600255
3.54,0.038954288,0.01768589,-0.187946305
3.55,-0.278452575,0.096637726,-0.191290855
3.56,-0.086956769,0.053431511,-0.17358613
3.57,0.152191669,0.014900208,0.219767243
3.58,0.072639763,-0.138616562,0.730136454
3.59,0.068374813,-0.138744354,0.727283716
3.6,-0.038641781,-0.167426109,0.703511775
3.61,-0.035985082,-0.160116196,-0.032516599
3.62,-0.23111999,-0.150574684,-0.774184823
3.63,-0.275037378,-0.054966927,-0.751810074
3.64,-0.236544222,0.038275719,-0.160395652
3.65,0.044064105,0.033454895,0.484052181
3.66,0.125305057,0.033381462,0.727239251
3.67,0.061110169,0.03329277,0.617524862
3.68,0.02252537,0.028454781,0.277826309
3.69,0.020920843,0.028306007,0.279953688
3.7,-0.070474565,0.044890404,0.100273371
3.71,0.013501287,0.032759666,0.137422144
3.72,0.013101757,0.03252697,0.144321561
3.73,0.145865977,-0.053953171,-0.115401715
3.74,-0.042254388,-0.006380081,-0.140223876
3.75,-0.143278897,0.017314911,-0.033301607
3.76,-0.153090388,0.021864891,0.087602004
3.77,-0.11013487,0.021677017,0.226823673
3.78,-0.119305432,-0.009598732,0.277043343
3.79,-0.111186832,-0.055213928,0.20315139
3.8,-0.078760386,-0.091236115,0.071875215
3.81,-0.185531557,-0.06982708,-0.020320103
3.82,-0.222173184,-0.081888199,-0.088718221
3.83,-0.246884376,-0.125049591,-0.088902563
3.84,-0.130183667,-0.086779594,-0.061144724
3.85,-0.011618912,-0.094010353,-0.015010372
3.86,-0.046152651,-0.036569595,0.085656568
3.87,-0.151748389,0.016160011,0.256800652
3.88,-0.260962158,0.028244972,0.290138066
3.89,-0.012845337,-0.021889687,0.096605614
3.9,-0.013237298,-0.045816422,0.020259902
3.91,-0.01156646,-0.045829773,0.026184902
3.92,0.063158751,-0.009990692,-0.085056111
3.93,-0.020541191,0.030632973,0.169210032
3.94,-0.015683115,0.092852592,0.301778585
3.95,-0.041401714,0.133522987,0.394441426
3.96,-0.166790515,0.097617149,0.190968275
3.97,-0.32887879,0.135987282,-0.084566444
3.98,-0.259696305,0.057085037,-0.268936396
3.99,-0.064470649,0.030817986,-0.116511867
4,-0.064347565,0.030748367,-0.109524205
4.01,-0.0423522,-0.189641953,0.735869229
4.02,-0.129541516,-0.232822418,0.523749113
4.03,-0.059892774,-0.228023529,0.378538579
4.04,-0.260424376,-0.168135643,-0.035922892
4.05,-0.352239251,-0.168057442,-0.69709146
4.06,-0.121668458,-0.048358917,-0.352716148
4.07,-0.141995788,-0.060391426,0.521124601
4.08,-0.118933916,-0.086718559,0.917557001
4.09,-0.087859511,-0.055516243,0.598625898
4.1,-0.231988907,-0.069756508,0.143062905
4.11,-0.180733681,-0.069576263,-0.082439072
4.12,-0.096221626,-0.019144058,-0.081069246
4.13,-0.024209321,0.03126812,0.305767715
4.14,0.054689199,0.031373024,0.547769487
4.15,0.104992867,0.002784729,0.518914878
4.16,0.016789496,0.031629562,0.279777825
4.17,0.034153491,-0.004178047,-0.145752654
4.18,-0.008451998,-0.049607277,-0.267653465
4.19,-0.053571224,-0.09502697,-0.12509945
4.2,-0.115539491,-0.092556,0.13011238
4.21,-0.113227725,-0.092466354,0.135882497
4.22,-0.109050095,-0.137890816,-0.030890374
4.23,-0.272197843,-0.113866806,-0.044087417
4.24,-0.269205093,-0.113720894,-0.039242901
4.25,-0.368558288,-0.182976723,0.095685735
4.26,-0.36481905,-0.182771683,0.097737111
4.27,-0.225095213,-0.182591438,-0.136588305
4.28,-0.291542232,-0.211162567,-0.127453178
4.29,-0.348428547,-0.184659958,-0.007737096
4.3,-0.216237903,-0.18928051,0.033675261
4.31,-0.173320472,-0.16759491,0.057446815
4.32,-0.190436721,-0.143525124,0.069197312
4.33,-0.132939696,-0.119433403,0.023824241
4.34,-0.269355893,-0.097725868,-0.001530424
4.35,-0.282241285,-0.087920189,-0.095796779
4.36,-0.235394657,-0.085300446,-0.136389568
4.37,-0.217638195,-0.099466324,-0.095202327
4.38,-0.174019635,-0.087322235,-0.094629198
4.39,-0.171577156,-0.087193489,-0.093310222
4.4,-0.332812965,-0.051029205,-0.239521503
4.41,-0.475924254,0.109685898,-0.439117402
4.42,-0.359362483,0.136250496,-0.482178837
4.43,-0.067457736,0.074128151,0.361359268
4.44,-0.245483935,-0.012105942,0.416884452
4.45,-0.506559908,-0.036056519,0.074500829
4.46,-0.408139467,0.019166946,0.046790905
4.47,-0.323314726,-0.081201553,-0.087280154
4.48,-0.459475517,-0.17681694,-0.64643234
4.49,-0.419744372,-0.176579475,-0.769572914
4.5,-0.301865876,-0.116542816,-0.298229814
4.51,-0.236072719,-0.238715172,0.223054364
4.52,-0.149140418,-0.329957008,0.544119537
4.53,-0.243117034,-0.39730835,0.671832562
4.54,-0.481252492,-0.46212101,0.527858794
4.55,-0.619325221,-0.596074104,0.234037966
4.56,-0.691100121,-0.768096924,0.058152035
4.57,-0.40838939,-1.083599091,-0.229596987
4.58,-0.213638842,-1.315414429,-0.509738267
4.59,-0.210749805,-1.31512928,-0.521029472
4.6,-0.110655546,-1.391611099,-0.638963938
4.61,0.131140918,-1.542516708,-0.665383697
4.62,0.210046113,-1.454009056,-0.475738943
4.63,0.169472903,-1.442072868,-0.239219159
4.64,-0.442498267,-1.475404739,0.288322538
4.65,-0.657326698,-1.606320381,0.378997505
4.66,-0.602340102,-1.796730995,0.197954208
4.67,-0.362533569,-2.116223812,-0.340427399
4.68,-0.382959425,-2.114867687,-0.395223379
4.69,0.465867579,-2.168366432,-1.792758942
4.7,1.3525213,-2.149617195,-2.435368538
4.71,1.820322156,-1.840592384,-2.598731995
4.72,1.775917411,-1.207558632,-2.447780848
4.73,1.651341319,-0.390282631,-2.136900902
4.74,1.697805405,0.704271317,-1.508458376
4.75,1.628264189,0.713857651,-1.617771864
4.76,1.060758948,2.994620323,-1.190295577
4.77,0.283082783,3.942585945,-0.485518515
4.78,-0.574542582,4.551288605,0.246080041
4.79,-1.407575369,4.34744072,0.443350911
4.8,-1.700186968,3.486544609,0.43919158
4.81,-1.597708344,2.113832474,-0.012217283
4.82,-1.300035715,0.84885025,-0.856263995
4.83,-0.842518687,-0.397051811,-1.512389421
4.84,-0.741939902,-1.124810219,-2.016325235
4.85,-0.920605123,-1.800038338,-2.278280497
4.86,-0.925986826,-1.796865463,-2.29631567
4.87,0.148435175,-2.454823017,-1.226878643
4.88,0.015347436,-2.236048222,-0.127169371
4.89,-0.166613519,-1.734153748,0.506982923
4.9,0.086230055,-1.277974129,0.463363409
4.91,0.329928458,-0.912650108,0.105466247
4.92,0.493858665,-0.609669685,-0.209043264
4.93,0.499314606,-0.596605301,-0.271623254
4.94,0.525500596,0.160674095,-0.751927733
4.95,0.348851591,0.280418396,-0.918895721
4.96,0.287606716,0.419945717,-1.206245184
4.97,0.155901641,0.483297348,-1.333705425
4.98,0.067497447,0.417856216,-1.158130884
4.99,0.031647697,0.295655251,-1.006404757
5,-0.014244206,0.167100906,-0.828870773
5.01,0.047306314,0.029520035,-0.871075153
5.02,0.070909597,0.027264595,-0.86264658
5.03,0.19521907,-0.039880753,-1.276418924
5.04,0.063618414,0.070466042,-1.760043144
5.05,0.095482163,0.062356949,-1.725539207
5.06,0.061061133,0.321651459,-1.567086935
5.07,0.09159334,0.312527657,-1.525917768
5.08,0.655599535,0.744166374,-1.671606064
5.09,0.772406995,0.901028633,-1.610804796
5.1,0.827703118,1.219542503,-1.267770529
5.11,0.801427126,1.448765755,-0.94671464
5.12,0.63446939,1.837564468,-0.508403897
5.13,0.243956432,2.349761009,-0.346531749
5.14,0.213107407,2.897849083,-0.65794313
5.15,0.076063186,3.406873703,-0.689627886
5.16,0.101512387,3.403316498,-0.669080138
5.17,-0.257850945,4.077692032,-0.091460705
5.18,-0.225961477,4.075748444,-0.076975703
5.19,-0.424605787,3.697441101,1.906237602
5.2,-0.124670625,3.451170921,1.876729727
5.21,0.47954157,3.309513092,1.78116858
5.22,1.111707211,3.33522892,2.044539452
5.23,1.393334746,3.639627457,3.012067318
5.24,1.327832103,4.020125389,3.869585991
5.25,0.926126659,4.212805748,4.625888824
5.26,0.922828794,4.217165947,4.603134155
5.27,-1.816935062,3.685818672,7.325932026
5.28,-1.80324614,3.689689636,7.309771538
5.29,-2.385712385,1.18159771,6.739348888
5.3,-1.902701259,-0.354169846,4.942991734
5.31,-1.239450455,-1.574459076,3.30674839
5.32,-1.116508842,-1.82425642,2.154606342
5.33,-1.114629269,-1.821713924,2.142618656
5.34,-1.094567418,-0.908052445,1.377254009
5.35,-0.871155381,-0.435511589,1.280376673
5.36,-0.49841851,0.220757484,1.22509861
5.37,-1.035122156,1.059380531,1.775621414
5.38,-1.032795191,1.071227074,1.722919941
5.39,-2.801614285,1.982163429,3.6238451
5.4,-3.219420433,1.75600338,4.095218658
5.41,-2.589388847,0.752586365,3.264968872
5.42,-2.577097178,0.758302689,3.244090557
5.43,-1.210025549,-1.736957073,0.686289072
5.44,-1.07209003,-2.894494534,-0.60396862
5.45,-0.789218068,-3.680737972,-1.481957793
5.46,-0.670396566,-4.49446249,-1.856573343
5.47,-0.651071668,-4.498969555,-1.832945824
5.48,0.232919127,-5.603602409,-1.623800993
5.49,0.437205494,-6.058887482,-1.089734793
5.5,0.842410922,-6.195014954,-0.852015495
5.51,1.181185365,-6.199475288,-0.809973836
5.52,1.235427976,-6.065431595,-0.614915848
5.53,1.074695945,-5.930169106,-0.559463739
5.54,0.926763654,-5.75538826,-0.642127872
5.55,0.972878397,-5.600919247,-0.813358545
5.56,1.11264205,-5.416227341,-1.114825845
5.57,1.159503698,-4.949346066,-1.319028854
5.58,1.054638624,-4.278748035,-1.157442927
5.59,0.756908894,-3.524402142,-1.136145711
5.6,0.526532054,-2.648522377,-1.23587513
5.61,0.497035861,-1.773475647,-1.371687412
5.62,0.151702553,-0.767692566,-1.295867443
5.63,-0.474919617,0.371506691,-1.228552103
5.64,-0.47546646,0.360701561,-1.172671556
5.65,-1.745697737,2.580992699,-0.522289753
5.66,-2.1355443,3.318758965,-0.205939412
5.67,-2.123246193,3.306368828,-0.130627513
5.68,-2.141605854,3.537733078,-0.141667604
5.69,-1.656103134,3.099075317,-0.569874525
5.7,-1.651551723,3.087943077,-0.49219501
5.71,-1.04511106,2.460985184,-0.933790565
5.72,-1.406350136,2.37723732,-1.263174772
5.73,-1.921100497,2.369814873,-1.248072147
5.74,-1.925233126,2.366609573,-1.223982215
5.75,-2.441479206,3.173687935,-1.064996839
5.76,0.533127666,5.512353897,0.592253685
5.77,0.531985819,5.508111954,0.62810421
5.78,2.188973665,6.085038185,1.88443172
5.79,3.119334936,5.455366135,5.85202837
5.8,2.952190161,4.124872208,7.06815815
5.81,2.955362797,2.945248604,7.29741621
5.82,2.972462416,2.941044807,7.351759911
5.83,2.897262335,1.601236343,6.527352333
5.84,2.578784943,-0.022397041,2.389811993
5.85,1.571761608,0.030161858,-0.129306018
5.86,1.591908932,0.028254509,-0.08797735
5.87,0.877858639,0.178736687,-1.896653295
5.88,0.761000454,0.507481575,-1.946680903
5.89,0.668159366,0.566857338,-0.743904889
5.9,0.518013835,0.601209641,1.114715695
5.91,0.321538895,0.519332886,2.536959887
5.92,0.481254637,0.277601242,3.223466635
5.93,0.605776131,-0.316882134,3.042595863
5.94,0.601632953,-1.146533966,2.479355097
5.95,0.590924263,-1.143404961,2.440362215
5.96,-0.35487318,-3.106444836,0.531483293
5.97,-0.607554913,-3.961808205,-0.361386955
5.98,-0.482947052,-4.796673775,-0.988836765
5.99,-0.370992482,-5.399944305,-1.164646149
6,-0.159028947,-5.898061752,-1.053067088
6.01,-0.142133653,-5.898151398,-1.041059256
6.02,0.494713426,-5.862211704,-0.314033926
6.03,0.66257441,-5.48380661,0.092573404
6.04,0.755467892,-5.013911724,0.338400304
6.05,0.918558776,-4.460083008,0.117200136
6.06,0.85192591,-3.793859482,-0.465685964
6.07,0.720273256,-3.331310272,-0.814921975
6.08,0.614987969,-3.000574112,-1.126711488
6.09,0.436764777,-2.737010479,-1.215280533
6.1,0.443901181,-2.736675739,-1.212971926
6.11,-0.193259001,-2.271900177,-1.612690449
6.12,-0.170664668,-1.881828785,-2.383915663
6.13,0.269251585,-1.384933472,-2.553021908
6.14,0.270807326,-1.386907578,-2.530841351
6.15,0.305588573,-0.337727547,-0.691571593
6.16,0.299758375,0.235683441,0.182999134
6.17,0.638904035,0.818943024,0.339108706
6.18,1.00094831,1.159831047,-0.028323948
6.19,0.966067016,1.54793644,-0.473219097
6.2,0.959052205,1.545666695,-0.452809393
6.21,0.703607857,2.487314224,-0.673196316
6.22,0.245862186,2.850296021,-0.793451607
6.23,-0.481778204,3.434403419,-1.282858133
6.24,-1.233755827,3.846885681,-1.921178579
6.25,-1.749983549,4.116066933,-1.356188059
6.26,-1.739972115,4.117445946,-1.363236427
6.27,-1.266491055,4.74819088,0.445390284
6.28,0.995868743,5.291969299,2.189814806
6.29,1.197915077,5.665269852,2.904735088
6.3,1.201785684,5.665294647,2.907995224
6.31,-0.89436394,4.667683601,6.399487972
6.32,-1.773294091,3.299451828,7.58767128
6.33,-1.287870884,1.570656776,6.959224701
6.34,-0.497999132,0.403380394,5.224816799
6.35,-0.501951695,0.40212822,5.236506939
6.36,-0.573188901,-0.087841988,1.468456268
6.37,-1.457836866,0.299221993,0.655925214
6.38,-1.548208237,0.977754593,-0.08885175
6.39,-1.557371259,1.518306732,-0.212048948
6.4,-1.657239914,2.194012642,0.49198103
6.41,-1.822774172,2.535547256,1.608598948
6.42,-1.987469554,2.694042206,2.905558109
6.43,-1.978598595,2.70030117,2.849968433
6.44,-1.478335977,2.253082275,3.39577055
6.45,-0.276228547,0.226896286,2.462928057
6.46,0.213205695,-1.020068169,1.513367176
6.47,0.487449229,-2.100404263,0.907090664
6.48,0.753679216,-3.140848637,0.028678656
6.49,1.128914118,-4.007424355,-0.864977956
6.5,1.107731342,-4.008415222,-0.871069551
6.51,1.1985991,-5.206879139,-1.253106117
6.52,1.096345305,-5.382828712,-0.860317111
6.53,1.062466145,-5.383865356,-0.871864915
6.54,0.947599649,-5.411407948,-0.434325755
6.55,0.84716332,-5.324482918,-0.35817492
6.56,0.620541513,-5.216598988,0.062941194
6.57,0.589031696,-5.218770504,0.065853596
6.58,0.426007092,-5.240430832,-0.199411809
6.59,0.16195631,-5.107011795,-0.689766526
6.6,0.091426075,-4.851682186,-1.094487786
6.61,-0.038834602,-4.721197128,-1.476793528
6.62,-0.391686767,-4.241415024,-1.978441
6.63,-0.397960454,-4.245241165,-1.946187139
6.64,-0.862678528,-2.754742146,-1.859073877
6.65,-0.733336568,-1.798310757,-1.495329618
6.66,-0.972307324,-0.741250992,-0.818387806
6.67,-0.907409608,0.112848282,-0.490763664
6.68,-0.898355365,0.109836578,-0.453235328
6.69,-0.989238203,1.076486588,-0.271012187
6.7,-1.026332259,1.937712669,-0.513031721
6.71,-1.319501042,2.619481087,-0.768085361
6.72,-1.225816011,3.500225067,-0.750497043
6.73,-0.927863598,3.607886314,-0.715260267
6.74,-1.473341703,3.536464691,-0.512346387
6.75,-2.526194572,3.480321884,-0.616493762
6.76,-3.441564322,3.448984146,-1.190456152
6.77,-3.442798138,3.449102402,-1.193238735
6.78,-3.791344166,3.853862762,-1.264663577
6.79,-1.476045609,4.892372131,-0.436802983
6.8,1.064555407,5.374417305,0.636068642
6.81,3.125598431,5.81962204,1.217854977
6.82,3.523947954,6.192835808,1.678087354
6.83,3.042851925,6.262817383,2.971927643
6.84,3.07719636,6.262432098,3.044610739
6.85,0.535360336,4.234891891,5.747594833
6.86,0.676243961,2.097048759,5.626273632
6.87,0.674624562,2.096378326,5.662901878
6.88,2.827530861,-1.973214626,1.587557077
6.89,2.790368557,-1.97541666,1.578965545
6.9,2.016048431,-2.350353718,-1.735393763
6.91,0.581882775,-1.395670891,-1.537957072
6.92,0.378029347,-0.507211685,-0.647196949
6.93,0.555417597,0.123272896,-0.032673031
6.94,0.550051391,0.124522209,-0.080656141
6.95,0.307021439,1.459908485,1.029060483
6.96,-0.113230526,1.833536148,1.58682394
6.97,-0.538413107,1.68093586,1.89921093
6.98,-0.538830161,1.684357643,1.83651185
6.99,-0.745563686,-0.241891861,3.452204227
7,-0.748626232,-0.238438606,3.398626804
7.01,-0.541004181,-3.281130791,1.246996164
7.02,-0.299345911,-4.639904022,-0.307335526
7.03,-0.289712966,-4.639378548,-0.307742983
7.04,-0.108905256,-5.613501549,-1.006930709
7.05,-0.216511667,-6.501373291,-1.802027941
7.06,0.29159689,-6.368915558,-1.461711884
7.07,0.301984429,-6.367307663,-1.475139022
7.08,0.656546772,-5.419487953,-0.450435758
7.09,0.663412571,-5.416901588,-0.477960646
7.1,1.020067573,-4.336638927,-0.015981555
7.11,0.981609464,-3.804627895,-0.112751961
7.12,1.078557968,-3.265442848,-0.450747997
7.13,1.077537775,-3.263097763,-0.476977557
7.14,0.905857325,-2.270279884,-1.439985037
7.15,0.461653143,-1.670677185,-1.709285736
7.16,0.207697004,-0.927929878,-1.814371347
7.17,0.054884315,-0.247950554,-1.67677927
7.18,-0.316846073,0.38374424,-1.115350485
7.19,-0.006443322,0.847724915,-0.288583815
7.2,0.039760828,1.002530098,0.101696611
7.21,0.048169196,1.001401901,0.119236648
7.22,0.309208572,1.421193123,-0.615861416
7.23,0.318318605,1.419081688,-0.585744143
7.24,-0.078119397,2.420228004,-1.558849216
7.25,-0.389755011,3.139186859,-1.702950478
7.26,-0.453312933,3.516219139,-1.629311562
7.27,-0.223945677,3.43403244,-1.600845575
7.28,-0.228078544,3.433722496,-1.600140691
7.29,-0.314824462,3.319052696,-1.46689415
7.3,-0.979855776,3.746289253,-0.831718385
7.31,-0.898785293,4.496750832,0.254883707
7.32,0.284668386,5.615641594,2.243914604
7.33,-0.182849884,5.522744179,2.665781975
7.34,-0.854662061,4.991835594,3.453335524
7.35,-1.331335545,3.850831032,4.765912056
7.36,-1.439586163,2.372590065,5.82336092
7.37,-0.953117728,0.971336365,5.956177235
7.38,0.342904389,-0.690918922,4.816450119
7.39,0.894261777,-1.343665123,3.214394093
7.4,0.318091244,-0.950324059,1.510843277
7.41,-0.278512716,-0.05596447,0.412553251
7.42,-0.154370427,0.77675724,-0.198321402
7.43,-0.74537158,1.425339699,-0.869797885
7.44,-1.614959002,2.629595757,-0.443207502
7.45,-2.3359375,3.404007912,1.371641755
7.46,-2.455281496,3.366321564,3.05777216
7.47,-2.010863066,2.735041618,4.199221611
7.48,-0.646249116,1.101968765,3.662172079
7.49,-0.64484334,1.104268074,3.643084049
7.5,0.59708035,-1.699544907,0.555980802
7.51,0.370734751,-2.872129917,-0.823472619
7.52,0.114914417,-3.774804115,-1.602975249
7.53,-0.047281742,-4.392641068,-1.814360142
7.54,0.197066367,-4.940797806,-1.662280083
7.55,0.409779102,-5.359210491,-1.263206601
7.56,0.382977575,-5.360548496,-1.266708732
7.57,0.66878885,-5.287130356,0.573561668
7.58,0.971549988,-5.089202404,1.20541513
7.59,0.992143214,-4.800580502,0.886614919
7.6,0.759884954,-4.476441383,0.216777563
7.61,0.53809005,-4.08342886,-0.822038114
7.62,0.166641504,-3.801472187,-1.297529101
7.63,0.032160223,-3.529242516,-1.318694592
7.64,0.022732764,-3.531998634,-1.296905756
7.65,-0.581900835,-2.971806049,-1.475698471
7.66,-0.869346917,-2.612739086,-1.557700396
7.67,-1.133378148,-2.148583889,-1.801908493
7.68,-1.41498661,-1.479187965,-1.896667719
7.69,-1.516179085,-0.796029091,-1.63513875
7.7,-1.494658947,-0.799902916,-1.577942848
7.71,-1.644155979,0.424953461,-0.902202308
7.72,-1.391682386,0.881853104,-0.866436482
7.73,-1.19142437,1.214677811,-1.056726694
7.74,-1.054340601,1.550215721,-0.887044132
7.75,-1.035856009,1.548535347,-0.836571813
7.76,-0.623579264,1.99002552,-0.42916736
7.77,-0.675294936,2.316635132,-0.666808188
7.78,-0.673998475,2.315361023,-0.635133565
7.79,-2.379965305,3.114075661,-1.667659283
7.8,-3.268384457,3.170880318,-2.220989704
7.81,-3.779267311,3.431834221,-1.85526979
7.82,-3.222542763,4.239292145,-0.683672071
7.83,-3.200968742,4.240012169,-0.660374224
7.84,-1.385807514,5.082963943,0.377603948
7.85,0.917427123,5.525301933,1.001072645
7.86,2.972254515,5.843003273,2.016689539
7.87,3.150568962,5.112661362,4.837491035
7.88,2.607698441,4.071427345,5.504957199
7.89,2.358144522,2.970273018,5.464929104
7.9,2.377988577,1.519271851,3.924378872
7.91,2.179911137,0.292707443,1.744151115
7.92,1.630450487,-0.153446198,-0.043456938
7.93,0.843444943,-0.228470802,-1.4538095
7.94,0.486725867,-0.068870544,-1.634332538
7.95,0.581484139,0.313565254,-0.840545297
7.96,0.570536315,0.313038826,-0.87365818
7.97,1.247907877,0.9447155,0.945997715
7.98,1.674729586,1.090294838,1.625881553
7.99,1.791316986,1.056255341,1.843864799
8,1.439275265,0.861905098,1.910920858
8.01,1.418595791,0.86173439,1.871338487
8.02,0.164571464,-0.495674133,1.443373203
8.03,0.070141792,-1.742921829,0.871061206
8.04,-0.442375422,-2.906297684,0.271321088
8.05,-0.828567147,-3.949867725,-0.233414993
8.06,-0.866829395,-4.638988018,-0.417179197
8.07,-0.851719797,-4.638499737,-0.407040089
8.08,-0.648664951,-5.772807121,-0.605425417
8.09,-0.482147992,-5.963672638,-0.727832317
8.1,-0.226266146,-6.022619247,-0.786474943
8.11,0.272743732,-5.877839088,-0.589462996
8.12,0.593563199,-5.55095911,-0.275169611
8.13,0.526821435,-5.070650578,0.163523495
8.14,0.543570161,-4.508728027,0.158818275
8.15,0.505803764,-3.896457195,-0.268927485
8.16,0.266991884,-3.351280212,-0.696173549
8.17,0.222317398,-2.717500687,-1.067042589
8.18,0.164614737,-2.165273666,-1.474017739
8.19,0.132364094,-1.579717636,-1.723258615
8.2,0.058436692,-0.956151962,-1.725393534
8.21,0.112606823,-0.335211754,-1.352874517
8.22,0.04835391,0.098856926,-0.550588012
8.23,-0.092380762,0.588139534,-0.01214096
8.24,-0.188131034,0.904982567,0.025949717
8.25,-0.146820366,1.109045029,-0.457325608
8.26,-0.150073767,1.484804153,-1.125973701
8.27,-0.143006742,2.315262794,-1.224509954
8.28,-0.115870655,3.05946064,-0.656594634
8.29,-0.059888959,3.375101089,-0.797779918
8.3,0.038965046,3.599655151,-1.327219963
8.31,-0.147441089,3.69735527,-1.664622426
8.32,-0.569714367,3.745240211,-1.427090049
8.33,-0.663538575,4.305646896,-0.179553583
8.34,0.152271092,4.889982224,0.886521459
8.35,0.643014491,5.121847153,0.824147522
8.36,0.760106623,5.267202377,0.906782031
8.37,0.761065841,5.266749382,0.922793508
8.38,-0.630976498,3.694371223,4.058473587
8.39,-0.749831259,2.347261429,4.961127281
8.4,-0.739951968,2.347854614,4.969871998
8.41,-0.46249795,0.595441818,5.086194992
8.42,0.724825621,-1.202961922,3.426784754
8.43,0.328674197,-0.854137421,2.072752953
8.44,-0.455310464,-0.17022419,1.299480438
8.45,-0.466450572,-0.170897484,1.289913654
8.46,-1.196636558,1.384883881,0.47936964
8.47,-1.204884768,1.384772301,0.462206602
8.48,-2.459865093,2.867277145,1.369353294
8.49,-2.454030037,2.868672371,1.345044136
8.5,-2.524240494,2.949418068,1.643131852
8.51,-1.360468149,2.146552086,1.027917624
8.52,-0.405154765,1.261566162,0.438003689
8.53,0.184742153,0.318430901,0.108760685
8.54,0.442271382,-0.510192871,0.269236594
8.55,0.800676882,-1.379628181,0.387022793
8.56,0.824064612,-2.167907715,0.52066958
8.57,0.798348427,-3.087851048,0.639084518
8.58,0.773884058,-3.873757839,0.921034694
8.59,0.754395604,-4.377198219,0.734148502
8.6,0.561004162,-4.864278316,0.130353391
8.61,0.346474469,-5.138880253,-0.451600969
8.62,0.261559367,-5.356272221,-0.841115952
8.63,0.268628001,-5.494776249,-1.101318121
8.64,0.303827018,-5.496831417,-1.078307509
8.65,0.319329709,-5.371800423,-1.029362202
8.66,0.190999985,-5.143591404,-0.960606337
8.67,0.099608719,-4.962922573,-1.033146024
8.68,-0.220633626,-4.688695908,-1.145935297
8.69,-0.229979873,-4.689621925,-1.137817979
8.7,-0.276559591,-4.182929993,-1.092612863
8.71,-0.094319761,-3.491921902,-0.716391504
8.72,-0.852698326,-2.379452229,-0.71634984
8.73,-0.849928141,-1.587781906,-0.914937556
8.74,-0.724873364,-0.712230682,-1.159417629
8.75,-0.770658672,0.038907051,-1.538058758
8.76,-0.848149657,0.838043213,-1.430415154
8.77,-0.836794138,0.837718964,-1.387886167
8.78,-0.736634314,1.538908005,-1.004566312
8.79,-0.95681411,2.692556381,-0.617736757
8.8,-0.972963452,3.225972176,-0.530097365
8.81,-0.85585624,3.720868111,-0.326939017
8.82,-1.233381391,3.964113235,-0.388589263
8.83,-2.18568182,3.87688446,-1.037490845
8.84,-3.157428741,3.588711739,-2.078494549
8.85,-3.164595842,3.588283539,-2.072355032
8.86,-3.810798407,4.306829453,-2.537370205
8.87,-1.991745949,4.819685936,-1.636544585
8.88,-0.39132297,5.17183876,-0.907844365
8.89,0.965105116,5.640932083,-0.143372044
8.9,1.942097664,5.829547882,1.16508019
8.91,2.207878828,5.73788929,3.169070721
8.92,2.201030493,5.737491608,3.161683559
8.93,2.130172253,4.947294235,4.826470852
8.94,1.997412682,3.498719215,5.596036434
8.95,2.113151073,0.20639801,3.732396603
8.96,1.847460747,-0.993244171,2.000290394
8.97,1.849891543,-0.993047714,2.011787891
8.98,0.901447237,-1.79229641,-1.149824619
8.99,0.913740635,-1.791527748,-1.137534738
9,0.586051524,-1.031541824,-1.051470995
9.01,0.643262804,-0.570929527,-0.484326571
9.02,0.669520855,-0.275671005,0.190333337
9.03,0.679915965,-0.275129318,0.16226548
9.04,0.787585676,-0.064152718,1.223880172
9.05,0.744698405,-0.054549217,1.436250091
9.06,0.691827476,-0.502225876,1.273357272
9.07,0.324637592,-0.861142159,1.058605671
9.08,0.32267946,-0.860577583,1.019292831
9.09,-0.053419948,-1.640197754,0.596049845
9.1,-0.382200837,-2.460260868,0.140054226
9.11,-0.694536567,-3.30632925,-0.29620859
9.12,-1.084557056,-4.286335945,-0.889521062
9.13,-0.670544982,-4.672552109,-0.083435461
9.14,-0.651253104,-4.671061516,-0.088334933
9.15,0.412288427,-4.873326302,0.031757802
9.16,0.42193538,-4.872486115,0.02734381
9.17,0.980077982,-4.778587818,-0.078284726
9.18,1.412469864,-4.481254101,-0.088705733
9.19,1.32445097,-3.853554726,-0.750868678
9.2,1.020081043,-3.388663769,-0.787851632
9.21,0.933532298,-3.050744057,-1.204311013
9.22,0.927654922,-3.050819397,-1.216113329
9.23,0.198709428,-2.040732861,-1.157145143
9.24,-0.245826364,-1.449620247,-1.017153502
9.25,-0.385269761,-0.858513832,-0.860424578
9.26,-0.576391995,-0.375211716,-1.136580467
9.27,-0.582106292,-0.375637054,-1.136087418
9.28,-0.309117615,0.421088219,-0.938545346
9.29,-0.121044219,1.021544456,-0.945528209
9.3,-0.096850038,1.801599503,-0.97437346
9.31,-0.149290264,2.584159851,-0.92492789
9.32,-0.146948993,2.583932877,-0.913523912
9.33,-0.203402221,3.965342522,-0.707083106
9.34,-0.265064061,4.08495903,-0.88465035
9.35,-0.463327467,3.763296127,-1.111410618
9.36,-0.490228295,3.378024101,-1.383493066
9.37,-0.542477667,2.86125946,-1.221433878
9.38,-0.732161522,2.778160095,-0.669014454
9.39,-0.54961586,3.483086586,0.507498384
9.4,-0.535283923,3.484066963,0.508578003
9.41,-0.029422581,4.622181892,1.113946438
9.42,-0.471317351,4.39074707,1.435416341
9.43,-0.8885113,3.774175644,2.833155394
9.44,-1.502149582,2.79873085,4.055841446
9.45,-1.452860355,1.102677345,4.72146368
9.46,-0.439432323,-0.575217247,4.425360203
9.47,0.858433783,-1.865950108,3.664327621
9.48,2.037042618,-2.376883984,2.737678528
9.49,1.063975573,-1.382043839,2.046124697
9.5,-0.042698383,0.022816658,0.840740025
9.51,-0.180053592,0.889280319,-0.346525997
9.52,-0.413339913,2.308704376,-0.835069895
9.53,-0.425801933,2.308757782,-0.856124401
9.54,-2.91587472,4.397902489,1.67417872
9.55,-3.697638988,4.484213829,2.712605
9.56,-3.68810153,4.487417221,2.66685915
9.57,-1.181226015,1.994800568,3.15859127
9.58,-0.184027255,0.38227272,2.083430767
9.59,0.536400676,-1.049166679,0.722115994
9.6,1.011426568,-2.084135056,-0.021677494
9.61,1.435778618,-3.03334713,-0.602417469
9.62,1.687712789,-3.561071873,-0.938743115
9.63,1.653975606,-3.561931133,-0.954659939
9.64,1.327303648,-4.266299248,-0.715906143
9.65,1.294256926,-4.266096115,-0.741454423
9.66,0.787881017,-4.440254211,0.15236181
9.67,-0.29609409,-4.303657532,0.969330549
9.68,-0.051222175,-4.502933502,0.843006551
9.69,-0.082006007,-4.504343033,0.845544219
9.7,-0.265261948,-4.750847816,-0.389768779
9.71,-0.728486419,-4.500127792,-1.012072206
9.72,-0.931300223,-4.357539654,-1.799085498
9.73,-0.939261437,-4.361002445,-1.753675938
9.74,-0.627479792,-4.275561333,-2.360270262
9.75,-0.65493077,-3.971819878,-2.185778618
9.76,-0.985567331,-3.385131359,-1.729997873
9.77,-1.268134356,-2.852965832,-1.166977167
9.78,-1.369819403,-2.087950706,-0.520410597
9.79,-1.348889112,-2.088683128,-0.489288896
9.8,-0.792994857,-0.532979965,-0.284805298
9.81,-0.711935878,0.220681191,-0.231573179
9.82,-0.825212658,0.945719719,-0.383036971
9.83,-0.709976554,1.548741341,-0.684144497
9.84,-0.598718524,2.175559998,-1.245679855
9.85,-0.206652761,2.850172997,-1.313149691
9.86,-0.207963526,2.849484444,-1.283699751
9.87,-0.124503315,3.337191582,-1.110327601
9.88,-1.545466185,3.999808311,-0.745846272
9.89,-2.96975565,4.140734673,-0.552672148
9.9,-4.017932415,3.927762985,-0.309797198
9.91,-4.005710602,3.92822361,-0.305816889
9.92,-2.535269976,4.668684006,-0.375461072
9.93,-2.515398026,4.669098854,-0.337325394
9.94,1.325361133,4.937316895,-0.145290956
9.95,2.00829339,4.985146523,0.578956246
9.96,2.175661802,4.901497841,2.282283783
9.97,2.055052996,4.449176788,4.024681568
9.98,1.753147364,3.352643013,5.479702473
9.99,1.763628244,2.081086159,5.837735653
10,1.753764987,2.080530167,5.827036381
10.01,2.307482481,-0.350340843,3.246398926
10.02,1.966741562,-0.793592453,0.710767806
10.03,1.168146849,-0.728896141,-0.803165138
10.04,0.509777546,-0.493909836,-1.637654305
10.05,0.497089922,0.021278381,-2.009910107
10.06,0.669804514,0.359278679,-1.539445639
10.07,0.808999479,0.75415802,-0.455025375
10.08,1.083373547,0.947565079,0.39979142
10.09,1.235180974,1.030604362,1.4108181
10.1,1.215967178,1.029900551,1.350309372
10.11,0.552480459,0.684827805,2.606552124
10.12,-0.003252,0.026711464,2.100835323
10.13,-0.460793674,-0.73154068,1.457879543
10.14,-0.795868993,-1.7721138,0.526466012
10.15,-0.79180187,-1.771239281,0.50292176
10.16,-1.013819814,-2.766517162,-0.072222725
10.17,-0.795917988,-4.235983849,-0.802614033
10.18,-0.773056746,-4.235388756,-0.790031016
10.19,-0.371808112,-5.19235754,-0.829261363
10.2,0.003014684,-5.423639774,-0.617278576
10.21,0.345905572,-5.492022038,-0.510127246
10.22,0.628012121,-5.172482014,-0.334409237
10.23,0.796476245,-4.812201977,0.014205635
10.24,1.112377882,-4.416012764,-0.008622497
10.25,1.121314287,-4.414973259,-0.024953455
10.26,0.718079567,-3.437140465,-0.92988956
10.27,0.386947155,-2.854402542,-1.300343871
10.28,0.147249609,-2.341195107,-1.514219999
10.29,-0.081862807,-1.892744064,-1.366134167
10.3,0.038068891,-1.509023666,-1.212182164
10.31,0.176151454,-1.17818737,-0.90079838
10.32,0.185536802,-1.177865028,-0.892512441
10.33,0.354670882,-0.785001755,-0.510664702
10.34,0.644575596,-0.523962975,-0.141351417
10.35,0.76672101,0.488700867,-0.071030229
10.36,0.422468305,1.135051727,-0.239111245
10.37,0.154436886,1.889191628,-0.740041256
10.38,0.158525884,1.889100075,-0.728955269
10.39,-0.680797696,3.459736824,-1.549271584
10.4,-0.968179882,3.76632309,-1.901003838
10.41,-1.083098531,3.938920975,-1.956042051
10.42,-0.980627775,3.893806458,-1.177317142
10.43,-0.97262013,3.894329071,-1.1761235
10.44,-0.363892317,4.050577164,0.512375295
10.45,0.076238811,4.400683403,0.326880693
10.46,0.048126459,4.729135513,-0.003543884
10.47,-0.008130133,4.732145309,-0.19121924
10.48,0.011200309,4.733176231,-0.17013672
10.49,-0.360345244,4.37782383,0.505475998
10.5,-0.754224479,2.676854134,3.499738455
10.51,-0.087099731,1.159809113,4.34608984
10.52,0.943390966,-0.262388229,4.329413891
10.53,1.230648637,-0.926653862,4.106394291
10.54,0.917623282,-0.693127632,3.468435049
10.55,0.895380735,-0.69419384,3.442033529
10.56,0.119000375,0.001595497,2.819329262
10.57,-0.491912484,0.735789299,2.232077599
10.58,-1.109519005,1.553929329,1.520749331
10.59,-2.074851513,2.863062859,0.52742362
10.6,-2.081679821,2.862732887,0.523293674
10.61,-3.163265705,2.896531105,0.918718398
10.62,-2.820076704,2.176480293,0.353852123
10.63,-1.963945985,1.06850338,-0.246835694
10.64,-0.978154719,-0.164333344,-0.441100389
10.65,-0.21252209,-1.311299324,-0.280359656
10.66,0.289660424,-2.230947971,0.095982879
10.67,0.274385065,-2.231319904,0.079673857
10.68,1.104354382,-3.831280231,0.165111572
10.69,1.27423203,-4.365876675,0.328346074
10.7,1.218575597,-4.747415066,0.428600431
10.71,0.80201149,-4.848867416,0.54744184
10.72,0.589359045,-4.818772793,0.537075877
10.73,0.29115656,-4.855882645,0.372172862
10.74,0.021181464,-4.84762764,0.073960185
10.75,0.000231594,-4.848999023,0.082306862
10.76,-0.347358584,-4.857615948,-0.853194237
10.77,-0.55973959,-4.715326309,-1.410176754
10.78,-0.571049213,-4.716543198,-1.392418385
10.79,-0.449431032,-4.516462326,-1.336184263
10.8,-0.41188401,-3.732042789,-1.177336454
10.81,-0.628843129,-3.198922157,-1.18632865
10.82,-0.96645087,-2.371054649,-1.201778293
10.83,-1.286933184,-1.705831528,-1.147875786
10.84,-1.247215986,-0.997303009,-0.942438006
10.85,-1.039346218,-0.24080658,-0.831493259
10.86,-0.849405408,0.350561142,-0.290904492
10.87,-0.831458569,0.350697517,-0.260105163
10.88,-0.727633834,1.138624191,-0.026764303
10.89,-0.419630587,1.440460205,-0.277364194
10.9,-0.411021441,1.440504074,-0.247494251
10.91,-0.424949408,2.309626579,-0.75836122
10.92,-0.586829245,2.869774818,-0.629872978
10.93,-1.070059061,3.365206718,-0.613991737
10.94,-1.826546431,3.592400551,-0.938911259
10.95,-3.110725403,3.663951874,-1.117711663
10.96,-4.238959789,3.556268692,-1.641303062
10.97,-4.228613853,3.556825638,-1.650423408
10.98,-4.394656658,3.402378082,-2.132294178
10.99,-1.568286657,4.42611599,-0.389005035
11,-1.541570544,4.42759037,-0.350545257
11.01,0.639826953,4.778283119,0.174771175
11.02,2.55994463,4.982861519,1.452408433
11.03,2.568796158,4.9842062,1.508582473
11.04,2.896155119,3.505746841,4.574700832
11.05,2.895887375,3.506445885,4.605797768
11.06,2.096914768,0.870451927,3.854530096
11.07,2.41063714,-0.20041275,2.911811113
11.08,2.390814304,-0.201534271,2.914019346
11.09,2.198641777,-1.105382919,1.439408541
11.1,1.203041792,-0.900766373,-0.664833605
11.11,0.576497197,-0.255493164,-0.924555242
11.12,0.626052201,0.294214249,-0.815936327
11.13,1.039791226,0.666762352,-0.328966439
11.14,1.02649951,0.66560173,-0.355271995
11.15,1.247073174,0.999383926,0.394893348
11.16,0.610478818,1.383561134,2.075963974
11.17,-0.065631866,1.227041245,1.957576275
11.18,-0.530865014,0.54658699,1.190225124
11.19,-0.745427609,-0.420899391,0.449011177
11.2,-0.963158846,-1.634840965,-0.087026104
11.21,-0.750969052,-2.870176792,-0.231638074
11.22,-0.750608087,-2.869959354,-0.246860921
11.23,-0.554626167,-4.655663013,0.021215871
11.24,-0.483447194,-5.337365627,0.139307514
11.25,-0.270700127,-5.738721848,0.110571072
11.26,0.057301104,-5.965159416,-0.226160809
11.27,0.043659598,-5.784451962,-0.581236541
11.28,0.066235274,-5.783180714,-0.586560965
11.29,0.172084868,-4.828843117,0.071138442
11.3,0.254576027,-4.458761215,0.325240076
11.31,0.268502533,-4.457547188,0.30513823
11.32,1.252824545,-3.56350708,-0.489719927
11.33,0.922821045,-2.937449455,-0.416041076
11.34,0.936641216,-2.936136246,-0.43346715
11.35,0.459385097,-2.025059223,-1.533085704
11.36,0.3070032,-1.427855492,-1.779420137
11.37,0.313793838,-1.427091599,-1.790311337
11.38,0.179578215,-0.839907646,-1.430893898
11.39,0.196927875,0.130275726,-0.135864511
11.4,0.257299721,0.631197929,0.536832452
11.41,0.223086536,1.079414368,0.315388262
11.42,0.226835668,1.07972908,0.314175516
11.43,-0.269217849,2.008845329,-1.063476682
11.44,-0.392253935,2.580910683,-1.950661182
11.45,-0.388866365,2.580546379,-1.93231976
11.46,-0.181693792,3.556907654,-2.303874254
11.47,-0.134253204,3.733570099,-2.111880541
11.48,-0.142128766,3.733124733,-2.114932299
11.49,-0.705631912,3.436222076,-0.712203383
11.5,-0.73488611,3.34564209,0.217504561
11.51,-0.549333692,3.944718361,1.109465599
11.52,-0.092119217,4.555677414,1.231182575
11.53,-0.083005369,4.555858612,1.244993448
11.54,0.22970286,4.948773384,0.530166328
11.55,-0.070680022,4.801524162,0.860618889
11.56,-0.922408581,4.307864189,2.442108631
11.57,-1.853530169,1.822310448,4.999024868
11.58,-1.824883938,1.824328423,5.011711597
11.59,-1.632237911,0.559321404,5.079825878
11.6,1.235702276,-1.955271721,2.307505846
11.61,1.215664506,-1.956976891,2.309643269
11.62,1.360623717,-0.800359726,1.439194202
11.63,0.278985471,0.19621563,0.502130151
11.64,0.382275641,1.252976418,-0.221283466
11.65,0.354370236,1.251581192,-0.24458544
11.66,-1.180830717,3.329252243,0.965718627
11.67,-2.871330023,4.1822052,1.862816691
11.68,-2.870258808,4.183600426,1.8258183
11.69,-3.117348909,3.193914413,1.73962307
11.7,-1.271041751,1.418188095,0.933853746
11.71,-0.28411597,0.062342644,0.449094862
11.72,0.48635459,-1.19101429,0.232501984
11.73,0.572701454,-2.32264185,-0.079501987
11.74,0.830712199,-3.243807793,-0.53241086
11.75,1.137901306,-3.995068073,-0.667350352
11.76,1.244564414,-4.626461506,-0.164890498
11.77,1.446942449,-5.115953445,0.124421477
11.78,1.423048496,-5.399266243,0.123057723
11.79,0.945371866,-5.323313236,0.324197322
11.8,0.509258807,-5.175306797,0.504925251
11.81,0.368039519,-5.005613804,0.715854704
11.82,0.228181645,-4.814351082,0.471690238
11.83,0.191056758,-4.616306305,-0.019251347
11.84,-0.347586781,-4.275059223,-0.521931469
11.85,-0.912395418,-3.955640316,-1.295562267
11.86,-1.04349947,-3.708260059,-2.206861973
11.87,-1.043667912,-3.709815502,-2.172755003
11.88,-1.338923097,-3.090882778,-2.9826653
11.89,-1.496209264,-2.392732143,-2.184027195
11.9,-1.557706237,-1.560060501,-0.710338473
11.91,-1.542901158,-1.560200691,-0.692961991
11.92,-1.279006124,-0.257691383,0.420300514
11.93,-1.093291759,0.362463951,0.802761436
11.94,-0.925371051,0.802915573,0.795456767
11.95,-0.893705964,1.3174963,0.076593041
11.96,-0.873592854,1.31728363,0.126283824
11.97,-0.934972405,1.860765457,-1.019404411
11.98,-1.155924559,2.787641525,-2.347263336
11.99,-0.882998526,3.211923599,-1.861568809
12,-0.7156685,3.379681587,-0.96460253
12.01,-1.281028032,3.415438652,-0.241920039
12.02,-2.453310966,3.446303368,0.193095654
12.03,-3.562802792,3.508496284,-0.060614776
12.04,-3.690279007,3.894440651,-0.942144871
12.05,-2.300368547,4.295334816,-1.318843007
12.06,-0.364997625,4.914268494,-0.999942243
12.07,0.538902521,5.394148827,-0.550396264
12.08,1.231074095,5.600867271,0.571317613
12.09,1.681797266,5.402541161,2.404252052
12.1,1.853918672,4.420859337,4.309888363
12.11,1.955251217,3.002961159,5.605525017
12.12,1.942334175,3.002067566,5.593535423
12.13,2.543977737,-0.439711571,4.387814045
12.14,2.529227972,-0.440646172,4.374828815
12.15,2.501499176,-1.343822479,-0.208750397
12.16,2.493799686,-1.344100952,-0.205821067
12.17,1.393665791,-0.259718895,-1.602650285
12.18,1.366607189,0.412818909,-1.31695354
12.19,1.363607168,0.412467957,-1.330363631
12.2,1.450290442,1.075137138,-0.269193828
12.21,1.156377316,1.919664383,0.53255856
12.22,0.435707212,1.887942314,0.590251505
12.23,0.424786598,1.887255669,0.551014185
12.24,0.014170408,1.383769989,1.176532507
12.25,-0.20097211,-0.970331192,2.135104895
12.26,-0.496094823,-2.409559727,1.62993753
12.27,-0.674004793,-3.508534431,0.747714639
12.28,-0.916539431,-4.554573059,-0.180828348
12.29,-1.035305619,-5.404062271,-0.844257832
12.3,-0.889361858,-6.009075165,-1.189800262
12.31,-0.666763663,-6.302586079,-1.295171857
12.32,-0.517698169,-6.373171806,-1.052948236
12.33,-0.395625085,-5.995728493,-0.352220625
12.34,0.020105362,-5.553506374,-0.074670486
12.35,0.437940359,-5.063523769,0.300708622
12.36,0.453588009,-5.062110424,0.268343508
12.37,1.538650751,-4.016918182,0.278835148
12.38,1.595227242,-3.39782095,0.132384658
12.39,1.356537223,-2.78340435,-0.179160193
12.4,1.044635534,-2.197855949,-0.542121053
12.41,0.717740357,-1.681941032,-1.039650321
12.42,0.388497889,-1.113568306,-1.299708843
12.43,0.095436037,-0.464014053,-1.296668768
12.44,0.102187276,-0.463445664,-1.300904989
12.45,-0.14890641,0.044632912,-1.067386508
12.46,-0.005906522,0.858952522,-0.652211309
12.47,0.161764175,1.237303734,-0.713042617
12.48,0.164980799,1.237154007,-0.703796387
12.49,0.341446281,1.80904007,-0.842508018
12.5,0.204089314,2.548537254,-0.832664609
12.51,-0.348417401,4.269690514,-0.520282209
12.52,-0.460570931,4.614237785,-0.431372225
12.53,-0.231526971,4.48712635,-0.795086861
12.54,-0.240266085,4.084639549,-1.09203136
12.55,-0.239148498,4.08452034,-1.085933685
12.56,-0.479398906,3.51241684,-1.393268466
12.57,-0.659094632,3.534303665,-1.099372268
12.58,-0.218518078,4.269680977,-0.337231219
12.59,0.410194516,4.79186058,0.291063875
12.6,0.514301777,4.878200531,1.275066972
12.61,-0.243422449,4.371042252,2.161998272
12.62,-0.782550395,3.495716095,3.249666929
12.63,-1.008589387,2.208934784,3.83136797
12.64,-0.555100918,0.869419098,3.598424911
12.65,-0.073682427,-0.472876549,2.908332109
12.66,-0.063803136,-0.472447395,2.925926685
12.67,0.550253809,-1.643313408,2.736363173
12.68,0.377779394,-1.346951485,2.224634171
12.69,0.360040337,-1.348062515,2.212288857
12.7,-0.450947106,-0.70040226,1.421177506
12.71,-0.884134769,0.042922974,0.643405676
12.72,-1.065535903,1.77974987,0.470041454
12.73,-1.967208385,2.66707325,1.48967123
12.74,-2.503357887,3.021461487,2.29878521
12.75,-2.263232708,2.868700027,2.472014666
12.76,-2.265620947,2.869200706,2.451077461
12.77,-1.583538294,2.20141983,2.12057972
12.78,-0.378370166,-0.233701706,0.595013261
12.79,-0.345287085,-1.40502739,-0.093416691
12.8,-0.093454421,-2.337011337,-0.535487294
12.81,0.120155126,-3.233325481,-0.734350085
12.82,0.295481771,-3.964595795,-0.541295469
12.83,0.628991544,-4.523612022,-0.337208927
12.84,0.606075645,-4.524997711,-0.334201694
12.85,0.886538267,-4.974192142,-0.123951301
12.86,0.866400838,-4.975636005,-0.109455898
12.87,0.70547998,-5.063137531,0.123285979
12.88,0.544006288,-5.136219501,0.057975441
12.89,0.530002296,-5.137438297,0.083721295
12.9,0.478443086,-5.136219025,-0.425315678
12.91,0.130320847,-4.732650757,-1.010532618
12.92,-0.094163656,-4.31694746,-0.693412304
12.93,-0.150041372,-3.891598225,-0.576317072
12.94,-0.268453151,-3.439862251,-0.859260738
12.95,-0.535423517,-2.839563847,-1.220791101
12.96,-0.544520736,-2.840024471,-1.195695758
12.97,-0.874262095,-2.169757366,-1.294442892
12.98,-1.073442698,-1.499191284,-1.301127076
12.99,-1.245880842,0.016866684,-0.774062932
13,-1.217248678,0.625802994,-0.668655157
13.01,-1.198636651,0.626989365,-0.629149199
13.02,-1.219974399,1.952611923,-0.736350298
13.03,-1.207562208,2.519729614,-0.385473013
13.04,-1.354967833,2.842843056,-0.576287866
13.05,-1.141810298,2.794968605,-0.862782717
13.06,-0.653078795,2.797092438,-0.845669746
13.07,-0.753746331,2.832100868,-1.129644632
13.08,-1.756031275,2.895263672,-1.436825275
13.09,-3.266925573,2.888595581,-1.181390047
13.1,-3.957402706,3.025876999,-0.992718577
13.11,-3.548808336,3.848655701,-0.84256649
13.12,-2.173382521,4.679448128,-1.116829872
13.13,-2.149439335,4.682419777,-1.084358454
13.14,-0.254547119,5.446745872,-1.207642317
13.15,1.616769671,5.91099453,-0.466856659
13.16,3.197779417,4.942672729,4.073579788
13.17,3.107618809,3.655485153,5.891047955
13.18,2.685528278,1.958091736,6.32291317
13.19,2.676706553,1.957318306,6.319433689
13.2,2.360341549,0.436936379,4.78217411
13.21,0.663403273,-0.714399338,-0.047443867
13.22,0.663675666,-0.713873863,-0.039599597
13.23,0.142507613,-0.217897415,-2.495906115
13.24,0.305536568,0.400103569,-1.586707592
13.25,0.696184099,1.072489738,-0.247676969
13.26,1.05256629,1.679363251,0.553300023
13.27,1.55503881,1.886070251,1.231109977
13.28,1.772594213,1.91285038,1.351149082
13.29,1.706499457,1.474943161,1.139642715
13.3,1.29889214,0.81654644,1.03657198
13.31,0.900879264,-0.225197792,0.990812123
13.32,0.586672783,-1.355953217,1.224246502
13.33,0.294877857,-2.352484703,1.173767805
13.34,-0.100128561,-3.293339729,0.781861603
13.35,-0.712254226,-4.070560932,0.522369027
13.36,-1.005139232,-4.626610756,0.406047046
13.37,-0.735072315,-5.100353718,0.187049121
13.38,-0.723599255,-5.506585121,0.179738224
13.39,-0.562776148,-5.720844269,0.125182077
13.4,-0.406108379,-5.74571085,0.02297017
13.41,-0.097709,-5.545427799,0.06041801
13.42,0.367351472,-5.237479687,0.163227156
13.43,0.667570412,-4.903485298,0.147060081
13.44,0.688232362,-4.902348518,0.133672923
13.45,0.551795423,-3.972101212,-0.384395808
13.46,0.654317796,-3.55900526,-0.443249941
13.47,0.705600381,-3.167439461,-0.537813008
13.48,0.724424005,-3.166155815,-0.548151612
13.49,0.448647499,-2.084956169,-1.128430128
13.5,0.464907706,-2.083698273,-1.131443739
13.51,0.243695259,-0.622073174,-1.522258162
13.52,0.269139111,0.121141434,-1.085621595
13.53,0.276456416,0.12183094,-1.080892086
13.54,0.425990939,0.821267128,-0.470566094
13.55,0.359029561,2.092681885,-0.156304151
13.56,0.298912346,2.501976967,-0.360733569
13.57,-0.025500953,2.887314796,-0.504151702
13.58,-0.097514093,3.188965797,-0.872909963
13.59,-0.100360751,3.188987732,-0.859492004
13.6,-0.212933064,3.24166584,-1.246052265
13.61,-0.779644966,2.865756989,-1.931290627
13.62,-0.78317517,2.86630249,-1.894677997
13.63,-0.896157682,2.755079269,-2.035536528
13.64,-1.012335539,2.843289375,-1.408661842
13.65,-0.607427239,4.507004738,0.580404818
13.66,-0.593060553,4.509130478,0.603844881
13.67,-0.566524208,5.339871407,0.756927729
13.68,-0.21534878,5.764076233,0.638451219
13.69,-0.281771839,5.593002319,1.465930223
13.7,-0.321259797,4.908198357,2.691319942
13.71,-0.259872913,2.409424782,3.55110693
13.72,0.072068274,0.746541023,3.242214441
13.73,0.809223652,-0.642306328,3.276028633
13.74,1.587628007,-1.784303665,3.212484121
13.75,1.440671206,-1.80997324,3.004512072
13.76,0.604612708,-1.240582466,2.707098007
13.77,-0.006066918,-0.599890709,2.338766575
13.78,-0.33080101,0.164694786,2.111053467
13.79,-0.335016608,0.163392067,2.096924782
13.8,-2.486413956,2.200694084,2.4053092
13.81,-3.122787476,3.05406189,2.301554441
13.82,-3.081143379,3.386130333,1.537849426
13.83,-2.539890051,2.906256676,0.549428582
13.84,-1.586001158,1.879898071,-0.029941082
13.85,-1.060893178,0.809401512,-0.155341268
13.86,-1.064525962,0.808353424,-0.166419566
13.87,-0.521511078,-0.924393654,0.010336816
13.88,-0.533357501,-0.926634789,-0.006952941
13.89,0.133015275,-2.399439812,0.465494633
13.9,0.115061998,-2.402092934,0.450754583
13.91,0.052372694,-3.733191013,1.02775836
13.92,0.196087241,-4.319104195,1.420131683
13.93,0.183394611,-4.320495605,1.417865872
13.94,0.494668216,-4.589795589,1.598793268
13.95,0.622231782,-4.527771473,-0.068977475
13.96,0.546450377,-4.400447845,0.024083018
13.97,0.53485316,-4.399829865,0.055307567
13.98,0.713531554,-4.039941788,0.340111554
13.99,0.573127568,-3.962208271,-0.220481575
14,0.334752679,-3.795255184,-1.018746495
14.01,-0.050692081,-3.479800701,-1.530602098
14.02,-0.101583421,-3.083322525,-1.561256409
14.03,-0.115751028,-2.675354481,-1.39922297
14.04,-0.133083522,-2.674702168,-1.372957706
14.05,-0.116741598,-1.74065876,-0.306089878
14.06,-0.136476815,-1.740973473,-0.290910423
14.07,-0.366343856,-1.188105583,0.447236061
14.08,-0.80995959,-1.039209366,0.211731851
14.09,-1.107457638,-1.006733894,-0.176804185
14.1,-1.250781655,-0.968570709,-0.465269923
14.11,-1.199040413,-0.79791832,-0.782173693
14.12,-1.335291266,-0.267244339,-1.466344476
14.13,-1.347010612,0.240362167,-1.794538498
14.14,-1.325622082,0.24579525,-1.759872317
14.15,-0.910531163,1.599744797,-1.710790515
14.16,-0.708157718,2.31467247,-1.343896866
14.17,-0.398955047,2.657782555,-1.075955272
14.18,-0.331751704,2.568375587,-0.536434889
14.19,-1.098503351,1.960796356,0.029431939
14.2,-1.09342289,1.959771156,0.017558098
14.21,-2.639207363,0.792920113,-1.155952096
14.22,-2.926648378,1.625325203,-2.119063854
14.23,-1.940270901,2.659664154,-2.062980652
14.24,-0.404892862,3.844163895,-1.77023077
14.25,0.91148454,4.671294212,-0.843049169
14.26,1.3094666,5.067908287,0.560893059
14.27,1.485914111,5.081899643,2.129825354
14.28,1.816216946,4.58502388,3.344430923
14.29,2.195318222,4.202555656,3.347100019
14.3,2.503613949,3.654813766,2.456659794
14.31,2.444365978,2.851919174,1.517726898
14.32,2.045529842,2.0398283,1.040983319
14.33,1.371014595,1.357278824,1.152778625
14.34,1.121941805,0.857208252,2.434497595
14.35,1.107167363,0.848217011,2.371929407
14.36,0.985129774,0.359677315,2.801148891
14.37,1.325709701,0.630591393,2.867714405
14.38,1.427060127,1.241940498,2.72661376
14.39,1.20767045,1.78440094,2.041157961
14.4,0.921254396,2.083296776,1.766085386
14.41,0.597984552,2.183765411,2.311319828
14.42,0.491233319,1.79284668,3.041433334
14.43,0.3722229,0.861163139,3.496196747
14.44,0.348830879,0.854625702,3.396528959
14.45,-0.092941403,-1.269350052,2.2321558
14.46,-0.109080672,-1.272797585,2.152317762
14.47,-0.208706081,-2.704426289,0.754250825
14.48,-0.11676681,-3.093587875,0.545899212
14.49,-0.081241071,-3.103734493,0.378240764
14.5,-0.0818519,-3.103814602,0.326705784
14.51,0.191716909,-2.845149994,1.10152781
14.52,0.18640095,-2.845047951,1.049629092
14.53,0.669173122,-2.042821884,1.565384388
14.54,0.373317987,-1.812678814,1.413485765
14.55,0.367039651,-1.812130451,1.372583747
14.56,0.017783701,-1.543315887,0.37308836
14.57,0.051087737,-1.54996109,0.049853504
14.58,0.378470808,-1.515997887,0.420887381
14.59,0.525181592,-1.415030479,0.879691899
14.6,0.860673368,-1.400174141,1.488304734
14.61,1.278589129,-1.325401306,1.868174434
14.62,1.407553554,-1.233747482,2.02168417
14.63,1.382931709,-1.232823372,1.975993395
14.64,0.927676678,-0.427165031,1.650421619
14.65,0.729898691,0.053197861,1.215652466
14.66,0.563946009,0.638907433,0.651435673
14.67,0.24167794,1.190947533,0.589368105
14.68,0.222081572,1.19250679,0.55565536
14.69,0.356663942,1.469451904,1.534371257
14.7,0.350001246,1.257989883,1.617781758
14.71,0.045250386,0.900175095,1.056587458
14.72,-0.142813355,0.635221481,0.516094923
14.73,-0.273376495,0.398712158,-0.055479825
14.74,-0.360007227,0.351224899,-0.431257963
14.75,-0.429481089,0.54312706,-0.686558604
14.76,-0.43384862,0.543569565,-0.693537831
14.77,-0.592668831,0.877010346,-0.618195593
14.78,-0.584985316,1.122177124,0.076815784
14.79,-0.278714001,1.043744087,1.041196823
14.8,-0.112368882,0.411442757,0.867786944
14.81,-0.097515613,0.410344124,0.88663578
14.82,0.002494812,0.064062119,0.261814594
14.83,0.346769452,-0.84984684,-0.960605979
14.84,0.424348116,-1.222453117,-0.968289018
14.85,0.458871543,-1.361795425,-0.504310131
14.86,0.412396848,-1.404630661,0.137169004
14.87,0.305379748,-1.171801567,0.16439569
14.88,-0.039982557,-0.792874336,0.389240146
14.89,-0.495061159,-0.318229675,0.34910059
14.9,-0.489813626,-0.317867279,0.348077357
14.91,-0.527516246,0.426336289,-0.511497378
14.92,-0.380693138,0.590848923,-0.567856133
14.93,-0.378390372,0.590013504,-0.55560863
14.94,-0.139384151,0.543642044,-0.312945575
14.95,-0.106488407,0.305610657,0.146707714
14.96,-0.104304016,0.304497719,0.163306654
14.97,-0.228263915,0.252820015,-0.104855955
14.98,-0.505259574,0.143613815,-0.464722157
14.99,-0.649669647,0.003332138,-0.224510759
15,-0.6495893,0.002113342,-0.205870777
15.01,-0.613059759,-0.200090408,-0.501474023
15.02,-0.65868777,-0.287103653,-0.332791954
15.03,-0.913475454,-0.421692848,-0.172012955
15.04,-1.002494216,-0.491428375,-0.134206921
15.05,-0.977050543,-0.490805626,-0.120761722
15.06,-1.005325079,-0.544988632,-0.290853918
15.07,-0.879565656,-0.41927433,-0.598916769
15.08,-0.840564013,-0.417821884,-0.57784313
15.09,-0.936507225,-0.23396492,-0.377299786
15.1,-0.617507577,0.177416802,-0.153939456
15.11,-0.542918861,0.385087013,-0.240097836
15.12,-0.462445796,0.499138832,-0.366014898
15.13,-0.397140384,0.517126083,-0.424268067
15.14,-0.321510673,0.460644722,-0.29620266
15.15,-0.348310649,0.320245743,-0.15940474
15.16,-0.402871072,0.069612503,-0.183488295
15.17,-0.269098342,-0.011058807,-0.358922392
15.18,-0.200256705,-0.22360611,-0.549243569
15.19,-0.217929721,-0.35492897,-0.656981945
15.2,-0.276349247,-0.436002731,-0.715893745
15.21,-0.149378121,-0.485917091,-0.672733903
15.22,0.099391222,-0.291749001,-0.039091736
15.23,0.039663732,-0.286944389,0.341653556
15.24,0.053725421,-0.29907608,0.182787761
15.25,0.052295983,-0.29929924,0.187118039
15.26,-0.359185219,-0.1771698,0.123221964
15.27,-0.522171676,-0.18174839,-0.515408635
15.28,-0.518086731,-0.181429863,-0.510520697
15.29,-0.436754525,-0.216989517,-0.595078528
15.3,-0.248333335,-0.065799713,0.097994655
15.31,-0.245403111,-0.065536499,0.100174621
15.32,-0.259061515,-0.115527153,-0.010758638
15.33,-0.263388395,-0.112869263,-0.142849177
15.34,-0.147680581,0.035856247,-0.185598269
15.35,-0.262348294,0.112676621,-0.092652343
15.36,-0.258173108,0.113018036,-0.087051608
15.37,-0.138865829,0.400680542,-0.070625216
15.38,-0.135619998,0.400901794,-0.063054934
15.39,-0.073262215,0.317269325,0.055358835
15.4,0.061388314,0.166352272,-0.020575099
15.41,0.186855435,-0.090114594,-0.430210531
15.42,0.344373763,-0.217414856,-0.45908761
15.43,0.339347184,-0.218029976,-0.449499548
15.44,0.118544757,-0.192300797,-0.300094485
15.45,0.120541394,-0.183294296,-0.342674851
15.46,0.008782268,-0.143274307,-0.209756494
15.47,-0.079692543,-0.134405136,-0.173399895
15.48,0.042831063,-0.187984467,-0.166747153
15.49,0.108336926,-0.193839073,-0.032098286
15.5,0.251383841,-0.151948929,-0.15672785
15.51,0.077519953,0.014371872,-0.226120979
15.52,0.232759178,0.120944023,-0.126451954
15.53,0.407148182,0.160490036,-0.13960202
15.54,0.09950906,0.360620499,-0.130663365
15.55,-0.01586628,0.398241043,-0.132985085
15.56,0.032324255,0.246809959,-0.138475582
15.57,0.061143458,0.097742081,-0.060275752
15.58,0.314718783,0.032459259,-0.159066677
15.59,0.423073411,0.05561161,-0.11926052
15.6,0.227747679,0.095563889,0.154101223
15.61,0.122961879,0.221870422,0.401818186
15.62,0.000154853,0.144753456,0.502965689
15.63,-0.004606664,0.1442976,0.50846988
15.64,-0.028540492,-0.1267519,-0.527295589
15.65,-0.227476239,-0.119870186,-0.926966131
15.66,-0.229683995,-0.120117188,-0.916579008
15.67,0.033284783,-0.11081028,-0.084856212
15.68,0.0596205,-0.149541855,0.244510204
15.69,0.047859728,-0.099661827,0.239310205
15.7,-0.046438158,0.050912857,0.281901628
15.71,-0.054266274,0.07476902,-0.123090595
15.72,-0.181156397,0.060389519,-0.521336198
15.73,-0.285331905,0.074831963,-0.170329019
15.74,-0.195653379,0.050974846,-0.051269803
15.75,0.028618157,0.046126366,-0.06783881
15.76,-0.0678249,0.000390053,-0.23016265
15.77,-0.193979085,-0.045214653,-0.191179216
15.78,-0.193873286,-0.045191765,-0.18390426
15.79,-0.345237315,-0.042627335,-0.030689452
15.8,-0.108519197,-0.164522171,-0.354535848
15.81,-0.01161015,-0.224216461,-0.261555225
15.82,0.072797954,-0.137908936,-0.018382192
15.83,0.188095748,-0.032469749,0.228922606
15.84,0.078373253,-0.022808075,0.245222271
15.85,0.03694278,-0.068081856,-0.025938086
15.86,0.039784729,-0.067737579,-0.014230408
15.87,-0.44925952,-0.143854141,-0.107679099
15.88,-0.444846392,-0.143354416,-0.097657174
15.89,-0.350414097,-0.174046516,-0.247255981
15.9,-0.260961473,-0.068257332,-0.355919212
15.91,-0.188612998,-0.0343256,-0.216645017
15.92,-0.10950762,-0.029198647,0.007146224
15.93,0.050449848,-0.064832687,0.025612205
15.94,-0.017201662,-0.026252747,0.039705396
15.95,-0.129140198,0.005256653,0.041127682
15.96,-0.149766743,0.005647659,-0.025073081
15.97,-0.146498919,0.006040573,-0.019719884
15.98,-0.095872283,0.003985405,0.128805384
15.99,-0.093325257,0.004276276,0.132009596
16,-0.233720958,-0.012136459,0.199613869
16.01,-0.144490182,-0.117096901,0.008337691
16.02,-0.10370487,-0.162221909,-0.198199093
16.03,-0.128068566,-0.130784988,-0.115191728
16.04,-0.125828385,-0.096967697,0.037933707
16.05,-0.078093767,-0.103868485,0.081826851
16.06,-0.09576267,-0.031825066,0.022761345
16.07,-0.101555526,0.018639565,-0.020152256
16.08,-0.110137165,0.004423141,-0.123179093
16.09,-0.22176677,0.059627533,0.027331501
16.1,-0.213053048,0.059806824,0.194578797
16.11,-0.016452789,0.007247925,0.171558484
16.12,0.135263085,-0.09572506,0.200216711
16.13,0.172331512,-0.258786202,0.29650408
16.14,0.194380224,-0.194533348,0.281751335
16.15,0.171292484,-0.130326271,0.202092528
16.16,0.048630655,-0.106719017,-0.25808835
16.17,0.05399096,-0.073307037,-0.225454122
16.18,-0.199333549,0.017526627,0.381110013
16.19,-0.215128124,0.038892746,0.630014896
16.2,-0.197752297,-0.059523582,0.212280527
16.21,-0.23548758,-0.112381935,-0.1764891
16.22,-0.151042283,-0.122093201,-0.158664033
16.23,-0.153247058,-0.122312546,-0.159905553
16.24,-0.0309183,-0.101007462,0.031794325
16.25,0.134064019,-0.000712395,0.200421825
16.26,0.189486325,-0.003290176,0.334687948
16.27,0.323827088,-0.065681458,0.414650023
16.28,0.287632525,-0.077858925,0.222399265
16.29,0.170517087,-0.118638992,-0.003681555
16.3,0.12593019,-0.111463547,0.025197789
16.31,0.037961423,-0.133052826,0.101513997
16.32,0.041266441,-0.054068565,-0.090955496
16.33,-0.149531126,0.056044579,-0.156384021
16.34,-0.224901915,0.111096382,0.016550213
16.35,-0.226099312,0.111048698,0.018408418
16.36,-0.088626921,0.091813087,0.221023887
16.37,-0.109083414,0.072618485,0.168690816
16.38,-0.171440661,0.063167572,0.039193213
16.39,-0.141571045,0.068228722,-0.050493628
16.4,-0.114215791,0.056510925,0.008168668
16.41,-0.04915005,-0.01271534,0.013718575
16.42,0.072649062,0.008954048,0.06872873
16.43,0.083242118,-0.022162437,0.161348939
16.44,0.081703603,-0.022206306,0.164239556
16.45,0.010809302,0.013660431,0.23114647
16.46,0.010056674,0.013677597,0.233903661
16.47,-0.03043586,0.001815796,0.227329105
16.48,0.056092978,0.028297424,0.163823292
16.49,0.001142442,-0.009888649,0.102408528
16.5,0.011262596,-0.036070824,0.070014983
16.51,-0.072103381,-0.050285339,0.14505282
16.52,-0.009919763,-0.0837183,0.068465054
16.53,-0.092367888,-0.105268478,-0.136734664
16.54,-0.229369283,-0.033344269,-0.209376425
16.55,-0.277047336,0.038630486,-0.217485249
16.56,-0.126204789,0.002854347,0.185811415
16.57,-0.037166476,-0.124175072,0.270321518
16.58,-0.041766465,-0.191405296,0.375788838
16.59,0.05756712,-0.158028603,0.64774394
16.6,0.068923235,-0.100746155,0.418921292
16.61,-0.22557348,-0.038559914,-0.356495738
16.62,-0.224819124,-0.038379669,-0.352965653
16.63,-0.23889041,0.090816498,-0.068254858
16.64,-0.23056823,0.06888485,0.336407602
16.65,-0.157972574,0.058808327,0.460969687
16.66,-0.099595666,0.051151276,0.346393317
16.67,-0.102479696,0.050785065,0.342836946
16.68,-0.061008036,0.041046143,0.143450305
16.69,-0.291586459,0.022064209,0.271151304
16.7,-0.192620814,-0.018345833,0.130897239
16.71,-0.048133194,-0.070669174,0.044554383
16.72,-0.045724988,-0.070354462,0.047710061
16.73,0.001794815,-0.070111275,0.181846649
16.74,0.028241396,-0.043420792,0.075983882
16.75,0.004167914,-0.021471977,0.156215876
16.76,0.006229281,-0.021093369,0.161492795
16.77,-0.047196269,-0.035187721,0.309126079
16.78,-0.091704905,-0.061294556,0.207774505
16.79,-0.113628089,-0.039593697,-0.194525302
16.8,-0.227766991,-0.006156921,-0.142890781
16.81,-0.229633093,-0.006340981,-0.143434674
16.82,-0.162261665,0.050902367,0.166352585
16.83,-0.159129024,0.048325539,0.182147324
16.84,-0.220069826,-0.011619568,0.198794723
16.85,-0.143516183,0.002766609,0.144287691
16.86,-0.064377129,0.010017395,0.105284542
16.87,-0.078454912,-0.006640434,0.104980797
16.88,-0.063600004,-0.042441368,0.095241249
16.89,-0.137496948,-0.063875198,0.106593698
16.9,-0.098548472,-0.047031403,0.18422012
16.91,-0.067397773,-0.044628143,0.3256419
16.92,-0.038867891,-0.042256355,0.311015993
16.93,-0.036766171,0.017599106,0.201571852
16.94,-0.037024856,0.01764679,0.203225017
16.95,-0.011008382,0.058397293,0.016095817
16.96,-0.014423549,0.101480484,-0.039432168
16.97,-0.016012549,0.101390839,-0.038749576
16.98,-0.053761184,0.084433556,0.080109
16.99,-0.34407109,0.060380936,0.122004777
17,-0.405308902,0.058069229,0.121639013
17.01,-0.240320325,0.027131081,0.301507592
17.02,0.012798429,-0.075661659,0.572249711
17.03,0.043573558,-0.217001915,0.247661263
17.04,0.035959125,-0.284081459,0.231119961
17.05,0.035640001,-0.28413868,0.230339766
17.06,0.12598443,-0.250803947,0.4257043
17.07,-0.012978554,-0.109519005,-0.0668194
17.08,-0.082282126,0.110888481,0.053796023
17.09,-0.084912777,0.11054039,0.050607324
17.1,-0.119295895,0.071785927,0.505434036
17.11,-0.041114211,0.056979179,0.321087748
17.12,-0.027539909,-0.005673409,0.150164172
17.13,-0.149499059,-0.010671616,0.031862587
17.14,-0.15058279,-0.0107584,0.031941056
17.15,-0.216040433,-0.010802269,0.080317825
17.16,-0.057202816,-0.008522987,0.239021823
17.17,0.008523762,-0.027786255,0.282282591
17.18,0.031050861,-0.023078918,0.086178541
17.19,0.00868398,-0.006289482,0.048210412
17.2,0.008278906,-0.006186485,0.298594236
17.21,0.008229852,-0.006071091,0.301630974
17.22,0.077549219,-0.108919144,0.259085745
17.23,0.002681732,-0.09206295,0.109878063
17.24,0.032865286,-0.070405006,-0.067548722
17.25,0.030910373,-0.070401192,-0.063433558
17.26,-0.050204098,0.034920692,-0.160405159
17.27,-0.007262588,0.049137115,0.126054019
17.28,-0.089241207,0.046536446,0.215237528
17.29,-0.091526985,0.046383858,0.215739787
17.3,-0.202785969,0.046257019,0.272876948
17.31,-0.155638099,0.019899368,0.046103567
17.32,-0.163254321,0.015152931,-0.00722301
17.33,-0.120529413,-0.027899742,0.023294002
17.34,-0.049196005,0.022371292,0.038618565
17.35,-0.042869806,0.055850983,0.135067731
17.36,0.004206121,0.007919312,0.176260382
17.37,0.051425278,-0.030402184,0.217627496
17.38,0.031536341,-0.078328133,0.251643896
17.39,0.090915978,-0.061613083,0.321079493
17.4,0.078151643,-0.104776382,0.261076033
17.41,0.112876296,-0.064135551,0.158955187
17.42,0.067263246,-0.04514122,0.195533186
17.43,0.038146555,-0.062138557,0.190134212
17.44,0.034855723,-0.062454224,0.189096406
17.45,-0.078504026,0.04981041,-0.139455974
17.46,-0.122557461,0.00646019,-0.007412404
17.47,-0.126325846,0.006141663,-0.008262306
17.48,0.145320475,-0.140524864,0.651181102
17.49,0.005388856,-0.141134262,0.282942951
17.5,-0.137458563,-0.105622292,0.210912943
17.51,-0.139819741,-0.105942726,0.20769006
17.52,-0.077175975,0.001488686,0.332780957
17.53,-0.110170543,0.025271416,-0.381213605
17.54,-0.149238467,0.051377296,-0.03875047
17.55,-0.196368039,0.050913811,0.251574367
17.56,-0.227245033,0.050278664,0.528669357
17.57,-0.164213955,0.044861794,0.598510444
17.58,-0.076164365,-0.003534317,0.303197712
17.59,-0.073042929,0.022511482,-0.003368825
17.6,-0.073782623,0.022360802,-0.005783916
17.61,-0.099676311,0.007984161,0.112387255
17.62,-0.02046299,-0.054318428,0.220776767
17.63,-0.025048077,-0.037591934,0.154956743
17.64,-0.025008023,-0.037581444,0.155023977
17.65,0.051181734,-0.05671978,0.290404499
17.66,0.110565722,-0.061481476,0.270519018
17.67,0.200265765,-0.037547112,0.069258243
17.68,0.198027313,-0.037638664,0.071617216
17.69,0.118863165,-0.020999908,-0.027779549
17.7,-0.070848823,0.048181534,0.117644295
17.71,-0.12367475,0.040782928,0.13082616
17.72,-0.169252455,0.047746658,0.120429412
17.73,-0.286301136,0.033191681,0.121581435
17.74,-0.287988663,0.033044815,0.120651603
17.75,-0.150677919,0.044854164,0.233849958
17.76,-0.089637041,-0.063037872,0.179451585
17.77,-0.090564072,-0.063142776,0.178073585
17.78,-0.083455503,-0.034486771,0.145153672
17.79,0.038443565,-0.034561157,0.031124771
17.8,-0.067349613,-0.001066208,0.102965564
17.81,0.004291892,0.015645027,0.217180714
17.82,0.070329368,-0.006006241,0.192048311
17.83,0.05936259,-0.030063629,0.141247451
17.84,0.04088062,-0.061301231,0.215418384
17.85,0.017446518,-0.015972137,0.169274852
17.86,-0.147859454,-0.016181946,0.283093095
17.87,-0.149978936,-0.016387939,0.281325936
17.88,-0.014098227,0.004955292,-0.039627016
17.89,-0.017658293,0.004750252,-0.03829357
17.9,-0.145296812,-0.009783745,-0.022958636
17.91,-0.117104054,0.045092583,-0.080108821
17.92,-0.120127499,0.044916153,-0.079550594
17.93,0.102122188,0.011187553,0.394156486
17.94,-0.00442791,-0.015449524,0.416260481
17.95,-0.069825292,-0.10431385,0.280414373
17.96,-0.071680546,-0.104439735,0.280438185
17.97,-0.034430385,-0.037488937,0.277724892
17.98,-0.099821091,-0.03034687,-0.121927381
17.99,-0.093211114,-0.035070419,-0.329634368
18,-0.042265475,-0.006354332,-0.056346446
18.01,0.004577637,0.014946938,0.170435712
18.02,0.016798675,0.04326725,0.277236044
18.03,-0.021492004,0.061971664,0.308831722
18.04,0.022336006,0.080722809,0.369325399
18.05,-0.066800892,0.042139053,0.316608906
18.06,-0.049257338,0.042062759,0.166056469
18.07,0.028918684,-0.058461189,0.099520683
18.08,0.028185368,-0.058348656,0.104118109
18.09,-0.082342565,0.027962685,0.077580869
18.1,-0.082229197,0.028131485,0.082309514
18.11,-0.086868644,0.04506588,0.203959256
18.12,0.044900894,0.042809486,0.210387185
18.13,0.073384941,0.040569305,0.071426898
18.14,0.073191762,0.040743828,0.076409519
18.15,0.158153474,0.043226242,-0.105759114
18.16,0.15731293,0.043293953,-0.102654994
18.17,-0.122484326,0.043301582,0.500845194
18.18,-0.224321425,0.024180412,0.552310705
18.19,-0.284349561,-0.057105064,0.312095761
18.2,-0.364558816,-0.10705471,0.077932984
18.21,-0.355177641,-0.15209198,-0.112013042
18.22,-0.350073636,-0.151611328,-0.10801813
18.23,-0.373340547,-0.079344749,0.016432792
18.24,-0.276121199,0.016842842,0.131374508
18.25,-0.270168722,0.017160416,0.129622102
18.26,-0.132957578,0.043814659,0.199943751
18.27,-0.060511291,0.070457459,0.212730467
18.28,0.026126385,0.085122108,0.204110012
18.29,-0.005516648,0.047027588,0.321894079
18.3,-0.000879049,0.047255516,0.319180757
18.31,0.003103018,0.021058083,0.557430506
18.32,0.190288931,-0.148867607,0.293041527
18.33,0.014870226,-0.177535057,0.034984082
18.34,0.016599,-0.177460671,0.033837527
18.35,-0.1355322,-0.165478706,0.015338361
18.36,-0.3459934,-0.064970016,-0.218788743
18.37,-0.345644116,-0.065027237,-0.221406966
18.38,-0.122983038,0.138386726,0.206869602
18.39,0.039178789,0.147768021,0.641242027
18.4,0.028290331,0.046956062,0.545361757
18.41,-0.166903555,0.006066322,0.3675614
18.42,-0.125523984,-0.08730793,0.407070041
18.43,-0.059276104,-0.044161797,0.285364986
18.44,-0.121904314,-0.087145805,-0.215544671
18.45,-0.100977302,-0.101232529,-0.306894898
18.46,-0.100813627,-0.101098061,-0.303259909
18.47,0.164639115,-0.005577087,0.470464438
18.48,0.212239832,0.034532547,0.693341017
18.49,0.019976377,0.045834541,0.641466022
18.5,0.017878294,0.018882751,0.261385113
18.51,-0.103325903,0.006483078,0.0525361
18.52,-0.172553122,0.044555664,-0.029046446
18.53,-0.070276499,0.034870148,0.08161065
18.54,-0.032360613,0.041985512,0.274188757
18.55,-0.031900048,0.041989326,0.273036957
18.56,-0.021281242,0.044490814,0.101966113
18.57,-0.019330144,0.044763565,0.106637776
18.58,-0.040819645,0.042740822,0.119917437
18.59,0.040512562,-0.074215889,0.090216205
18.6,-0.056014299,-0.009264946,-0.021298349
18.61,-0.071237504,0.043671608,0.187402025
18.62,-0.055893719,0.034255981,0.28056854
18.63,-0.148934901,0.029523849,0.281488448
18.64,-0.147689879,0.012856483,0.281756014
18.65,-0.184058785,-0.018148422,0.274555624
18.66,-0.190738142,-0.044303894,0.281114638
18.67,-0.134353221,-0.113523483,0.267765671
18.68,-0.130535126,-0.11331749,0.265922666
18.69,-0.165538669,-0.103578568,0.026529908
18.7,-0.138260067,-0.050723076,0.067562163
18.71,-0.116388142,-0.043423653,0.168263406
18.72,0.009998679,0.00689888,0.237232
18.73,0.104601681,-0.012251854,0.201326594
18.74,0.054960251,0.009321213,0.263109356
18.75,0.058640778,0.009435654,0.265906543
18.76,0.031083763,0.047851563,0.20439437
18.77,0.031950891,0.04796505,0.206039816
18.78,0.04407835,0.045659065,0.095711797
18.79,-0.055982292,0.048148155,0.219644845
18.8,0.000426352,0.048148155,0.111560896
18.81,-0.001228094,0.048117638,0.114716873
18.82,-0.23219198,-0.014098167,0.005336255
18.83,-0.184761822,0.0170784,-0.030699402
18.84,-0.183273912,0.007488251,0.030573636
18.85,-0.047991991,0.02894783,0.153219268
18.86,-0.0508129,0.028704643,0.151946321
18.87,-0.021908283,-0.024243355,0.531883061
18.88,-0.021014154,-0.093892097,0.403823823
18.89,-0.106692791,-0.024487495,-0.000473619
18.9,-0.105257809,-0.065024376,-0.245528638
18.91,0.055678308,-0.048081398,-0.044596016
18.92,0.053467929,-0.048192978,-0.043104768
18.93,-0.009263098,0.080830574,0.510602474
18.94,-0.063565552,0.046915054,0.277231365
18.95,-0.113004625,0.051363945,0.093667373
18.96,-0.17786628,0.060744286,0.160362795
18.97,-0.177893996,0.060765266,0.160650358
18.98,-0.12837559,-0.039647102,0.193087876
18.99,0.093771935,-0.125592232,0.07205373
19,0.221865594,-0.149265289,0.271234453
19.01,0.109524667,-0.153879166,0.290229946
19.02,0.057576001,-0.062693596,0.160549223
19.03,-0.111187697,-0.0768013,0.134090632
19.04,-0.133682013,-0.035873413,0.116137847
19.05,-0.154313386,0.009771347,0.068696946
19.06,-0.197108984,0.048211098,0.129000038
19.07,-0.134802342,0.098603249,0.083981901
19.08,-0.160916627,0.103546143,0.130847424
19.09,-0.150060892,0.091807365,0.175411433
19.1,-0.163018107,0.048952103,0.167100921
19.11,-0.161140323,0.049231529,0.170483127
19.12,-0.032513857,-0.11817646,0.220320761
19.13,-0.026496708,-0.132394791,0.238763228
19.14,-0.147577405,-0.125085831,0.290241569
19.15,-0.048209429,-0.163315773,0.187259555
19.16,-0.047825158,-0.163255692,0.188150376
19.17,-0.046988368,-0.127218247,0.177459523
19.18,0.004006207,-0.143867493,0.209992319
19.19,-8.70228E-05,-0.170098305,0.226018027
19.2,0.001012206,-0.169981003,0.22705482
19.21,0.082923114,-0.224977493,0.184764385
19.22,0.044752359,-0.102837563,0.211571053
19.23,0.042184174,-0.040631294,0.211151078
19.24,0.051112771,0.043123245,0.208502084
19.25,0.049751699,0.043017387,0.208265215
19.26,-0.076365948,0.047661781,0.167235225
19.27,-0.07734853,0.047615051,0.167381942
19.28,-0.244700134,0.042891502,-0.008716971
19.29,-0.381868899,0.050270081,-0.145538539
19.3,-0.380633771,0.050429344,-0.143826187
19.31,-0.038386106,-0.145893097,0.31411469
19.32,-0.041090071,-0.146199226,0.311195433
19.33,0.28323257,-0.194578171,0.877494514
19.34,0.183019459,-0.132762909,0.362542838
19.35,0.013080299,-0.068252563,-0.256596595
19.36,-0.141514123,-0.099235535,-0.316751212
19.37,-0.180858433,-0.08946228,0.251037478
19.38,-0.181920469,-0.089659691,0.247688294
19.39,-0.08808279,-0.073280334,0.368328452
19.4,-0.150240958,-0.078448296,0.101416647
19.41,-0.151936054,-0.078742981,0.09660998
19.42,-0.224190414,-0.071771622,0.027270138
19.43,-0.114088833,-0.009671211,0.154687941
19.44,-0.008329809,0.00222683,0.141946822
19.45,0.078275919,-0.000206947,0.207423791
19.46,0.078740299,0.002185822,0.400338322
19.47,-0.028679132,0.030880928,0.470356286
19.48,-0.028080285,0.030867577,0.46872884
19.49,-0.11637181,0.004654884,0.069205195
19.5,-0.148971915,-0.019106865,0.05347088
19.51,-0.112329185,-0.002182007,-0.045742571
19.52,-0.191343486,0.048259735,-0.015300751
19.53,-0.138565421,0.077112198,0.030817598
19.54,-0.202976108,0.108327866,0.116653696
19.55,-0.168025076,0.106056213,0.102987707
19.56,-0.166040599,0.106249809,0.10428375
19.57,-0.213678658,0.049058914,0.068345606
19.58,-0.155403376,-0.015299797,0.19892852
19.59,-0.099992573,-0.103675842,0.228008315
19.6,-0.15977031,-0.091535568,0.182266042
19.61,-0.145136416,-0.091356277,0.107940644
19.62,-0.142962575,-0.091190338,0.10790807
19.63,-0.055360615,-0.067138672,-0.011470288
19.64,-0.023297429,-0.028763771,0.084007412
19.65,0.12059319,0.016705513,0.209831953
19.66,0.120092213,0.016635895,0.208777636
19.67,-0.047450602,0.050127029,0.313402087
19.68,-0.106959701,0.052534103,0.258327037
19.69,-0.178304553,0.050232887,0.192254439
19.7,-0.086902738,0.026367188,0.042771518
19.71,-0.016089499,0.050294876,0.070994049
19.72,-0.018758178,0.050152779,0.071942747
19.73,-0.117117107,-0.009895325,0.110459805
19.74,-0.305253208,0.037940025,-0.012885571
19.75,-0.366782129,0.05003643,-0.063326001
19.76,-0.102194428,0.01192379,0.126006469
19.77,-0.025808752,0.004787445,0.383943051
19.78,-0.027185619,0.004671097,0.383463025
19.79,0.213331223,-0.093687058,0.706847131
19.8,0.231385052,-0.081914902,0.380103558
19.81,-0.154808939,-0.084433556,-0.529034138
19.82,-0.247556746,-0.048256874,-0.798685372
19.83,-0.17064029,0.040248871,-0.092759341
19.84,0.009111345,0.027807236,0.444581151
19.85,0.012283266,0.053437233,0.634343743
19.86,0.006424904,0.05275631,0.627170146
19.87,-0.010184348,0.047444344,0.293859899
19.88,-0.108330846,0.047310829,0.028947204
19.89,-0.185696662,0.047383308,0.07279548
19.9,-0.015557408,0.047507286,0.188593432
19.91,-0.015981138,0.047576904,0.19155477
19.92,0.060201347,0.038085938,0.314301014
19.93,0.019257843,0.031019211,0.028149694
19.94,-0.006897628,0.019318581,-0.13024354
19.95,-0.068462849,-0.013840675,0.014117509
19.96,-0.046127915,-0.035059929,0.301073551
19.97,-0.045972705,-0.034834862,0.306406736
19.98,0.003210783,-0.032276154,0.080079645
19.99,-0.123732269,0.013406754,0.111512095
20,-0.147392392,-0.003192902,0.0573259
20.01,-0.147069156,-0.003053665,0.06009841
20.02,-0.218105972,-0.060355186,0.105606049
20.03,-0.18338722,-0.09373188,0.217185915
20.04,-0.18210274,-0.093624115,0.217626631
20.05,-0.061480939,-0.088733673,0.280464053
20.06,-0.009494126,-0.088599205,0.24256891
20.07,-0.007985771,-0.088461876,0.243566245
20.08,-0.028202951,-0.042801857,0.113224804
20.09,0.003962755,-0.03791523,0.080566555
20.1,-0.043447554,0.002876282,0.117623866
20.11,-0.043040097,0.002934456,0.118175805
20.12,0.012013555,0.036455154,0.237864822
20.13,-0.038558722,0.050801277,0.329125196
20.14,0.004732907,0.050843239,0.279700458
20.15,-0.105479479,0.0365448,0.192722634
20.16,-0.105151892,0.036679268,0.195079729
20.17,-0.061989427,-0.044586182,-0.041263103
20.18,-0.062410295,-0.044453621,-0.037552118
20.19,-0.024849534,-0.140164375,0.051326633
20.2,-0.025902808,-0.140149117,0.053274542
20.21,-0.201186359,0.034725189,-0.152299255
20.22,-0.194483161,0.051498413,0.296676815
20.23,0.10838294,0.034602165,0.644943118
20.24,0.019526601,-0.04948616,0.276450217
20.25,0.03171432,-0.207663536,0.255071402
20.26,0.030285716,-0.20775032,0.255315274
20.27,-0.240255356,-0.078558922,0.066150278
20.28,-0.238966465,-0.078372955,0.068253666
20.29,-0.10014379,0.051161766,-0.187385172
20.3,-0.015775144,0.05829525,0.322037935
20.31,-0.019000232,0.057992935,0.320201516
20.32,0.056372225,-0.038167,0.391255945
20.33,-0.023490131,-0.107959747,0.16346395
20.34,-0.092027664,-0.108057022,-0.044724554
20.35,-0.214501262,-0.069727898,-0.041117996
20.36,-0.24219209,-0.057641983,0.168155819
20.37,-0.161735296,0.002307892,0.388416976
20.38,-0.021983802,0.040645599,0.492509395
20.39,0.095332444,0.045387268,0.388619036
20.4,0.080438375,0.052657127,-0.015529215
20.41,0.00544256,0.040891647,-0.009833336
20.42,0.005171359,0.041113853,-0.004426509
20.43,-0.083682537,-0.035360336,0.185648888
20.44,-0.025241613,-0.097561836,0.011911035
20.45,-0.037062109,-0.035320282,0.06010741
20.46,-0.039508939,-0.035429001,0.061483234
20.47,-0.159626484,0.050649643,0.069978148
20.48,-0.162101626,0.050507545,0.070739031
20.49,-0.200818837,-0.004747391,0.180702835
20.5,-0.204826176,-0.040805817,0.189787895
20.51,-0.172587276,-0.076838493,0.167491078
20.52,-0.082540095,-0.074569702,0.053935051
20.53,-0.026349664,-0.045941353,0.031481028
20.54,0.000730634,0.020911217,0.14989391
20.55,-0.001277745,0.054195404,0.260146797
20.56,-0.127395392,0.137764931,0.377375424
20.57,-0.110741556,0.108947754,0.353881538
20.58,-0.029620886,0.049022675,0.142165065
20.59,-0.030442119,0.049012184,0.143147796
20.6,-0.005059063,-0.001221657,-0.031714708
20.61,0.045967817,0.005919456,0.201891303
20.62,0.127583683,0.027294159,0.330982238
20.63,0.124790847,0.027094841,0.330199271
20.64,-0.016394794,0.043685913,0.286921144
20.65,-0.049598038,-0.011483192,0.09610644
20.66,-0.051546514,-0.011525154,0.097913057
20.67,-0.134637594,-0.131242752,-0.036369681
20.68,-0.11424768,-0.023471832,-0.120252967
20.69,-0.116294384,-0.0235672,-0.11940074
20.7,0.265793324,-0.059735298,0.746346653
20.71,0.050719678,-0.036133766,0.117557734
20.72,0.048074126,-0.036192894,0.120177418
20.73,0.03492403,-0.0049963,0.345658422
20.74,0.034524262,-0.00508213,0.344431788
20.75,-0.030151844,0.028470993,0.211242199
20.76,-0.02573067,-0.052788734,-0.192320079
20.77,-0.1044994,0.004606247,0.129772693
20.78,-0.214972079,0.044995308,0.46226877
20.79,-0.181934357,0.046935081,0.640682459
20.8,-0.215406179,0.063306808,0.537210345
20.81,-0.036364257,0.046331406,0.17195946
20.82,-0.005730629,0.04634285,-0.097735763
20.83,-0.013020694,0.005776405,0.101695776
20.84,0.029951453,-0.032424927,0.237967834
20.85,0.041992128,-0.096991539,0.232550144
20.86,-0.043859243,-0.053757668,0.055182129
20.87,-0.045164526,-0.043964386,-0.041851282
20.88,-0.015370607,-0.053274155,0.081983626
20.89,-0.059800327,-0.05065155,0.154720455
20.9,-0.039819062,0.028528214,0.221822918
20.91,0.001420557,0.040645599,0.288876593
20.92,0.02083075,8.2016E-05,0.092502266
20.93,-0.091313839,-0.014094353,-0.009655654
20.94,-0.128616214,-0.08812809,-0.064487427
20.95,-0.117727161,-0.140611649,-0.117338508
20.96,-0.174235225,-0.126084328,0.052209347
20.97,-0.173231006,-0.126058579,0.051498711
20.98,-0.156257808,-0.097427368,0.23369965
20.99,-0.081805229,-0.080807686,0.271384746
21,-0.061875105,-0.001889229,0.256334543
21.01,-0.170954287,0.019619942,0.170563191
21.02,-0.152361095,0.005283356,0.046600044
21.03,-0.150475979,0.005337715,0.04514429
21.04,-0.127447784,0.007738113,-0.088090241
21.05,-0.092124641,0.041262627,0.170559198
21.06,-0.107070208,0.048442841,0.27557838
21.07,-0.171766043,0.050869942,0.395471633
21.08,-0.196896076,0.048645973,0.417993724
21.09,-0.133088708,-0.018195152,0.213475436
21.1,-0.095992804,-0.056238174,-0.058861196
21.11,-0.092955887,-0.055953979,-0.057276845
21.12,-0.128515303,-0.05332756,-0.115875274
21.13,-0.181187034,0.049765587,0.094553947
21.14,-0.221803606,0.109745026,0.062465221
21.15,-0.208484113,0.17943573,0.10097599
21.16,-0.081900358,0.100780487,0.417883754
21.17,0.003504872,0.024420738,0.640570045
21.18,0.063909888,-0.095112801,0.266472369
21.19,-0.079514563,-0.14512825,0.079088718
21.2,-0.121582568,-0.156803131,0.346039951
21.21,-0.036360562,-0.072845459,0.312897921
21.22,-0.121857226,-0.103812218,-0.102571666
21.23,-0.037591815,-0.086759567,-0.086224079
21.24,-0.074561656,-0.031540871,0.080316097
21.25,-0.208508074,0.021059036,0.135794967
21.26,-0.204951048,0.061429977,0.039848447
21.27,-0.177983582,0.08262825,0.099955797
21.28,-0.179591894,0.082317352,0.095429271
21.29,-0.122862577,0.110795975,0.280425102
21.3,0.079691589,0.067526817,0.268389344
21.31,0.038899481,0.046038628,0.303501606
21.32,0.101831555,-0.097478867,0.403492183
21.33,0.22663343,-0.185988426,0.404543877
21.34,0.226069689,-0.185976982,0.405714691
21.35,-0.090657294,-0.109300613,0.104009956
21.36,-0.090071023,-0.044496536,-0.084929764
21.37,0.002761483,-0.039598465,-0.160937488
21.38,0.000953555,-0.039662361,-0.159552634
21.39,0.019989192,0.055859566,0.353580654
21.4,0.074504912,0.057847977,0.409077138
21.41,0.071273088,0.057415962,0.404587567
21.42,-0.079218924,0.054745674,0.25543052
21.43,-0.130293965,0.049815178,0.299264491
21.44,-0.129966915,0.049752235,0.29734546
21.45,-0.162033081,0.023450851,0.32940051
21.46,-0.247633696,-0.017072678,0.250206649
21.47,-0.164995432,-0.040734291,0.119204104
21.48,-0.044080019,-0.045188904,0.144573391
21.49,-0.081936896,-0.006621361,0.138810635
21.5,-0.093327343,-0.001562119,0.133171827
21.51,-0.10472858,0.049014091,0.039332688
21.52,-0.156766772,0.068506241,-0.041962832
21.53,-0.124857366,0.076049805,0.123889118
21.54,-0.121488512,0.076365471,0.125669152
21.55,0.020093918,0.052721024,0.182833403
21.56,0.103989363,0.03619957,0.342390776
21.57,0.007795691,0.043563843,0.330936283
21.58,0.009796798,-0.032896996,0.285834491
21.59,0.010901809,-0.130977631,0.192684561
21.6,0.011142075,-0.130947113,0.192954898
21.61,-0.26124239,-0.224228859,-0.007130742
21.62,-0.371877968,-0.12347126,0.020371258
21.63,-0.263538301,-0.037014961,0.035896003
21.64,-0.261100829,-0.036781311,0.037247986
21.65,-0.203430831,0.092790604,0.106072813
21.66,-0.186877012,0.054701805,0.418362856
21.67,0.004957736,-0.050457001,0.456400037
21.68,0.007270694,-0.05032444,0.455684423
21.69,-0.02368921,-0.002282143,-0.085892379
21.7,-0.038033605,0.002821922,-0.056789249
21.71,0.046341777,0.041276932,0.321216345
21.72,0.052863777,0.053162575,0.476084769
21.73,0.051094413,0.052895546,0.473148704
21.74,0.070332289,0.019044876,0.395821333
21.75,0.06880641,0.018827438,0.393614471
21.76,-0.253038883,-0.062455177,-0.02986306
21.77,-0.236385465,-0.045357704,-0.292364061
21.78,-0.265113294,-0.049723625,-0.227003753
21.79,-0.183376551,-0.044494629,0.0961878
21.8,0.055777848,-0.037010193,0.352648288
21.81,0.106419742,-0.063206673,0.223269403
21.82,0.084682167,-0.005522728,0.151281864
21.83,0.000555515,-0.022082329,0.187235266
21.84,-0.062054276,0.006850243,0.136599392
21.85,-0.138984919,0.04776001,0.066604167
21.86,-0.24681288,0.024011612,0.060898632
21.87,-0.155771732,0.002597809,0.030285031
21.88,-0.270927608,-0.009213448,0.085970372
21.89,-0.286789894,0.002916336,0.147639275
21.9,-0.285309315,-0.011279106,0.158162832
21.91,-0.309946835,-0.011117935,0.194605053
21.92,-0.190248072,-0.025318146,0.328630984
21.93,-0.188747644,-0.025218964,0.328338563
21.94,0.011324763,-0.025157928,0.275022864
21.95,0.011963367,-0.02507782,0.27566731
21.96,0.060219228,-0.010578156,-0.045711696
21.97,0.048289895,-0.000883102,-0.112881184
21.98,0.174940348,0.013537407,0.084947914
21.99,0.08038646,0.020607948,0.29508239
22,0.038777411,0.058736801,0.494066596
22.01,0.040121973,0.039317131,0.466798812
22.02,0.012363076,-0.054261208,0.22057572
22.03,0.01107657,-0.05435276,0.220765203
22.04,0.030665696,-0.11187458,0.025826305
22.05,-0.065568149,-0.126495361,0.008719742
22.06,0.05699271,-0.067032814,0.102904648
22.07,0.078927398,-0.06512928,0.248066723
22.08,-0.202738822,0.006203651,0.208408177
22.09,-0.320351005,0.013041496,-0.031650126
22.1,-0.321852028,0.036801338,-0.056747019
22.11,-0.136747003,-0.056754112,0.066661328
22.12,0.008475542,-0.138525009,0.25325501
22.13,0.083103001,-0.134253502,0.639438152
22.14,0.145954311,-0.16368103,0.703541398
22.15,0.130586863,-0.047042847,0.416965336
22.16,-0.023809671,0.050772667,-0.079672068
22.17,-0.019405663,0.036296844,-0.220008671
22.18,0.021841228,0.057712555,0.232304871
22.19,0.030845881,0.112411499,0.64798069
22.2,-0.041952312,0.052005768,0.655812323
22.21,-0.063856125,-0.003567696,0.337958574
22.22,-0.180141807,-0.07802105,0.200966954
22.23,-0.132040858,-0.12120533,0.145997435
22.24,0.036049902,-0.166717529,-0.008328259
22.25,0.163034737,-0.11400795,0.035429239
22.26,0.13623476,-0.094894409,0.370385468
22.27,0.246316761,-0.078275681,0.601978004
22.28,0.252502114,-0.11208725,0.496674687
22.29,-0.066604257,-0.074006081,0.331898809
22.3,-0.204491913,-0.071686745,0.173271656
22.31,-0.119359911,-0.114790916,0.034366816
22.32,-0.052925229,-0.0095644,-0.161388069
22.33,-0.054385364,-0.009708405,-0.162116885
22.34,-0.02274853,0.169656754,0.183131218
22.35,-0.060057044,0.178995132,0.352584034
22.36,-0.213738084,0.09026432,0.366830528
22.37,-0.161908984,0.044848442,0.117037743
22.38,-0.112395346,-0.091462135,0.007917643
22.39,-0.147237122,-0.146389961,0.167391509
22.4,-0.146341384,-0.146350861,0.16675964
22.41,0.136002719,-0.120099068,0.327764571
22.42,0.117817223,-0.129878044,0.306503981
22.43,0.049773574,-0.127633095,0.302338004
22.44,0.049227893,-0.127739906,0.300696313
22.45,-0.018221796,-0.156509399,0.082342029
22.46,-0.018990457,-0.156551361,0.082939565
22.47,-0.048751652,-0.115895271,0.068931997
22.48,-0.095074713,-0.051362038,0.084368289
22.49,-0.096254885,-0.051548004,0.082196355
22.5,0.13609159,0.048751831,0.175355256
22.51,0.057153106,0.091561317,0.356769443
22.52,-0.049981356,0.182281494,0.455995321
22.53,0.030947924,0.150963783,0.368539304
22.54,-0.007879794,0.059915543,0.190816671
22.55,-0.168076456,-0.01184082,0.041426867
22.56,-0.243023515,-0.061910629,-0.15021956
22.57,-0.26458174,-0.075987816,-0.176070958
22.58,-0.176314533,-0.125995636,-0.218631089
22.59,0.022718608,-0.113988876,0.112301916
22.6,0.021571517,-0.114172936,0.109646142
22.61,0.095149875,-0.114467621,1.058807731
22.62,0.096134782,-0.114804268,1.048837423
22.63,-0.161834717,-0.014381409,-0.223825336
22.64,-0.282870472,0.017008781,-0.914874196
22.65,-0.28139925,0.048395157,-0.556689918
22.66,-0.102545559,0.127288818,0.26969862
22.67,-0.047966659,0.167528153,0.579147279
22.68,-0.038869083,0.092853546,0.495721698
22.69,-0.073904932,0.008756638,0.110327631
22.7,-0.260662735,-0.075078964,-0.000989527
22.71,-0.15749681,-0.120373726,0.016554892
22.72,-0.061682343,-0.122545242,-0.066220701
22.73,-0.074057102,-0.119967461,-0.021700919
22.74,-0.05068171,-0.059942245,0.18030265
22.75,0.010725021,0.014367104,0.342931986
22.76,-0.096002638,0.047929764,0.344531745
22.77,-0.094774008,0.048072815,0.345869154
22.78,-0.124572396,0.048291206,0.21499753
22.79,-0.011594594,-0.001810074,-0.035043836
22.8,-0.011478603,-0.001651764,-0.030968696
22.81,-0.059579432,-0.011104584,-0.164113671
22.82,-0.103522539,0.017585754,-0.156189233
22.83,-0.322098196,0.055825233,0.242899463
22.84,-0.321287453,0.055815697,0.241471842
22.85,-0.326623499,0.048749924,0.310335904
22.86,-0.268627703,0.00349617,0.201094464
22.87,-0.231299341,-0.099066734,0.050808758
22.88,-0.227136374,-0.098618507,0.054817647
22.89,-0.204381824,-0.158074379,-0.030355394
22.9,-0.106061161,-0.114719391,0.010155112
22.91,-0.104384124,-0.114562988,0.010673851
22.92,-0.036600709,0.050667763,0.230193272
22.93,-0.041168511,0.055408478,0.338804036
22.94,-0.041425467,0.055330276,0.337473571
22.95,-0.118342996,0.050538063,0.031327814
22.96,-0.118508101,0.050569534,0.032368779
22.97,-0.101434588,-0.035583496,0.085494429
22.98,-0.102276444,-0.00447464,0.141831756
22.99,-0.014393091,0.050613403,0.104879379
23,-0.094730556,0.007492065,0.118823141
23.01,-0.06923455,0.036211014,0.160933405
23.02,-0.12751472,-0.03802681,0.092180312
23.03,-0.233186662,-0.121813774,-0.067133069
23.04,-0.232477486,-0.121707916,-0.065712035
23.05,-0.367002666,-0.011347771,-0.248211503
23.06,-0.092678308,0.022315979,0.356417567
23.07,0.184418261,-0.016064644,0.525384069
23.08,0.062009156,-0.0666008,0.353962421
23.09,0.060219467,-0.066729546,0.354154795
23.1,0.007543802,-0.109811783,0.354568362
23.11,-0.080246449,-0.035551071,-0.174949527
23.12,-0.079487026,-0.035377502,-0.172106683
23.13,-0.180616498,0.007835388,-0.580518484
23.14,-0.085217476,0.05068779,-0.042724013
23.15,-0.119821966,0.05026722,0.35566324
23.16,-0.123522461,0.049886703,0.352733314
23.17,-0.172018409,-0.089268684,0.135461569
23.18,-0.224057853,-0.134951592,-0.012478083
23.19,-0.167371213,-0.111089706,-0.06326896
23.2,-0.079288065,-0.12786293,0.040239334
23.21,-0.027718604,-0.111169815,0.119291872
23.22,0.064204514,-0.029870987,0.14806363
23.23,0.052430809,0.010663033,0.193304464
23.24,-0.088788211,0.048797607,0.161593273
23.25,-0.042389333,0.048682213,0.118318409
23.26,-0.044301271,0.048581123,0.119249404
23.27,-0.05333358,0.0484972,0.242519021
23.28,0.040233791,-0.004271507,-0.016936392
23.29,-0.012237966,-0.078542709,-0.172953546
23.3,-0.014558375,-0.078655243,-0.171696752
23.31,-0.174530447,-0.045304298,-0.03582871
23.32,-0.281181157,-0.069422722,0.167660832
23.33,-0.281861544,-0.069618225,0.164143473
23.34,-0.201425016,-0.055449486,0.239876375
23.35,-0.157185435,-0.156205177,0.07921043
23.36,-0.07056272,-0.084592819,-0.064273298
23.37,-0.073350549,-0.084895134,-0.067000479
23.38,-0.052176118,-0.113990784,-0.033319265
23.39,-0.043011785,-0.037813187,0.180625662
23.4,-0.064663172,-0.00948143,0.114584416
23.41,-0.133923948,0.028502464,-0.019518882
23.42,-0.136016965,0.028172493,-0.024780035
23.43,-0.119543612,0.061303139,0.12486586
23.44,-0.122912943,0.06084156,0.118517816
23.45,-0.033029497,0.065199852,0.249130011
23.46,-0.107285857,0.033736229,0.236957014
23.47,-0.126027048,-0.007259369,0.189127028
23.48,-0.127597332,-0.007475853,0.185290426
23.49,-0.012321234,-0.091488838,0.080182299
23.5,-0.024421573,-0.096545219,0.14613618
23.51,-0.029282331,-0.125590324,0.198681548
23.52,-0.11830622,-0.135534287,0.176412925
23.53,-0.228583992,-0.073642731,-0.028442979
23.54,-0.228026152,-0.078701019,0.016730845
23.55,-0.02906698,-0.100542069,0.246156871
23.56,0.182133764,-0.172836304,0.325964481
23.57,0.177064091,-0.1733284,0.319849223
23.58,-0.237903357,-0.120977402,0.228900671
23.59,-0.064892709,-0.032681465,0.457217991
23.6,-0.112053931,-0.042575836,0.13576062
23.61,-0.230096161,-0.069051743,-0.478088647
23.62,-0.219237804,-0.06916523,-0.331418842
23.63,-0.219232917,-0.01915741,0.139750913
23.64,-0.146217406,-0.007626534,0.20770146
23.65,-0.062046468,-0.003323555,0.186971903
23.66,-0.044729114,-0.044466972,0.081048921
23.67,-0.136765122,-0.051990509,-0.128569469
23.68,-0.139231384,-0.052242279,-0.133434594
23.69,-0.208674669,-0.014170647,-0.008695647
23.7,-0.210689187,-0.014403343,-0.013953209
23.71,-0.229360759,-0.005045891,0.153207868
23.72,0.012297094,-0.055547714,0.099544816
23.73,-0.0166834,-0.036581039,-0.105446577
23.74,-0.02186209,-0.036738396,-0.126724854
23.75,-0.001006484,-0.091972351,-0.080785096
23.76,-0.018782794,-0.123280525,-0.133187637
23.77,-0.007933378,-0.16897583,-0.171727493
23.78,-0.011884868,-0.16921711,-0.172764286
23.79,-0.059044123,-0.17191124,-0.176047832
23.8,-0.258918703,-0.074028015,0.127796352
23.81,-0.341289043,-0.081488609,0.036697596
23.82,-0.343964994,-0.081716537,0.032933056
23.83,-0.271827161,-0.266223908,-0.364567816
23.84,-0.264195204,-0.292715073,-0.357162893
23.85,-0.205627322,-0.290447235,-0.235620201
23.86,-0.206767023,-0.290563583,-0.239967004
23.87,-0.14566648,-0.171018601,0.10857027
23.88,-0.147122979,-0.171212196,0.101599626
23.89,-0.100780189,-0.128307343,0.097262613
23.9,-0.166213393,-0.142798424,0.069485337
23.91,0.004548848,-0.176480293,-0.287590802
23.92,0.001087725,-0.176732063,-0.292192519
23.93,-0.217726886,-0.038109779,-0.03665866
23.94,-0.172978997,-0.06231308,0.060869187
23.95,-0.177460372,-0.062637329,0.053776816
23.96,-0.208186746,-0.053331375,-0.333832383
23.97,-0.250119567,-0.075108528,-0.318270057
23.98,-0.214448273,-0.113589287,-0.388327271
23.99,-0.221101403,-0.18073082,-0.606823206
24,-0.329091609,-0.180708885,-0.59950453
24.01,-0.473204374,-0.144662857,-0.452444434
24.02,-0.478610337,-0.084546089,-0.58003521
24.03,-0.326641858,-0.009929657,-0.55136472
24.04,-0.234280407,0.031211853,-0.247792855
24.05,-0.30323112,0.053129196,0.020679429
24.06,-0.297348499,0.053543091,0.027910843
24.07,-0.154830873,0.207270622,-0.621827364
24.08,-0.3970173,0.456832886,-0.258790195
24.09,-0.34756583,0.632224083,-0.181538642
24.1,-0.403089762,0.630482674,-0.624093592
24.11,-0.44536072,0.683986664,-0.822057843
24.12,-0.468104065,0.81176281,-0.646838903
24.13,-0.496599019,0.941781998,-0.362005532
24.14,-0.44072336,1.15776062,0.059725061
24.15,-0.334564626,1.196235657,0.155031353
24.16,-0.367245615,1.268014908,0.005906448
24.17,-0.562004149,1.229649544,-0.131764844
24.18,-0.578167617,0.99024868,-0.467068255
24.19,-0.586344361,0.73658371,-0.601791501
24.2,-0.485334337,0.494997025,-0.46467188
24.21,-0.235803604,0.267785072,-0.349272668
24.22,-0.117356479,0.205687523,-0.471523464
24.23,-0.005238354,0.059753418,-0.617175758
24.24,0.014244497,-0.113053322,-0.655101538
24.25,-0.035668314,-0.441326141,-0.592768788
24.26,-0.131338358,-0.843610764,-0.621551454
24.27,-0.136511922,-0.843477249,-0.668592036
24.28,-0.201859832,-1.786458969,-0.545408011
24.29,-0.029952645,-2.339000702,-0.805598974
24.3,-0.196717322,-2.884142876,-0.947547555
24.31,-0.30062598,-3.381109715,-1.039400101
24.32,-0.217474997,-4.023841381,-1.089599252
24.33,-0.233898878,-4.450888634,-1.010049224
24.34,-0.112751067,-4.839344501,-0.838698924
24.35,-0.110763729,-4.837202549,-0.884217143
24.36,0.650482476,-5.09579134,-0.471386433
24.37,0.644380689,-5.092794895,-0.532646835
24.38,0.644840658,-5.000206947,0.602797508
24.39,0.632735848,-4.800991058,1.146725893
24.4,1.122447371,-4.566976547,1.263955832
24.41,1.60390377,-4.104802132,0.935487688
24.42,1.642331123,-3.263578892,0.586363792
24.43,1.480562449,-2.361179829,0.224545956
24.44,1.433039069,-2.350289822,0.116130233
24.45,0.648361564,-0.16341877,-0.445704997
24.46,0.58869648,-0.147791863,-0.568200052
24.47,-0.305019051,0.411597252,-0.851130366
24.48,-0.910375476,0.054491997,-0.616683245
24.49,-1.369380832,-0.747779846,-0.505539656
24.5,-1.33438623,-1.428750992,-0.639847517
24.51,-1.384942412,-1.403635979,-0.758602142
24.52,0.077682093,-2.168789387,-1.974299312
24.53,0.031208798,-2.147637844,-2.062921047
24.54,1.311198473,-2.035660267,-2.249136925
24.55,3.252341747,0.064035416,-2.092161894
24.56,2.81888485,2.035447121,-2.07508564
24.57,1.641949296,4.464782715,-1.744570732
24.58,-0.729774058,6.890179634,-1.452556729
24.59,-1.431465387,8.20354557,-1.854028463
24.6,-1.591837645,8.601388931,-1.734147191
24.61,-0.910190821,8.03278923,-1.123255134
24.62,-0.223719716,6.825935364,-1.128091216
24.63,0.106399953,5.485860825,-1.625422835
24.64,0.037947178,5.515713692,-1.701418996
24.65,0.199177206,4.257587433,-2.303183079
24.66,0.242206633,3.282625198,-2.018184185
24.67,-0.283749521,2.828495026,-0.534116983
24.68,-0.344720125,2.868948936,-0.627253056
24.69,-0.133201361,2.765586853,0.020415545
24.7,-0.148604274,2.229265213,0.680551052
24.71,-1.138151646,2.043032646,2.671990156
24.72,-1.97496438,1.941474915,2.151075125
24.73,-1.992743731,1.982330322,2.061936378
24.74,-2.449267864,0.265098572,0.108398199
24.75,-2.771513939,-0.835692406,0.358382225
24.76,-2.407545328,-1.73772049,0.864483357
24.77,-2.365657568,-1.718607903,0.811945438
24.78,-1.731327772,-3.627981186,0.268604279
24.79,-1.655020714,-3.619903564,0.233172417
24.8,-2.024656534,-5.259908199,2.229454041
24.81,-0.829113782,-5.194813728,2.122742653
24.82,-0.373209953,-4.383595943,2.302230835
24.83,-0.152089804,-2.923298836,2.238604069
24.84,0.350927174,-0.701659203,2.111777306
24.85,0.390180886,-0.682847977,2.069637299
24.86,-0.540791631,5.004179001,2.44775629
24.87,-0.479305774,5.016169548,2.418169498
24.88,-2.534421921,7.566761017,3.609368324
24.89,-5.759734154,9.809109688,6.506556034
24.9,-4.965539455,10.05818081,6.221765518
24.91,-2.857074976,9.495680809,4.51266098
24.92,-2.050361633,10.28686237,1.82242918
24.93,-2.092694759,11.24712944,-0.30818224
24.94,-1.429563522,11.37766647,-0.643964052
24.95,-0.94092238,11.14488697,0.206140518
24.96,-0.742070556,10.38996696,1.584162712
24.97,-0.740765333,10.391119,1.58202219
24.98,-0.630167723,8.743041039,2.296233654
24.99,1.307963133,3.34551239,2.125283241
25,2.698681116,0.512759209,1.986881256
25.01,2.604856253,0.492349625,2.024449348
25.02,2.90115118,-3.553005219,1.114439964
25.03,2.191334248,-5.035215378,0.795808315
25.04,2.130175352,-5.064422607,0.858095646
25.05,-0.119029842,-9.772115707,-1.498678207
25.06,-0.588834643,-11.36355972,-4.154239178
25.07,-1.141543269,-12.31735516,-7.014280319
25.08,-0.988018632,-12.51820374,-8.31284523
25.09,-1.042751789,-12.52578354,-8.291482925
25.1,0.189216882,-11.76525116,-4.251970768
25.11,0.099541008,-11.73071671,-4.31812191
25.12,-0.161319941,-10.8624649,0.048843861
25.13,0.195060968,-11.07962418,-0.372212648
25.14,0.921904147,-11.07962132,-2.890010357
25.15,1.511811972,-10.78975964,-5.210623741
25.16,1.791773081,-9.930181503,-5.648562908
25.17,1.437422514,-7.218426228,-4.348194599
25.18,3.421500206,-2.933891296,-2.199395657
25.19,5.813626766,0.135210037,-0.956457377
25.2,7.931599617,3.437273979,-0.313630104
25.21,8.55570507,5.856503487,0.970715523
25.22,7.929169655,7.671405792,2.878894329
25.23,3.894683361,10.01989269,6.714537144
25.24,3.835112095,10.04588032,6.678335667
25.25,-0.190415502,12.72188187,8.950782776
25.26,-3.695135117,14.92436028,3.759595394
25.27,-3.857446909,13.59553909,1.518149853
25.28,-3.800548553,13.58593082,1.522088051
25.29,-1.891249418,9.575191498,-0.697385788
25.3,-1.189879417,8.476567268,-1.849842787
25.31,1.302742004,6.856931686,-2.917765141
25.32,1.374601841,6.872214317,-2.965221882
25.33,-0.694147289,2.743819237,5.055038929
25.34,-1.256056666,1.44919014,11.55555725
25.35,3.932318449,-1.3335495,12.20023155
25.36,3.9138906,-1.327971458,12.19249916
25.37,5.172443867,-4.697655201,10.69369602
25.38,-3.065329552,-8.010169029,-0.243097305
25.39,-5.757308006,-8.801983833,-6.56056881
25.4,-5.762068748,-8.838813782,-6.482993126
25.41,-5.450046539,-9.866383553,-9.649531364
25.42,-5.442705154,-10.89484596,-5.433917999
25.43,-6.289940357,-11.96393394,-1.820280313
25.44,-6.731741428,-12.7146492,1.426800251
25.45,-6.379354477,-12.76926422,2.457838535
25.46,-4.807749748,-12.16094589,0.799265385
25.47,-4.048410416,-10.44828701,-1.426133871
25.48,-2.910346746,-6.772994995,-2.348133802
25.49,-1.028151274,-2.131475925,-1.274296045
25.5,0.405793011,2.216087341,1.756416798
25.51,0.387878656,2.243909836,1.7038064
25.52,3.810534,9.127983093,7.153126717
25.53,3.261790991,11.36870003,10.13658905
25.54,3.277530432,11.41681957,10.04375648
25.55,2.275724411,14.33022022,14.951437
25.56,-1.181535482,15.56148911,11.34394073
25.57,-6.046996593,16.66297531,2.180757523
25.58,-7.479973793,15.80611897,-4.684114456
25.59,-6.487565041,14.05746365,-5.837585449
25.6,-4.516880512,10.79792595,-3.969332695
25.61,-1.458752394,6.69335556,-0.65233779
25.62,0.105690628,3.664938927,1.714963436
25.63,1.58279407,-0.170552254,4.296189308
25.64,2.804450512,-3.267056942,6.331694603
25.65,2.856553793,-5.386311054,6.29740715
25.66,2.88933444,-7.375118256,2.593768597
25.67,2.511693001,-9.05089283,-2.262629032
25.68,1.329961538,-10.35198975,-5.58306694
25.69,1.300307035,-10.40201092,-5.458347321
25.7,-0.036433637,-10.39982414,-6.975430489
25.71,-0.087785065,-10.43059731,-6.887328148
25.72,0.984093547,-10.68420601,-1.448741436
25.73,1.218243599,-11.23152161,0.423781872
25.74,1.234456062,-11.67136765,-0.577115297
25.75,0.622240424,-12.0486021,-3.19762969
25.76,-0.675603271,-11.95754242,-6.457989693
25.77,-1.285632968,-11.17491245,-8.850131989
25.78,-0.523842931,-9.557310104,-9.377225876
25.79,1.617333889,-6.593511105,-7.70241785
25.8,1.601422429,-6.593662739,-7.696658134
25.81,10.90259457,3.957314491,4.611079216
25.82,13.28978539,6.387106895,12.21924305
25.83,11.10921383,7.755870819,15.41103268
25.84,6.713448524,8.49322319,14.40781879
25.85,2.738204002,8.91888237,10.84014797
25.86,2.886228085,8.83829689,10.99496651
25.87,1.572081804,10.8534565,3.45535183
25.88,-6.088301659,14.94261932,-6.217347622
25.89,-6.015001297,15.34324741,-8.611831665
25.9,-5.874547482,15.32603645,-8.584758759
25.91,-1.832996249,11.4742012,-0.954264164
25.92,-0.074454755,7.504360199,3.608145714
25.93,1.258609653,5.183833122,5.178057671
25.94,0.814811349,1.742458344,10.21800327
25.95,0.762390733,1.818238258,10.03329659
25.96,0.555815995,-5.136435509,17.37811661
25.97,-2.338703632,-8.149715424,10.85252857
25.98,-5.133667469,-10.7848587,1.09027338
25.99,-7.449855328,-13.11820221,-8.862463951
26,-8.297036171,-14.2104044,-13.62822914
26.01,-7.034130573,-14.3381834,-10.99204636
26.02,-3.955699682,-14.1254406,-5.157171726
26.03,-1.967756033,-14.01733971,-0.473233938
26.04,-1.247197747,-13.74815559,1.49167037
26.05,-1.78832078,-13.28101444,1.366628647
26.06,-2.294496059,-12.44058704,-1.051185369
26.07,-2.272188187,-12.43741703,-1.060133219
26.08,-2.7715137,-11.46212387,-3.178584099
26.09,-0.68365109,-8.739154816,-5.179327011
26.1,-0.680021167,-8.736990929,-5.185531616
26.11,0.775277436,-7.089295387,-4.563971996
26.12,2.277841806,-1.502235889,-0.158972502
26.13,4.774166584,3.339248657,3.973679543
26.14,4.772049904,3.34453392,3.95852685
26.15,2.352655411,11.34377956,4.611570835
26.16,2.34409523,11.35258579,4.58684063
26.17,-5.369309425,19.54327774,8.134867668
26.18,-5.329172611,19.54662895,8.126906395
26.19,-6.040588379,19.04657364,14.35559273
26.2,-5.922352791,17.99440193,6.097792625
26.21,-7.419170856,16.5092411,-1.496814489
26.22,-5.603741646,12.77879238,-4.587145805
26.23,-2.201701403,8.475776672,-2.101205587
26.24,-2.23564887,8.459126472,-2.050421238
26.25,-0.488283098,5.288842201,0.535499334
26.26,1.593291163,1.203083038,2.745635033
26.27,2.896332264,-3.208956242,5.707920551
26.28,3.087589264,-4.110398769,5.509374619
26.29,3.267412186,-4.947557449,4.032955647
26.3,3.239434242,-4.955606461,4.060137272
26.31,1.237287283,-6.39353323,1.745912552
26.32,-0.595185161,-8.403875351,-0.85784018
26.33,0.886143208,-12.5186367,-6.017943382
26.34,1.38960433,-14.16091251,-5.91781044
26.35,2.221092939,-15.76947021,-4.901445389
26.36,3.299428225,-16.4719162,-4.018381119
26.37,3.968577862,-16.47937202,-2.745287418
26.38,4.058953762,-15.25710678,-1.772922277
26.39,4.001157284,-15.24438,-1.812089443
26.4,0.855646253,-10.56479073,-3.331959963
26.41,-1.985129595,-8.077526093,-5.398964882
26.42,-1.548513174,-5.129724503,-7.214796066
26.43,1.876088738,-1.23486805,-6.343494415
26.44,1.854306459,-1.231157303,-6.353426933
26.45,12.49816132,6.169621468,3.092085123
26.46,9.921039581,8.818650246,4.107016563
26.47,4.928472519,10.84566021,5.842225075
26.48,0.849661946,12.30227566,10.35643768
26.49,-0.379472971,13.02730179,12.56166267
26.5,-0.158397436,13.94501686,7.574512005
26.51,-0.762049317,14.65261269,3.494656563
26.52,-1.586627483,14.98271656,0.685774565
26.53,-1.540024757,14.98479366,0.665668249
26.54,-1.163818598,14.33854198,3.937001944
26.55,-0.603796065,12.47141838,5.260053158
26.56,-2.450722218,9.533781052,6.674760818
26.57,-2.983154774,5.89749527,9.39338398
26.58,-1.325948119,-0.269522667,12.8572197
26.59,0.736936808,-4.889195919,13.00658226
26.6,0.928710759,-8.692444801,7.478618145
26.61,-1.374842048,-10.74865341,-2.366661072
26.62,-4.191346169,-12.1301384,-8.938948631
26.63,-4.124992847,-13.2027235,-9.235100746
26.64,-1.491866589,-13.42747498,-5.692233086
26.65,-0.792984486,-13.2517128,-1.980810642
26.66,-2.968588114,-12.87272263,-0.097891331
26.67,-5.290631771,-12.96515083,0.40157795
26.68,-8.458084106,-13.21813965,-0.413256049
26.69,-8.431501389,-13.22127151,-0.400667071
26.7,-7.687278271,-13.83079147,-2.920195103
26.71,-7.687772751,-13.83465862,-2.903252363
26.72,-3.509423971,-12.07354355,-3.669227123
26.73,-3.524336815,-12.0727272,-3.672397137
26.74,-1.942364097,-8.521018982,-3.14085865
26.75,-1.959771395,-8.515166283,-3.165550232
26.76,-0.649217665,-3.323408127,-2.342318296
26.77,5.534029961,1.795271873,0.83355403
26.78,9.00255394,5.500501633,4.914962769
26.79,6.694121838,12.94995022,6.29901886
26.8,1.743206859,17.86145401,10.70019817
26.81,-4.094747543,20.36938286,19.56901169
26.82,-9.369436264,21.2735157,24.2842617
26.83,-11.93709564,20.61190414,18.14108276
26.84,-11.34638786,18.54178619,2.198237658
26.85,-9.497720718,15.55463028,-7.69433403
26.86,-5.595894337,12.33965397,-6.679092407
26.87,-1.294136524,8.552233696,-1.104795933
26.88,1.726989746,5.305837631,2.464579344
26.89,1.651273489,5.322782516,2.413862944
26.9,3.35392642,2.853837013,4.516484261
26.91,4.486734867,-0.920973778,5.824814796
26.92,3.227342367,-2.215024471,5.338461876
26.93,1.088412523,-3.573363781,3.39058423
26.94,-1.927134395,-5.611140251,-0.737330198
26.95,-2.89427948,-8.318796158,-4.378272057
26.96,-1.636736631,-10.2970047,-5.703129768
26.97,-1.626225233,-10.33290482,-5.571416855
26.98,1.331296563,-13.97981358,-4.6907897
26.99,3.126670361,-15.48581505,-4.317702293
27,4.469833851,-16.92622375,-3.870435238
27.01,4.409443855,-16.91996574,-3.876229763
27.02,2.983261585,-17.21907043,-0.401822448
27.03,1.965677261,-15.37943649,-0.877720714
27.04,0.639638901,-12.54768944,-2.429632425
27.05,-1.256156325,-9.410429001,-4.018039227
27.06,-2.097596884,-6.783478737,-6.502103806
27.07,-1.849722028,-4.633926868,-8.218381882
27.08,-0.85206008,-0.598321915,-6.819119453
27.09,3.715076208,5.575670242,-1.306915164
27.1,3.667685032,5.598216057,-1.374112248
27.11,11.53536701,10.30723095,4.144632339
27.12,6.384665489,11.99890137,5.924509048
27.13,6.267184258,12.03336239,5.863897324
27.14,1.816633224,11.88848591,9.147657394
27.15,4.381100655,11.11704159,8.155538559
27.16,2.766381741,11.71416092,7.610888958
27.17,-1.690437555,12.66375065,6.72211647
27.18,-3.405695677,12.85169315,5.375222206
27.19,-3.681551933,13.52524757,4.098312378
27.2,-4.872991562,13.80525684,5.526949406
27.21,-4.912246227,11.72718239,8.005296707
27.22,-2.961057663,8.511257172,10.59846497
27.23,-2.8890028,8.493467331,10.62424088
27.24,-0.632486463,2.396800995,13.07087421
27.25,1.458297968,-2.972501278,12.04070282
27.26,-3.303997278,-11.17650223,-0.675055027
27.27,-5.405698776,-14.01033974,-6.721059799
27.28,-5.69830513,-16.20990944,-10.18067646
27.29,-5.564062119,-16.2532959,-10.02765465
27.3,-4.432451248,-16.83130264,-8.878561974
27.31,-3.488308668,-16.47156143,-3.742140293
27.32,-3.453271627,-15.90164375,0.535253406
27.33,-3.474804401,-15.8902874,0.48318243
27.34,-4.773343086,-14.80548668,3.36216855
27.35,-5.207993031,-13.09033108,0.464017153
27.36,-5.513933659,-11.29420567,-2.368479013
27.37,-4.660461903,-9.363893509,-2.89633584
27.38,-3.296887398,-7.35016346,-2.573925257
27.39,-3.27962184,-7.341109276,-2.617245913
27.4,-3.275568962,-5.262156963,-2.039403677
27.41,5.312558174,4.011309624,2.544898748
27.42,6.169449329,7.080716133,2.607587814
27.43,2.32499671,12.75391006,1.178529024
27.44,-2.555991173,16.23595428,6.596176147
27.45,-2.546712399,16.29472351,6.393656731
27.46,-6.400570393,16.61455727,23.04831886
27.47,-8.042453766,17.6215992,21.08031273
27.48,-8.633117676,18.61439323,9.409070969
27.49,-8.713074684,17.86315155,-0.149066448
27.5,-8.230135918,14.82575321,-3.718486309
27.51,-5.104554653,10.05100346,-1.592662096
27.52,-2.027386427,6.336392403,0.688040972
27.53,-2.074907541,6.329530716,0.713783026
27.54,1.601296902,-0.044658661,2.723729134
27.55,2.978963614,-2.202561855,5.159367561
27.56,3.954009771,-4.02726984,7.232336044
27.57,4.221241951,-5.628326416,6.419950485
27.58,3.036039352,-7.062101841,3.239421606
27.59,1.693753958,-9.039158821,-1.758800626
27.6,1.099191666,-11.20543575,-6.585419178
27.61,0.721063972,-12.72097683,-9.57608223
27.62,1.209914923,-13.83302879,-9.805197716
27.63,3.023347378,-14.47676086,-7.333366871
27.64,4.472688675,-15.24788475,-3.313857794
27.65,4.395503998,-15.24188042,-3.310310841
27.66,5.768159866,-16.1568222,0.236196995
27.67,4.993630409,-14.76403046,0.160464764
27.68,2.275668383,-12.91085815,-1.717572093
27.69,2.271651983,-12.91419983,-1.702182651
27.7,-5.455159664,-6.80483532,-9.535219193
27.71,-5.399849892,-6.82235527,-9.487323761
27.72,3.302664518,1.481040955,-2.312416792
27.73,6.798658371,5.778259277,4.598405838
27.74,6.652121067,10.68365765,5.246695518
27.75,6.54980278,10.70318794,5.214836121
27.76,2.769391537,18.41290092,8.255414009
27.77,3.480155945,17.38937759,12.58425999
27.78,5.109137058,15.57147312,13.16223335
27.79,1.576556802,14.91801643,8.590945244
27.8,-2.231621265,14.42042542,2.478969574
27.81,-4.856551647,14.22737885,-0.826002717
27.82,-4.794448853,14.20535946,-0.770815492
27.83,-3.565302134,10.16292572,3.559766054
27.84,-3.53346777,10.15133953,3.591820717
27.85,-2.901697397,7.631569862,5.328026772
27.86,-0.536696076,-0.228274345,8.358625412
27.87,-0.491630435,-0.247908592,8.423942566
27.88,0.333169222,-5.206534386,7.722532272
27.89,-4.477118015,-10.54535961,2.75280261
27.9,-4.274520874,-12.67881775,-0.339155197
27.91,-3.131524086,-14.36897564,-2.798695326
27.92,-3.231544256,-14.52652264,-4.364612103
27.93,-3.893578529,-14.08740044,-5.545120239
27.94,-5.196049213,-13.05667973,-5.242711067
27.95,-6.249433994,-12.55283928,-3.495234013
27.96,-6.113524437,-12.8271904,-1.570383072
27.97,-5.167974949,-13.44087791,0.567552686
27.98,-4.593577385,-14.21140289,1.572643638
27.99,-4.614311695,-14.20245743,1.523501635
28,-4.002297401,-14.05055904,0.826484561
28.01,-3.57466197,-11.0725069,-1.958803177
