Time (s),Linear Acceleration x (m/s^2),Linear Acceleration y (m/s^2),Linear Acceleration z (m/s^2)
0,-0.135404378,0.13006115,0.13442117
0.01,-0.05363977,0.027132034,0.076936051
0.02,-0.075751185,-0.035148621,0.055463165
0.03,-0.234177142,-0.035180092,0.133780554
0.04,-0.195368022,-0.018432617,0.193882555
0.05,-0.195110619,-0.018468857,0.191771343
0.06,-0.108727276,-0.006507874,0.166232973
0.07,-0.041467011,-0.004130363,0.171844751
0.08,-0.078993082,0.024598122,0.220707938
0.09,-0.07812351,0.024609566,0.219367638
0.1,0.075673193,-0.020868301,0.161668435
0.11,0.166442066,-0.042406082,0.16964528
0.12,0.151445329,0.0246315,0.238018513
0.13,0.074447393,0.012663841,0.270014644
0.14,0.034156054,-0.087863922,0.108719245
0.15,-0.130017012,-0.013543129,-0.089967892
0.16,-0.252429277,0.027297974,-0.132593676
0.17,-0.167147994,-0.008502007,0.001494929
0.18,0.02883932,-0.099484444,0.153232426
0.19,-0.03328526,-0.070860863,0.628942967
0.2,-0.035119295,-0.071007729,0.626019716
0.21,-0.011878401,-0.097420692,0.347535729
0.22,-0.037028372,-0.073411942,-0.003615528
0.23,-0.034974843,-0.073266983,-0.000123128
0.24,-0.074332267,-0.056361198,-0.297034264
0.25,-0.041297257,0.010708809,0.171606869
0.26,-0.028660029,0.027338982,0.480271697
0.27,-0.031873822,0.027121544,0.475496352
0.28,0.06098029,0.026929855,0.469286263
0.29,-0.047984391,0.026820183,0.463931382
0.3,-0.148463696,-0.02826786,0.223135531
0.31,-0.147434086,-0.028208733,0.223791331
0.32,-0.131588966,-0.023329735,0.125392377
0.33,0.003443956,-0.12141037,0.15410021
0.34,0.004099458,-0.097411156,0.141315624
0.35,0.004230946,-0.097374916,0.142917156
0.36,0.015949249,-0.142864227,0.222671285
0.37,0.010706782,-0.207538605,0.155671671
0.38,0.012396336,-0.152485848,0.117830575
0.39,-0.031998843,-0.071153641,0.134031683
0.4,-0.03314507,-0.071228981,0.132190511
0.41,-0.07516399,0.022063255,0.268491894
0.42,-0.045304567,-0.021152496,0.272466123
0.43,-0.108912915,-0.052381516,0.178685531
0.44,-0.134041369,-0.066837311,0.128520235
0.45,-0.135895371,-0.066959381,0.125881851
0.46,-0.073926598,-0.05753994,0.115944848
0.47,-0.076888591,-0.052909851,0.149142474
0.48,-0.058159828,-0.036320686,0.15068233
0.49,-0.060703874,-0.036478043,0.147449821
0.5,-0.097875685,-0.055713654,0.161516994
0.51,-0.163307011,-0.062970161,0.169056922
0.52,-0.113449812,-0.118061066,0.230171397
0.53,-0.113845766,-0.118081093,0.22933805
0.54,-0.057215571,-0.137268066,0.234667778
0.55,0.027683824,-0.125329018,0.164292082
0.56,-0.00956583,-0.046352386,0.129698038
0.57,-0.157279044,-0.003288269,0.092221521
0.58,-0.308814406,0.114005089,-0.036164105
0.59,-0.215224385,0.097276688,-0.113854751
0.6,-0.051611543,0.025415421,0.0454887
0.61,-0.055297613,0.025271416,0.045290962
0.62,0.135964617,-0.025289536,0.875804305
0.63,0.138812304,-0.030345917,0.76339221
0.64,-0.00991556,0.024543762,0.290330052
0.65,-0.156467587,0.024496078,-0.161600187
0.66,-0.223452151,0.017350197,-0.377459824
0.67,-0.225017756,0.017326355,-0.375377893
0.68,-0.115343869,0.038621902,0.486545146
0.69,-0.084538609,0.026364326,0.742214739
0.7,-0.03091839,-0.009785652,0.59099859
0.71,-0.047647536,-0.103307724,0.241496712
0.72,-0.141897947,-0.117712975,0.068154976
0.73,-0.119869292,-0.124882698,0.066184357
0.74,-0.119750738,-0.124873161,0.066497386
0.75,0.030281186,-0.055441856,0.13431181
0.76,0.029280186,-0.055492401,0.13461265
0.77,-0.076732904,0.040272713,0.20000419
0.78,-0.074344307,0.030740738,0.106495358
0.79,-0.074125916,0.030787468,0.11150796
0.8,-0.102888137,-0.002650261,0.066388093
0.81,-0.134118855,-0.002603531,0.084839195
0.82,-0.050842613,-0.007370949,0.10665223
0.83,-0.040438116,0.002189636,0.101664528
0.84,-0.042265952,0.002145767,0.103402525
0.85,-0.034170628,-0.000276566,0.141008839
0.86,-0.064173907,-0.009871483,0.204845667
0.87,-0.14851141,-0.079313278,0.284907639
0.88,-0.129694104,-0.12001133,0.096483052
0.89,-0.131045252,-0.120038033,0.097735554
0.9,-0.087542027,-0.167995453,0.009234503
0.91,-0.056258738,-0.0747118,0.148544207
0.92,-0.037603289,-0.024568558,0.165003538
0.93,0.021492332,0.035143852,0.174290538
0.94,-0.00314641,0.070934296,0.275772631
0.95,0.031111985,0.054129601,0.230049104
0.96,0.027585506,0.075662613,0.108949497
0.97,-0.044701636,0.109197617,0.092671424
0.98,-0.044812471,0.109253883,0.095979244
0.99,-0.076176316,0.04464817,0.099923939
1,-0.172164708,0.025550842,0.103437126
1.01,-0.138212025,0.04237175,0.016178831
1.02,-0.067075789,0.013695717,-0.029964551
1.03,0.164851859,-0.139564514,0.172093779
1.04,0.219519377,-0.221130371,0.423759759
1.05,0.15328075,-0.235740662,0.588166058
1.06,0.023541212,-0.188089371,0.504699409
1.07,0.073987454,-0.130841255,0.131280392
1.08,0.090819329,-0.016083717,-0.194299728
1.09,0.086415648,-0.01620388,-0.194241062
1.1,-0.116899043,0.191943169,0.389077514
1.11,-0.13383171,0.127111435,0.710376561
1.12,-0.139287323,0.126887322,0.706266582
1.13,-0.057741672,-0.031293869,0.246322125
1.14,-0.054269731,-0.072081566,-0.024225786
1.15,-0.114554912,-0.052973747,0.003938943
1.16,-0.116521567,-0.052995682,0.005180612
1.17,-0.132182732,-0.03867054,0.182514265
1.18,0.12468648,-0.088992119,0.395579457
1.19,0.013520136,-0.04113102,0.285650969
1.2,-0.038794845,-0.062638283,0.093271524
1.21,-0.147415847,-0.03382206,0.097105354
1.22,-0.145544827,-0.033716202,0.101084262
1.23,0.01346238,-0.026456833,0.159186751
1.24,0.041538283,-0.043190002,-0.004939422
1.25,0.009399444,-0.06229496,-0.079646006
1.26,0.036632538,-0.011994362,0.043448463
1.27,0.048931822,0.019109726,0.076157577
1.28,0.015681803,-0.028821945,0.11743477
1.29,-0.078822106,0.021432877,0.169712186
1.3,-0.181932941,0.002254486,0.280789018
1.31,-0.279552043,-0.007347107,0.333627999
1.32,-0.257046104,0.011784554,0.278453916
1.33,-0.213352472,-0.016974449,0.184908688
1.34,-0.176966608,-0.052903175,0.082852229
1.35,-0.112274662,-0.040942192,0.046127245
1.36,-0.047805712,-0.050543785,0.104968816
1.37,0.016532213,-0.031425476,0.22293666
1.38,0.059350774,-0.024284363,0.280639589
1.39,0.042611018,-0.009947777,0.285499573
1.4,0.04300338,-0.009971619,0.283265173
1.41,-0.044839785,0.02113533,0.255137146
1.42,-0.195133507,-0.000418663,0.272854328
1.43,-0.2922647,0.030715942,0.065306261
1.44,-0.290599465,0.030770302,0.066179499
1.45,-0.143814623,0.078718185,-0.101265028
1.46,0.073988244,-0.045773506,0.378756285
1.47,0.124660909,-0.206264496,0.477986455
1.48,-0.07080093,-0.18237114,0.385417998
1.49,-0.251981705,-0.103359222,0.267409593
1.5,-0.177098408,-0.036231995,0.073687509
1.51,-0.173934102,-0.052891731,-0.271829039
1.52,-0.050565511,-0.064781189,-0.191972867
1.53,-0.051905692,-0.064826965,-0.192375779
1.54,0.011894733,0.021204948,0.5568524
1.55,0.007510379,0.020989418,0.549290538
1.56,0.022852495,0.020805359,0.341011107
1.57,-0.103611901,0.008753777,0.074894562
1.58,-0.187910348,0.020692825,0.016397335
1.59,-0.187332735,0.020711899,0.016051389
1.6,-0.212668404,0.015927315,0.072721347
1.61,-0.108948782,0.003964424,0.193422377
1.62,-0.124850243,0.020736694,0.159160778
1.63,-0.084972128,0.020803452,0.098952547
1.64,0.002641305,-0.003068924,0.133754015
1.65,0.003811345,-0.002986908,0.137933567
1.66,0.052623555,-0.091485977,0.127878636
1.67,0.033748567,-0.117760658,0.077317692
1.68,0.009013176,-0.091378212,0.093103871
1.69,-0.030487582,-0.06982708,0.097933739
1.7,-0.141833291,-0.048283577,0.120950699
1.71,-0.142680556,-0.048295975,0.121961162
1.72,-0.198287398,0.011563301,0.13012898
1.73,-0.067407802,-0.084216118,0.100311831
1.74,-0.068710998,-0.089001656,0.101377413
1.75,-0.103366002,-0.026780128,0.130337358
1.76,-0.068267509,-0.03400135,0.127568111
1.77,-0.069347233,-0.034014702,0.100773469
1.78,-0.063837767,-0.002950668,0.150521681
1.79,-0.065401465,-0.014968872,0.218747079
1.8,0.002011597,-0.019830704,0.205275953
1.81,0.033143625,-0.003144264,0.106380463
1.82,-0.007678211,-0.005599976,0.096755221
1.83,-0.033937722,0.020687103,0.117915154
1.84,-0.036486402,0.020622253,0.117119283
1.85,-0.001106456,0.008576393,0.095419914
1.86,-0.134923786,0.07317543,0.094827235
1.87,-0.123804525,0.08752346,0.094644472
1.88,-0.138836488,0.037231445,0.164603263
1.89,-0.089846835,0.020438194,0.459072292
1.9,-0.082376093,-0.096962929,0.416241527
1.91,-0.084103957,-0.097021103,0.414673805
1.92,-0.018012196,-0.144928932,0.320068955
1.93,0.03506662,-0.154529572,0.185123712
1.94,0.035802841,-0.154507637,0.185194194
1.95,-0.099940658,-0.082633972,-0.198577032
1.96,-0.075808913,0.01793766,0.048986591
1.97,-0.111284033,0.041784287,0.250596494
1.98,-0.23312299,0.113473892,0.452648163
1.99,-0.1862306,0.139712334,0.467668533
2,0.007210135,0.041471481,0.263792574
2.01,0.016197577,0.019892693,0.124884352
2.02,-0.048336625,-0.028008461,0.07227242
2.03,-0.020499989,-0.051901817,0.133702621
2.04,0.048189864,-0.150016785,0.137734428
2.05,-0.057960406,-0.090097427,0.074479744
2.06,-0.108786628,-0.03496933,0.155178145
2.07,-0.083525136,0.020134926,0.254194558
2.08,-0.094225064,0.020178795,0.37008673
2.09,-0.093231007,0.020223618,0.371365249
2.1,0.076996595,0.008283615,0.079300195
2.11,0.009622693,-0.04195118,0.082627311
2.12,-0.117269024,-0.046709061,0.094775438
2.13,-0.107126236,-0.077806473,0.114968725
2.14,-0.106212124,-0.077780724,0.115677051
2.15,-0.185606986,-0.063376427,0.132502094
2.16,-0.383027017,0.051634789,0.139424369
2.17,-0.27097249,0.056523323,0.06852822
2.18,-0.257210434,0.104543686,0.049211167
2.19,-0.252497673,0.104696274,0.05158446
2.2,-0.121355742,0.047370911,0.133188546
2.21,-0.043415338,0.021162987,0.140946984
2.22,-0.04064396,0.021287918,0.144397065
2.23,0.19872053,-0.024092674,0.219618917
2.24,0.200189218,-0.023997307,0.223288655
2.25,0.144185528,0.007217407,0.42481643
2.26,0.146477118,0.007303238,0.426735163
2.27,-0.125675976,-0.047644615,0.330711484
2.28,-0.246696144,-0.092989922,0.161389828
2.29,-0.243122965,-0.092820168,0.165479437
2.3,-0.306691349,0.010327339,-0.06543313
2.31,-0.175263375,-0.051754951,0.005082592
2.32,-0.174674243,-0.051660538,0.008942306
2.33,0.089958653,-0.202486992,0.217049182
2.34,0.073919848,-0.147439957,0.180168837
2.35,-0.084217995,-0.049263954,0.231983155
2.36,-0.09763822,0.068173409,0.172862232
2.37,-0.110716939,0.039583206,-8.00639E-05
2.38,0.006753832,0.015764236,0.058305681
2.39,0.006518811,0.015786171,0.058920681
2.4,0.077985913,-0.039447784,0.624495804
2.41,0.064650685,-0.006166458,0.445554346
2.42,-0.085009754,0.017627716,0.188529924
2.43,-0.318736702,0.022356987,0.07791622
2.44,-0.317644715,0.022434235,0.07967785
2.45,-0.389781207,0.039319992,-0.174386084
2.46,-0.265626699,0.022751808,-0.228259161
2.47,0.090043336,-0.082505226,0.098108836
2.48,0.088514149,-0.082553864,0.097899996
2.49,0.043381244,0.022810936,0.577109456
2.5,0.080418944,0.022872925,0.516441941
2.51,0.220175743,-0.027300835,0.18717134
2.52,0.26323694,-0.05591011,0.04493016
2.53,0.159942821,-0.074954987,0.112775147
2.54,0.15991877,-0.074889183,0.11561878
2.55,-0.141322494,-0.026977539,0.403254211
2.56,-0.152727097,-0.094033241,0.284366518
2.57,-0.293274641,-0.125164986,0.168469086
2.58,-0.374426395,-0.041282654,0.091907099
2.59,-0.370111585,-0.041153908,0.093045115
2.6,-0.453561753,0.023686409,-0.197083592
2.61,-0.275756121,0.023892403,-0.202558667
2.62,-0.029957354,0.024039268,0.011824191
2.63,-0.027886182,0.024089813,0.010995343
2.64,0.088285148,0.02405262,0.254598558
2.65,0.276144773,0.019258499,0.422269225
2.66,0.26052779,-0.002293587,0.260622054
2.67,0.190126017,-0.019010544,0.239370883
2.68,0.053009063,0.012192726,0.304834783
2.69,-0.016518772,-0.059537888,0.27691406
2.7,-0.013923019,-0.059414864,0.279177904
2.71,-0.180894315,-0.246008873,-0.043248162
2.72,-0.328425765,-0.181147575,-0.323615938
2.73,-0.324605167,-0.180897713,-0.318438023
2.74,-0.218926042,-0.070590019,-0.15939565
2.75,-0.153268576,-0.077735901,0.197823077
2.76,-0.012986928,0.003540039,0.588586092
2.77,0.06933248,-0.022973061,0.776825309
2.78,-0.005194694,0.0247612,0.606130719
2.79,-0.005719632,0.041502953,0.087592691
2.8,-0.151808232,0.029632568,-0.258501709
2.81,-0.134848356,0.025020599,-0.232775956
2.82,-0.089072526,0.082503319,0.073800087
2.83,-0.090187222,0.082386017,0.069839746
2.84,-0.038820148,0.13248539,0.578664124
2.85,-0.199383766,0.122776032,0.570967794
2.86,-0.115595371,0.048571587,0.359784067
2.87,-0.138227075,-0.042217255,0.15681079
2.88,-0.102368921,-0.120963097,0.161453694
2.89,0.058036774,-0.254780769,0.125532746
2.9,0.061307877,-0.254570007,0.130086601
2.91,0.068386614,-0.304670334,0.086093858
2.92,-0.037453383,-0.244675636,0.117973909
2.93,-0.122076243,-0.172750473,0.164954618
2.94,-0.121332288,-0.172716141,0.165767014
2.95,-0.135935307,0.040382385,0.008457273
2.96,-0.191317409,0.131375313,0.087874368
2.97,-0.157890737,0.169671059,0.183840841
2.98,-0.081164747,0.157714844,0.21768108
2.99,-0.08087486,0.157765389,0.218791485
3,-0.13508758,0.05966568,0.234939486
3.01,-0.133080691,0.059789658,0.237274081
3.02,-0.193073839,0.002464294,0.179374963
3.03,-0.174169064,-0.06923008,0.188551277
3.04,0.004746705,-0.07392025,0.151932776
3.05,0.069571406,-0.059514046,0.156035334
3.06,0.019112498,-0.078639984,0.228939533
3.07,0.023704261,-0.181594849,0.248903513
3.08,0.032711625,-0.195950508,0.199429691
3.09,0.031802595,-0.195949554,0.200866491
3.1,0.104090303,-0.172030449,0.056375846
3.11,0.101546139,-0.172094345,0.057514295
3.12,0.003675848,-0.109919548,0.117480174
3.13,-0.031958282,-0.047730446,0.151391983
3.14,-0.239885777,0.036026955,0.13131623
3.15,-0.240285188,0.036079407,0.133673653
3.16,-0.230677575,0.038593292,-0.13959688
3.17,-0.232278347,0.038661003,-0.135559112
3.18,0.051247984,-0.184096336,0.356977403
3.19,0.066525877,-0.13163662,0.677441597
3.2,0.145016,-0.153429031,0.619095802
3.21,0.193096295,-0.144051552,0.260171801
3.22,0.065629601,-0.14409256,0.015248537
3.23,-0.01408729,-0.089025497,0.011229277
3.24,-0.021217555,-0.069972038,0.249603689
3.25,-0.013381898,0.02312851,0.588893414
3.26,-0.018080831,0.022742271,0.579931617
3.27,-0.068513125,0.024778366,0.288962632
3.28,-0.235390216,0.024621964,0.176705718
3.29,-0.277983487,0.01020813,0.042135522
3.3,-0.271478027,0.019816399,0.003073171
3.31,-0.269328713,0.019902229,0.003899485
3.32,-0.04395625,-0.06627655,0.109627426
3.33,0.084986806,-0.106999397,0.202464163
3.34,0.096062526,-0.078332901,0.28481096
3.35,-0.050252974,-0.020886421,0.18807599
3.36,-0.050105155,-0.056790352,0.140629843
3.37,-0.071804613,-0.049577713,0.06607832
3.38,-0.120255709,-0.006453514,0.036619544
3.39,-0.213698149,0.024686813,0.018499047
3.4,-0.184993327,0.022306442,0.013688713
3.41,-0.208955437,0.024682999,0.032512546
3.42,-0.18920663,0.024693489,0.123091392
3.43,-0.188373029,0.024692535,0.122207858
3.44,-0.010737777,-0.054304123,0.255803466
3.45,0.039780408,-0.042329788,0.265193582
3.46,-0.068003893,-0.068665504,0.319940507
3.47,-0.043967217,-0.078267097,0.24973385
3.48,0.03502214,-0.178831101,0.069771364
3.49,-0.018875271,-0.166892052,-0.013121232
3.5,-0.020226538,-0.166915894,-0.012930021
3.51,-0.000313461,-0.162192345,-0.054120824
3.52,-0.078733981,-0.042582512,0.136055023
3.53,0.002930909,-0.009183884,0.169439554
3.54,0.043093294,0.055327415,0.202716619
3.55,-0.012682557,0.05757618,0.387878776
3.56,-0.092009783,0.047883034,0.38853249
3.57,-0.194326937,0.086125374,0.162748382
3.58,-0.180393994,0.040652275,-0.007614776
3.59,-0.169099093,0.023949623,-0.030904472
3.6,0.005873531,-0.146062851,0.1701902
3.61,0.094229609,-0.201310158,0.561167836
3.62,0.075162023,-0.177605629,0.690693021
3.63,-0.007067859,-0.117970467,0.486298025
3.64,-0.008246005,-0.118082047,0.482667327
3.65,-0.285575628,-0.024653435,-0.449732363
3.66,-0.21041131,0.023215294,-0.27573517
3.67,-0.156532943,0.094911575,0.244046941
3.68,-0.050903291,0.056347847,0.703030586
3.69,0.044798523,0.039316177,0.688651621
3.7,0.016700268,0.022320747,0.412246168
3.71,-0.084048331,0.010228157,0.176832512
3.72,-0.09910202,-0.032879829,0.016774029
3.73,-0.068663955,-0.03524971,-0.010074481
3.74,-0.024172813,-0.032859802,0.108769447
3.75,0.008055404,0.005414963,0.207217485
3.76,0.030586585,-0.001804352,0.180822074
3.77,-0.032749891,0.019741058,0.160388976
3.78,-0.061395735,0.01502037,0.29262808
3.79,-0.106636643,0.022262573,0.25504446
3.8,-0.105957449,0.022344589,0.13386628
3.81,-0.136263371,0.020073891,-0.107664377
3.82,-0.154871106,0.017824173,-0.099354863
3.83,-0.159354538,-0.003631592,0.100868955
3.84,-0.159116238,-0.003601074,0.101934239
3.85,-0.185022354,-0.005963326,0.226990908
3.86,-0.096028507,-0.034664154,0.273442537
3.87,-0.071220458,-0.053761482,0.167437568
3.88,-0.127613932,-0.048915863,0.147778884
3.89,-0.126946271,-0.048891068,0.147761211
3.9,-0.060258001,-0.072863579,0.106183127
3.91,-0.05398792,-0.015469551,0.211868525
3.92,0.004597515,0.022727013,0.334911943
3.93,0.010302693,0.022623062,0.374474019
3.94,0.009210229,0.022520065,0.371474922
3.95,-0.065356135,0.03205204,0.461037517
3.96,0.01610665,0.008103371,0.209135652
3.97,-0.019966245,-0.04451561,0.070180222
3.98,-0.060607016,-0.121055603,0.086142138
3.99,-0.060447931,-0.120959282,0.09021832
4,-0.067349941,-0.104120255,0.069758341
4.01,-0.121820033,0.022871017,-0.020013288
4.02,-0.074128956,0.001381874,0.173942685
4.03,0.139340311,-0.139918327,0.416912109
4.04,0.079720885,-0.192749023,0.46066016
4.05,0.075015262,-0.192921639,0.457734227
4.06,-0.112726793,-0.04462719,0.361398846
4.07,-0.253300369,0.022310257,0.028258502
4.08,-0.220774889,0.022281647,-0.349868476
4.09,-0.084093168,0.022286415,-0.266255498
4.1,-0.076296493,0.022177696,0.233629406
4.11,-0.080576897,0.021981239,0.228908271
4.12,-0.048124537,-0.052451134,0.443870902
4.13,-0.133788317,-0.069306374,0.153117359
4.14,-0.301845551,0.021629334,0.101842441
4.15,-0.271819979,-0.004688263,0.077615365
4.16,-0.270331144,-0.004642487,0.07794258
4.17,-0.161355197,-0.085976601,-0.010997728
4.18,-0.107915655,-0.143373489,-0.009023517
4.19,-0.138593078,-0.02841568,0.095097393
4.2,-0.025876045,-0.035568237,-0.01125969
4.21,-0.033586651,-0.013990402,0.007688001
4.22,-0.050829038,-0.04028511,0.081946015
4.23,-0.051693872,-0.040242195,0.084077075
4.24,0.046767786,-0.069002151,-0.12257801
4.25,-0.042404234,-0.013971329,-0.11691159
4.26,-0.15782851,0.000322342,-0.018944561
4.27,-0.22975868,0.019374847,0.127660722
4.28,-0.21255675,0.021660805,0.163020179
4.29,-0.142483518,1.43051E-05,0.164881319
4.3,-0.175239012,-0.002459526,0.160276845
4.31,-0.176271543,-0.002523422,0.158121124
4.32,-0.176879317,-0.040886879,0.046317622
4.33,-0.074472725,-0.024165154,-0.060621873
4.34,-0.068566918,-0.019454002,0.044602051
4.35,-0.13220194,-0.053111076,0.149498686
4.36,-0.13383536,-0.053261757,0.143306747
4.37,-0.039937794,-0.070168495,0.188392654
4.38,-0.042174384,-0.070290565,0.183859959
4.39,-0.087561071,-0.087166786,0.165700004
4.4,-0.011419073,-0.127985954,0.12158452
4.41,-0.107833847,-0.065870285,0.076809429
4.42,-0.282950103,-0.046819687,0.017853469
4.43,-0.337681234,0.027295113,-0.191307873
4.44,-0.221937165,0.04400444,-0.224366844
4.45,-0.224465251,0.043930054,-0.22601676
4.46,0.164322257,-0.102254868,0.308355689
4.47,0.005268067,-0.071339607,0.270519048
4.48,-0.111059651,-0.037974358,0.285777807
4.49,-0.060022324,0.019392014,0.180462048
4.5,-0.175383598,0.031302452,-0.095876545
4.51,-0.23225905,0.038484573,-0.439496517
4.52,-0.297120839,0.043250084,-0.337723732
4.53,-0.279332757,0.067126274,0.031465158
4.54,-0.273953259,0.040657043,0.167418912
4.55,-0.253875434,0.050122261,0.159496978
4.56,-0.364025712,0.073984146,-0.044102706
4.57,-0.51977253,0.160171509,-0.480066061
4.58,-0.665008903,0.260801315,-0.624903083
4.59,-0.773647606,0.27053833,-0.414047957
4.6,-0.764310896,0.14863205,-0.091124661
4.61,-0.666701317,0.014829636,0.043921139
4.62,-0.713308871,-0.296114922,0.257338613
4.63,-0.830982864,-0.707520485,0.399990618
4.64,-1.006987691,-1.06125927,0.12904501
4.65,-1.155660152,-1.338132858,-0.288645476
4.66,-1.391706467,-1.420761108,-0.735493362
4.67,-1.267587185,-1.572351456,-0.910296798
4.68,-1.10072875,-1.64212513,-0.662972093
4.69,-0.994929671,-1.340526581,-0.347815782
4.7,-0.946420252,-1.338144302,-0.359501898
4.71,-0.629974604,-0.603217125,0.052258316
4.72,-0.498675227,-0.196510315,0.233187914
4.73,-0.50256294,-0.196720123,0.190258622
4.74,-0.616582692,0.473666191,0.470537514
4.75,-0.526692212,0.653395653,0.390840769
4.76,-0.385212302,0.744568825,0.213874474
4.77,-0.186707676,0.749619484,0.180926219
4.78,-0.024980962,0.642162323,0.338650107
4.79,0.152288973,0.508397102,0.32215637
4.8,0.393082678,0.269274712,0.163938522
4.81,0.536168516,0.041986465,-0.011458158
4.82,0.589816034,-0.178182602,-0.110005677
4.83,0.702805936,-0.549208641,-0.154023707
4.84,0.691018164,-0.549154282,-0.172281385
4.85,0.576758564,-1.298509598,0.115483582
4.86,0.556350589,-1.566703796,-0.201251864
4.87,0.913793027,-1.756153107,-0.793216944
4.88,1.229190946,-1.802220345,-1.190609455
4.89,1.890235186,-1.632968903,-1.405620575
4.9,2.532593727,-1.217320442,-1.61065042
4.91,2.851396084,-0.583955765,-1.493054271
4.92,2.907386303,0.29854393,-1.13479352
4.93,2.764879227,1.064492226,-0.365520001
4.94,2.346267462,1.798034668,0.081319094
4.95,2.270736217,1.79985714,0.036241889
4.96,1.76390028,2.444086075,0.059098482
4.97,0.36493218,3.074431419,0.71364975
4.98,-1.060325742,3.01496315,1.007324457
4.99,-2.442566633,2.559633255,0.871214271
5,-2.882327795,1.379999161,-0.262362927
5.01,-2.591814995,0.277941704,-1.566891313
5.02,-2.42390275,-0.846853256,-2.662390947
5.03,-2.152788162,-1.725720406,-2.925446987
5.04,-2.125241756,-1.727767944,-2.898749828
5.05,-0.51078403,-2.430633068,-1.813514471
5.06,0.049970113,-2.375941277,-0.634209573
5.07,0.065941393,-2.375295639,-0.64641279
5.08,1.164061785,-1.84458065,0.728775621
5.09,1.636800647,-1.52890873,0.527883709
5.1,1.639832497,-1.527059555,0.500739873
5.11,1.770280123,-0.850215912,-0.398786753
5.12,1.772587299,-0.848790169,-0.418461174
5.13,1.057114482,-0.205789566,-0.761686027
5.14,1.056103945,-0.204523087,-0.777959645
5.15,0.59834975,0.047980309,-0.873366416
5.16,0.594903112,0.048686028,-0.881998479
5.17,0.282413542,0.168757439,-0.979674041
5.18,-0.402644098,0.195134163,-0.982720137
5.19,-0.429565013,0.113447189,-1.135034323
5.2,-0.455623448,0.048218727,-1.338510513
5.21,-0.448177308,0.047247887,-1.326425314
5.22,-0.435965687,0.036566734,-1.391329169
5.23,-0.371402323,0.0641222,-1.404753804
5.24,-0.357573837,0.062914848,-1.388258696
5.25,-0.040105212,0.104712486,-1.429732442
5.26,0.020786125,0.062626839,-1.344257116
5.27,-0.076750614,0.075526237,-1.134009242
5.28,-0.025935099,0.038245201,-0.992347598
5.29,0.118472904,0.036921501,-0.852228105
5.3,0.329224467,0.162589073,-0.898176789
5.31,0.351990372,0.161428452,-0.871781826
5.32,0.468507707,0.569808006,-0.743132353
5.33,0.845065951,0.717281342,-0.711925149
5.34,0.684929848,1.130711555,-0.678076565
5.35,0.518731475,1.616192818,-0.622963071
5.36,0.530346632,1.61571312,-0.60705626
5.37,0.234743893,2.654500008,-0.491968989
5.38,0.143461779,3.010826111,-0.637544572
5.39,-0.166443229,3.565831184,-0.807952821
5.4,-0.45266068,4.12570858,-1.187186599
5.41,-0.432107836,4.125459671,-1.161758065
5.42,-0.571447194,4.271450996,-0.530613065
5.43,-0.431194633,4.02264595,0.586959004
5.44,-0.420021236,4.023018837,0.588561356
5.45,0.317694008,2.596356392,1.964155197
5.46,0.82411933,1.808850288,2.390332937
5.47,0.824250817,1.809041023,2.385275126
5.48,1.48654902,0.966432571,3.506052494
5.49,0.676148891,0.906861305,3.409718752
5.5,0.645270169,0.909477234,3.315365553
5.51,-0.738654673,0.483408928,3.006364822
5.52,-0.88642776,0.03104496,2.491374731
5.53,-0.994058013,-0.285222054,1.849589348
5.54,-1.039091229,-0.406435967,1.411983371
5.55,-1.116179943,-0.244571686,1.108483553
5.56,-1.345466495,0.300778389,0.871947169
5.57,-1.179905176,0.882836342,0.816992521
5.58,-1.191909552,1.336084366,1.072362423
5.59,-1.45066309,1.663017273,1.841462016
5.6,-1.522584319,1.634321213,2.424567461
5.61,-1.015228868,1.237392426,2.294653893
5.62,-0.582001448,0.440380096,1.705694079
5.63,-0.547519922,-0.259306908,1.160041928
5.64,-0.704305053,-1.086644173,0.477283359
5.65,-0.73425436,-1.764085293,-0.296210408
5.66,-0.594261527,-2.624829292,-1.100930333
5.67,-0.592641711,-2.624638557,-1.101916671
5.68,-0.425706536,-3.963224888,-1.158228993
5.69,-0.117291302,-4.315394878,-0.819796324
5.7,0.231017336,-4.485922337,-0.518233895
5.71,0.506587744,-4.578043461,-0.232231498
5.72,0.551346839,-4.551581383,-0.163509607
5.73,0.31226182,-4.451573372,-0.09429276
5.74,0.382247686,-4.385432243,-0.206669092
5.75,0.76415658,-4.362635136,-0.49229002
5.76,0.745568156,-4.366416454,-0.467784286
5.77,0.44598639,-3.969776154,-0.564869165
5.78,0.273600549,-3.551059723,-0.655950844
5.79,-0.085668415,-2.914054394,-0.742428541
5.8,-0.660104573,-2.358318806,-1.046934843
5.81,-0.827227294,-1.733125687,-1.271651506
5.82,-0.882928371,-1.088665009,-1.09699142
5.83,-1.202017069,-0.563699722,-0.837015986
5.84,-1.738086343,-0.065568924,-0.466788769
5.85,-1.790491581,0.221262932,-0.485244215
5.86,-1.481856108,0.366046906,-0.802130699
5.87,-1.133411407,0.488657951,-0.917798519
5.88,-0.847662747,0.622989655,-0.997900724
5.89,-0.467265695,0.819606781,-0.996801376
5.9,-0.185392097,0.999880791,-0.533431828
5.91,-0.196967676,1.365297318,0.03569895
5.92,-0.188672945,1.362797737,0.065088272
5.93,-0.486310065,2.462235451,0.219615519
5.94,-0.990013242,2.992379189,0.168555558
5.95,-2.093699932,3.33422184,0.113675416
5.96,-2.095674276,3.333982468,0.116116047
5.97,-3.173742294,3.390929222,-1.449818373
5.98,-2.611710072,3.729687691,-1.864650488
5.99,-1.271466017,4.041287422,-1.438046932
6,0.404954583,4.364159584,-0.392333508
6.01,1.806164265,4.41890049,1.224576235
6.02,2.007135153,4.397283554,2.896965265
6.03,2.007232904,4.395079613,2.931470394
6.04,2.744400501,3.221950531,3.715400696
6.05,2.628064156,1.981787682,3.58470726
6.06,2.237308741,0.931264877,3.332943201
6.07,1.623950362,-0.108938217,2.791656017
6.08,0.952427149,-0.930656433,1.497481823
6.09,0.94173193,-0.930623055,1.492265224
6.1,0.834774315,-1.346498489,-0.667499363
6.11,1.015092015,-0.921591759,-0.211986095
6.12,1.366000652,-0.321413994,0.598602474
6.13,1.353558421,-0.319594383,0.56518358
6.14,1.524660945,0.182566643,0.958860099
6.15,1.632419705,1.017204285,0.7580145
6.16,1.048887849,1.767686844,0.867995858
6.17,0.745653629,1.773395538,0.920380771
6.18,0.636704445,1.072674751,1.268885374
6.19,0.471060872,0.335925102,1.592810988
6.2,0.180101544,-0.695563316,1.503996849
6.21,-0.110067278,-1.842686176,0.5206213
6.22,-0.396300107,-2.93152523,-0.482934952
6.23,-0.515701056,-3.817329407,-1.34328711
6.24,-0.309176385,-4.485135078,-1.510898709
6.25,-0.032052785,-4.999047279,-1.131619215
6.26,0.183008015,-5.258336544,-0.624143601
6.27,0.220478073,-5.157732964,-0.198997647
6.28,0.229184642,-5.157045364,-0.208189696
6.29,0.324785471,-4.516974926,0.633563042
6.3,0.154631436,-4.049425602,0.357870519
6.31,-0.157566652,-3.574934959,0.109273374
6.32,-0.437905341,-3.253843307,-0.297946185
6.33,-0.759177089,-3.091012001,-1.015995145
6.34,-0.584145427,-2.868436813,-1.844451427
6.35,-0.256895185,-2.653024673,-2.252861023
6.36,-0.242332399,-2.653111458,-2.244600058
6.37,0.216501251,-1.76244545,-0.901824057
6.38,-0.041930944,-1.077464104,-0.2778036
6.39,-0.211415291,-0.586460114,-0.03975147
6.4,-0.115885258,-0.177083969,-0.229327202
6.41,-0.152854413,0.038108826,-0.461185634
6.42,-0.13505587,0.037666321,-0.439699411
6.43,0.070810169,0.535179138,-1.526373863
6.44,0.303153217,1.008751869,-1.71064496
6.45,0.528039157,1.695560455,-1.279170513
6.46,0.526877761,2.499840736,-0.554204404
6.47,0.388617039,3.352214813,-0.404476643
6.48,-0.147049487,3.821561813,-0.730560899
6.49,-0.623698652,3.814415932,-1.084209681
6.5,-0.997240365,3.733016014,-1.442719102
6.51,-1.093845129,3.989082336,-1.033006787
6.52,-0.516680598,4.297808647,-0.20947127
6.53,0.31259647,4.405321121,-0.151000321
6.54,0.312357515,4.404901505,-0.141379088
6.55,1.195171833,4.450129509,2.718240261
6.56,0.333316952,3.856770515,4.578689098
6.57,-1.01768744,3.117606163,5.739433289
6.58,-1.237205386,1.569236755,5.565260887
6.59,-1.22442615,1.569922447,5.5636096
6.6,-0.500488341,0.277412415,4.901460171
6.61,-0.306177616,-1.154192924,1.211981297
6.62,-0.458488852,-0.480874062,1.051569462
6.63,-0.477794826,-0.479734421,1.009445786
6.64,-0.918862462,1.549761772,0.295767903
6.65,-1.051150441,2.499363899,0.372225463
6.66,-1.063083768,2.501149178,0.335203052
6.67,-2.304921627,3.657706261,2.824709654
6.68,-2.297142506,3.660710335,2.7860291
6.69,-1.829464197,2.210330009,2.861846685
6.7,-0.660703063,0.591526985,1.245798469
6.71,0.358057588,-0.796173096,0.210097849
6.72,0.928945541,-2.007456779,-0.043619812
6.73,1.277827263,-3.03200531,-0.06512332
6.74,1.284438372,-3.785759449,-0.016112268
6.75,1.43408823,-4.352466106,-0.274227202
6.76,1.558842659,-4.84483242,-0.525959432
6.77,1.257996678,-5.068930149,-0.389456719
6.78,1.011714935,-4.861810207,0.096471369
6.79,0.921305537,-4.688402176,0.495186925
6.8,0.53823334,-4.352730751,0.338997901
6.81,0.138399482,-4.065741062,-0.183025956
6.82,-0.292275965,-3.882564068,-0.675543606
6.83,-0.598838449,-3.810135841,-1.093363166
6.84,-0.769824505,-3.694941998,-1.463779807
6.85,-0.823620141,-3.639581203,-1.711310148
6.86,-0.703758121,-3.560143471,-1.554763556
6.87,-0.717612326,-3.561981201,-1.532995701
6.88,-0.988294423,-3.422451496,-1.004196763
6.89,-1.205211878,-3.051054478,-0.798244834
6.9,-1.391395688,-1.997748375,-1.078621268
6.91,-1.332235098,-1.454609871,-1.002331376
6.92,-1.042943239,-0.930490494,-0.731001914
6.93,-1.016759396,-0.932757378,-0.693784058
6.94,-0.484414399,0.21214962,-0.251731813
6.95,-0.21379365,0.734663963,-0.35268867
6.96,0.145161226,1.302812576,-0.513993084
6.97,0.155357242,1.301346779,-0.482132375
6.98,0.224781841,1.886780739,-0.370277673
6.99,-0.251287401,2.956180573,-0.20315066
7,-1.056287885,3.554093361,-0.572624087
7.01,-1.063213587,3.553786278,-0.567759872
7.02,-3.101416111,3.955990791,-0.40195474
7.03,-4.214346886,3.853158951,-0.560868442
7.04,-4.574709415,4.264830589,-1.061593652
7.05,-2.523647308,4.836377144,-1.109627247
7.06,0.375777006,5.170343399,-0.948261917
7.07,0.384290218,5.168738365,-0.894403875
7.08,3.333839417,4.968678474,0.292364031
7.09,3.324577808,4.967830658,0.320356906
7.1,2.991961718,3.298679352,5.361142159
7.11,2.221195459,2.003323555,6.773721695
7.12,2.475358963,0.296285629,6.762155533
7.13,2.838836193,-1.176082611,4.860057831
7.14,2.151913881,-1.659731865,1.606766105
7.15,2.140770912,-1.659902573,1.60947156
7.16,-0.324094862,-0.333758354,-3.587315559
7.17,-0.191584319,0.33638382,-3.64286828
7.18,0.149551734,0.987903595,-2.097720623
7.19,0.583795428,1.546509743,-0.109757915
7.2,1.407539248,1.784749985,1.446220875
7.21,1.899470091,1.716917038,2.109419107
7.22,1.919462919,1.347665787,2.561620951
7.23,1.148918867,0.808641434,3.039446115
7.24,1.135416508,0.810776711,2.995599031
7.25,0.235447004,-0.003742218,3.157917738
7.26,-1.017674446,-2.238695621,0.834315121
7.27,-1.427388668,-3.246241093,-0.52083081
7.28,-1.662410259,-4.02709198,-1.433275461
7.29,-1.759032249,-4.707746983,-2.131414175
7.3,-1.50120306,-5.08634758,-2.173201084
7.31,-1.126967907,-5.244082928,-1.644665241
7.32,-1.098455548,-5.243154049,-1.653161287
7.33,-0.476803273,-5.246536732,-0.913009226
7.34,0.32205987,-4.622215271,0.284709632
7.35,0.482166946,-4.239632607,0.466653705
7.36,0.655664504,-3.883446693,0.136156261
7.37,0.617783904,-3.508440971,-0.461600184
7.38,0.463739127,-3.195917606,-1.047193527
7.39,0.481631517,-3.194770336,-1.056116343
7.4,0.171863392,-2.619083881,-1.595767975
7.41,0.226225987,-2.306967735,-1.294997454
7.42,0.361811221,-1.846671104,-1.056207895
7.43,0.328792423,-1.262264252,-0.850258827
7.44,0.457085908,-0.613499641,0.028289199
7.45,0.523526073,-0.103593826,0.535962701
7.46,0.496989548,0.422572136,0.07981056
7.47,0.342752665,0.910058975,-0.258126587
7.48,0.333192229,1.474106789,-0.695862651
7.49,-0.158068061,1.966272354,-1.413721323
7.5,-0.413302898,2.353040695,-1.972649217
7.51,-0.412248731,2.35189724,-1.951628685
7.52,-0.24068439,2.939837456,-1.894305825
7.53,-0.336165339,3.015603065,-1.534201622
7.54,-0.709652782,3.139537811,-1.251444459
7.55,-0.949045539,3.938855171,-0.572946072
7.56,-0.595215499,5.071120262,-0.036916971
7.57,0.042066246,5.913559914,0.120476306
7.58,0.876528144,6.427929878,0.609685242
7.59,0.770660996,6.549933434,2.443656445
7.6,-0.472164393,5.449327469,5.45484972
7.61,-1.266208887,4.059530258,7.396537781
7.62,-0.661015034,1.714175224,7.486131191
7.63,0.850654006,-0.237377167,5.648634911
7.64,0.931713104,-1.317671776,3.372464657
7.65,0.919540167,-1.318570137,3.381611824
7.66,-1.112356186,-0.596317291,-0.396659195
7.67,-1.430342555,0.037869453,-0.769880652
7.68,-1.802845716,0.706101418,-1.213882923
7.69,-1.835291624,1.980755806,-0.915790916
7.7,-2.30333662,2.652626991,0.554662705
7.71,-2.290626287,2.655125618,0.521646261
7.72,-1.831961632,2.773377419,3.574645281
7.73,-1.802851319,2.397642136,3.156352043
7.74,-1.27557385,1.240791321,1.977656364
7.75,-0.401196778,-0.18980217,1.04500246
7.76,0.193772227,-1.443994522,0.439283907
7.77,0.569982529,-2.655542374,-0.096235812
7.78,0.981574595,-3.606300354,-0.482453436
7.79,1.157756329,-4.267538548,-0.790978074
7.8,1.151358843,-4.703852654,-0.908370853
7.81,1.126924753,-4.704428673,-0.911479473
7.82,0.949164867,-5.078395367,-0.126252055
7.83,1.001826763,-5.088543415,-0.208465338
7.84,0.674023628,-5.091923237,-0.331829995
7.85,0.649286568,-5.093236446,-0.321805686
7.86,-0.352767795,-4.79307127,-0.11323148
7.87,-0.171511576,-4.524231911,-0.187497556
7.88,-0.304446816,-4.416070938,-0.728907108
7.89,-0.321713239,-4.418171883,-0.701698601
7.9,-0.618341327,-4.156649113,-1.206034422
7.91,-0.599911988,-3.360815525,-1.298294544
7.92,-0.611291826,-3.36222887,-1.277134657
7.93,-1.060550928,-2.030166626,-1.524440765
7.94,-1.186418295,-1.258443832,-1.425255775
7.95,-1.250298262,-0.529720306,-1.164953232
7.96,-1.269489646,0.09627533,-0.658982396
7.97,-1.399027586,0.717768669,0.029974729
7.98,-1.139013529,1.181505203,0.258722216
7.99,-1.122567415,1.180719376,0.283677489
8,-0.612049818,1.490896225,-0.231498256
8.01,-0.423504114,1.846673012,-0.706249058
8.02,-0.375367135,2.190689087,-0.650754094
8.03,-0.198259339,2.470205307,-0.22553736
8.04,-0.44618541,2.656449318,-0.137510464
8.05,-0.977978349,2.770989418,-0.331495643
8.06,-3.223354101,3.302349091,-1.681521058
8.07,-3.20966053,3.302378654,-1.669274926
8.08,-3.187133074,5.043194771,-1.791879773
8.09,-3.16349864,5.043372154,-1.765802741
8.1,-1.645359159,5.914920807,-1.046268821
8.11,0.32988447,6.364831924,-0.117994249
8.12,2.466469765,5.967020988,2.450395346
8.13,2.029686689,4.896386147,3.994970798
8.14,2.094766378,2.891969681,4.948855877
8.15,2.071548462,2.891465187,4.938444614
8.16,3.657192945,-1.002067566,4.908148289
8.17,2.83296442,-1.868834496,3.436536074
8.18,1.020333052,-1.095222473,0.142756566
8.19,1.023518562,-1.094851494,0.127774283
8.2,0.268599451,-0.63474083,-1.7727952
8.21,0.542036533,0.993973732,-1.215967298
8.22,0.54985863,0.994944572,-1.247866154
8.23,0.925553441,1.539628983,-0.123449892
8.24,1.525499105,1.897665977,1.054823875
8.25,2.108438015,1.398591995,2.111178637
8.26,1.841655493,0.755916596,2.368518353
8.27,0.913524151,-0.09734726,1.815129876
8.28,0.008513942,-1.13272953,0.753952205
8.29,-0.433673918,-2.158834457,-0.096535653
8.3,-0.556795239,-3.300229073,-0.295915127
8.31,-0.856924534,-4.389172077,-0.592192173
8.32,-0.995341361,-5.131211281,-0.594305337
8.33,-0.978342652,-5.504566669,-0.284564704
8.34,-0.870356143,-5.858592987,-0.245501012
8.35,-0.696460426,-5.98522377,-0.390467286
8.36,-0.174282938,-6.044797897,-0.429564685
8.37,0.245574728,-5.651642323,-0.1498864
8.38,0.26347217,-5.650859356,-0.155039102
8.39,0.344360352,-4.909910679,0.143345296
8.4,0.487085789,-4.432240486,-0.171362758
8.41,0.496518314,-4.431058884,-0.186516345
8.42,0.382196367,-3.888735294,-0.486311853
8.43,0.282707691,-2.805352688,-1.224757552
8.44,0.096491307,-2.181824684,-1.412563324
8.45,-0.116551399,-1.546505928,-1.343753338
8.46,-0.107486785,-1.545820236,-1.349192858
8.47,-0.248563945,-0.101603508,-1.060121298
8.48,-0.187621713,0.471047401,-0.512248457
8.49,-0.184474289,0.471427918,-0.516398072
8.5,0.487924963,1.091752052,0.043016136
8.51,0.319494903,1.54387188,-0.196551323
8.52,0.324018359,1.543189049,-0.183021605
8.53,0.005011529,2.634049416,-1.377607584
8.54,0.013766795,2.633079529,-1.355361223
8.55,-0.209564447,3.252329826,-1.783973694
8.56,-0.303272635,3.843349457,-1.616416931
8.57,-0.299721718,3.843214989,-1.611092329
8.58,-0.578041077,3.730699539,-1.196369171
8.59,-0.77859956,4.030117035,-0.521942794
8.6,-0.5032897,4.48047924,0.12511003
8.61,-0.0286479,4.794408798,0.473374784
8.62,-0.01370135,4.794728279,0.481375158
8.63,0.030754805,5.113754272,1.971661806
8.64,-0.491159201,4.686164856,3.401817799
8.65,-0.708451212,3.6960783,4.240984917
8.66,-0.761932552,2.138336182,4.458202839
8.67,-0.373092771,0.429632187,4.418242931
8.68,0.273144007,-0.829559326,4.017934322
8.69,0.989657581,-1.622321129,2.741492987
8.7,0.973664939,-1.623073578,2.735318661
8.71,0.17944333,-0.876818657,0.984841049
8.72,-0.051636338,0.054275513,0.741399527
8.73,-0.507972419,1.100661278,0.071574807
8.74,-1.165101528,2.006155014,0.217461765
8.75,-1.92237556,2.72311306,1.308070421
8.76,-2.275656462,3.069832802,2.569167614
8.77,-2.368314743,2.801738739,2.644762516
8.78,-2.366055727,2.803939819,2.614163876
8.79,-0.517629206,0.659395218,0.792916596
8.8,0.36125496,-0.801168442,0.175310314
8.81,0.670111775,-2.101845741,0.015184939
8.82,0.935797572,-2.985999107,-0.12922895
8.83,1.127445579,-3.855812073,-0.457177222
8.84,1.095607758,-3.856491089,-0.464687169
8.85,1.025852919,-4.855453014,-0.983584821
8.86,0.301687777,-4.901332378,-0.728695512
8.87,0.084306836,-4.839299679,-0.332915902
8.88,-0.00293307,-4.784638405,-0.252179503
8.89,-0.073441252,-4.682436466,-0.275784522
8.9,-0.224394128,-4.554134369,0.033347905
8.91,-0.128501535,-4.231921196,0.160206735
8.92,-0.154550716,-4.233163834,0.17194891
8.93,-0.475313723,-3.574073792,-1.052935004
8.94,-0.8414253,-3.202517033,-1.38230443
8.95,-1.090118527,-2.864428043,-1.753281832
8.96,-1.093570471,-2.866405964,-1.723816633
8.97,-1.47515893,-1.961105347,-1.758992672
8.98,-1.276884317,-1.48683548,-1.093279839
8.99,-1.260894179,-1.488833427,-1.054480076
9,-0.787655175,-0.46116066,-0.262522221
9.01,-0.664013445,-0.07752037,-0.010998636
9.02,-0.463269472,0.284812927,0.124068975
9.03,-0.441340208,0.283438683,0.171151489
9.04,-0.180046782,1.232790947,-0.573462963
9.05,0.106387064,1.636474609,-1.03201592
9.06,0.277211219,2.236679077,-1.034483433
9.07,0.194539979,2.971217155,-0.713828921
9.08,0.194044232,2.970824242,-0.691994429
9.09,-0.782609165,3.51884079,0.014002219
9.1,-0.788648009,3.518636703,0.018008322
9.11,-3.306319237,3.310278893,0.027581885
9.12,-4.247170925,3.200202942,-1.067237854
9.13,-4.047968388,4.220491409,-2.259846926
9.14,-4.00949049,4.22127533,-2.203548431
9.15,1.153557062,5.122403145,-0.777669966
9.16,2.811479807,5.010440826,0.465082645
9.17,3.113465786,4.967532158,2.672893524
9.18,3.109893322,4.967587471,2.686018705
9.19,2.387542486,3.605200768,5.621385098
9.2,2.187038898,2.041475296,4.933989525
9.21,2.204854727,0.573259354,3.856509209
9.22,1.961422443,-0.847132683,1.945563316
9.23,1.593251944,-1.733513832,-0.329005778
9.24,1.577647209,-1.7339468,-0.331231713
9.25,0.632449806,-1.408783913,-2.398571491
9.26,0.691030622,-0.745987892,-1.821308613
9.27,0.678209245,-0.746512413,-1.846417189
9.28,1.254341722,0.749310494,-0.10092555
9.29,1.232581973,0.748801231,-0.145373747
9.3,0.742553711,2.29043293,2.124456167
9.31,0.164499447,2.383938789,2.513269663
9.32,0.139997602,2.384381294,2.461492538
9.33,-0.171567231,1.788844109,2.54873991
9.34,-0.310052127,-1.234489441,1.418245077
9.35,-0.91809094,-2.64423418,0.570908546
9.36,-1.123576045,-3.917913914,-0.427287817
9.37,-1.110472202,-3.918055058,-0.419615805
9.38,-0.933131158,-4.895054817,-1.154383898
9.39,-0.491627306,-5.996397018,-0.996389508
9.4,0.15231958,-6.158882618,-0.389880419
9.41,0.609945536,-6.028948784,-0.169400305
9.42,0.652873635,-5.482279301,0.074205965
9.43,0.360169977,-4.851601601,0.577525556
9.44,0.312560052,-4.330864429,0.714021206
9.45,0.37921688,-3.920171261,0.467707396
9.46,0.238900274,-3.538251877,-0.144219488
9.47,0.252835095,-3.537260056,-0.161343187
9.48,0.00339599,-2.880320072,-1.605045676
9.49,-0.065067157,-2.565752506,-2.098325968
9.5,-0.053834036,-2.119604111,-2.311466694
9.51,0.159676075,-1.671280861,-2.033772707
9.52,0.167385399,-1.670846939,-2.038879633
9.53,0.157447621,-0.324522972,0.329596818
9.54,0.289459854,0.205471039,0.610819757
9.55,0.388033569,0.632225037,0.146441013
9.56,0.227778465,1.269207001,-0.560310304
9.57,-0.023687869,1.776582718,-1.368608594
9.58,-0.019733906,1.77630043,-1.360031486
9.59,-0.013089299,2.544741631,-1.331727147
9.6,-0.248635709,3.188850403,-0.975582004
9.61,-0.4480775,4.196921349,-1.124375701
9.62,-0.485240638,4.266525269,-1.248373985
9.63,-0.770036817,3.871635437,-1.783585668
9.64,-0.869246125,3.768473625,-1.796820879
9.65,-1.024769783,4.419372559,-0.549702287
9.66,-1.026902199,4.419215202,-0.54754895
9.67,-0.712174416,4.874027252,-0.536086798
9.68,-0.224185854,5.008440018,-0.519092917
9.69,0.562673926,4.969402313,0.68903935
9.7,0.807758331,2.640095711,6.185314655
9.71,0.405615538,0.351620674,6.901340485
9.72,0.24248521,-1.675915718,5.244100094
9.73,0.067106411,-3.021277428,3.047659397
9.74,-0.263892174,-3.263643265,0.774296343
9.75,-0.253438413,-3.261748314,0.752964377
9.76,-1.052777529,-0.750319481,-0.126179695
9.77,-1.363036394,0.815634728,-0.111923814
9.78,-1.37173152,0.8179636,-0.142188966
9.79,-0.533718348,4.497365952,0.597563446
9.8,-0.678277552,5.452946663,2.505835533
9.81,-1.707105398,6.263503075,4.985733032
9.82,-1.717615604,6.267850876,4.939759254
9.83,-1.689529181,3.906208992,5.495317459
9.84,-0.437697232,1.884691238,2.739844799
9.85,0.031651855,0.075532913,0.032675624
9.86,0.187103853,-1.232875824,-1.559157372
9.87,0.147957608,-2.179961205,-2.05368495
9.88,0.144137263,-2.183004379,-2.022933006
9.89,0.190040544,-3.176328659,-1.839493752
9.9,0.345970035,-3.977278233,-1.315979004
9.91,0.661558449,-5.081696033,-0.918648422
9.92,0.157031775,-5.381180286,-0.221934736
9.93,-0.169859886,-5.285606861,0.504174829
9.94,0.130307317,-5.360656261,0.279769659
9.95,0.095740706,-5.436901569,-0.531763315
9.96,-0.075141683,-5.341622829,-0.65975076
9.97,-0.242868051,-5.286968231,-0.556954503
9.98,-0.217938244,-5.210669994,-0.894523799
9.99,-0.387323827,-4.985956669,-1.529219151
10,-0.520654976,-4.658130169,-1.726385832
10.01,-0.185412169,-4.155189991,-1.598515749
10.02,-0.201953962,-3.608873367,-1.34897244
10.03,-0.6061849,-3.086147308,-1.539251328
10.04,-1.013806462,-2.292931557,-1.274720073
10.05,-1.215177298,-1.329559326,-0.498832047
10.06,-1.408370614,-0.416077614,-0.061498195
10.07,-1.351329923,0.183792114,-0.114518404
10.08,-1.049892068,0.864905357,-0.457369864
10.09,-1.203218818,1.646391869,-0.593323231
10.1,-1.262856126,2.236470222,-0.832687199
10.11,-0.954477727,2.951201439,-1.039829612
10.12,-0.951995492,2.950259209,-1.014791489
10.13,-0.316193581,3.835501671,0.229172409
10.14,-0.892119885,4.088918686,0.696950436
10.15,-2.06955719,4.076763153,0.487046391
10.16,-3.603073597,4.021523476,-0.38694948
10.17,-3.589484692,4.021239281,-0.375608504
10.18,-5.647879124,3.628258705,-1.66419518
10.19,-4.321269512,3.824289322,-1.013397694
10.2,-4.269390106,3.823968887,-0.960471451
10.21,-1.882329583,4.276320457,-0.868832648
10.22,2.797511816,4.970653534,-0.981745958
10.23,2.808249235,4.970674515,-0.916322053
10.24,4.091777802,5.035300255,0.530600786
10.25,4.953232288,3.423826218,5.882939339
10.26,4.12809515,2.05152607,7.271621704
10.27,3.214219093,0.707700729,7.113435745
10.28,2.289162397,-0.794114113,4.909621716
10.29,1.424664021,-1.622976303,1.787217736
10.3,-0.154503584,-1.704684258,-2.058436155
10.31,-1.405102015,-1.154166222,-4.700501919
10.32,-1.41027689,-1.154197693,-4.689682007
10.33,-1.339822531,-0.409693718,-4.46308136
10.34,-0.755490303,0.365771294,-2.034821749
10.35,0.123227596,1.258586884,-0.092964917
10.36,0.664914191,1.849949837,1.028404236
10.37,0.744651616,2.010591507,1.901282907
10.38,0.188112527,0.938333511,2.85844183
10.39,0.181284279,0.938886643,2.821258545
10.4,0.190975279,-0.051693916,2.808553696
10.41,-0.179680795,-2.83092165,0.922382951
10.42,-0.168077439,-2.830506802,0.911385
10.43,-0.630720496,-3.878836155,-0.051563904
10.44,-1.123765588,-4.675702095,-0.975847244
10.45,-1.027329445,-5.182676315,-1.126204133
10.46,-0.686182559,-5.696510792,-0.420918316
10.47,-0.549571455,-5.6570158,-0.288116992
10.48,-0.269204855,-5.452086449,0.310318738
10.49,-0.236364216,-5.450456619,0.291692913
10.5,0.402372629,-4.795151711,-0.288604647
10.51,0.625081956,-4.348359108,-0.645709574
10.52,0.646864712,-4.346925735,-0.66095221
10.53,0.417678565,-3.320582867,-1.162223816
10.54,0.434135556,-3.318948269,-1.184942961
10.55,0.340884656,-2.393199444,-1.450610876
10.56,0.303560168,-1.812424183,-1.233388662
10.57,0.178727925,-1.112194061,-0.845690668
10.58,0.148610234,-0.436145783,-0.565859437
10.59,0.159057736,-0.435498238,-0.56824851
10.6,0.048984379,0.103624344,-0.353329778
10.61,0.003718078,0.956240654,-0.200851589
10.62,0.115055591,1.276810646,-0.89156425
10.63,-0.006975234,1.829329491,-1.787021995
10.64,-0.004316807,1.828614235,-1.766785383
10.65,0.088883519,2.608456612,-1.718293428
10.66,-0.34767735,3.773967743,-0.794091463
10.67,-0.347485364,3.773637772,-0.784669995
10.68,-0.486585796,3.890808105,-1.045942068
10.69,-0.983077645,3.230122566,-1.372425795
10.7,-0.970883071,3.230538368,-1.364100337
10.71,-1.294624329,3.310220718,-0.107231125
10.72,-1.032789946,3.79235363,0.16828832
10.73,-1.011698723,3.793115616,0.186262697
10.74,0.684813917,4.42568779,0.015839279
10.75,0.701443315,4.426515579,0.025524378
10.76,0.258381993,3.599560738,4.893136978
10.77,0.400429666,2.042397499,5.862587452
10.78,0.704584956,0.673892021,5.327196121
10.79,0.712293208,0.674273491,5.334262371
10.8,0.67833209,-0.092388153,2.788612127
10.81,0.666139841,-0.093177795,2.784484386
10.82,0.18700552,0.408638001,2.211099863
10.83,-0.708167553,1.851368904,0.747645617
10.84,-0.731744289,1.850518227,0.724032998
10.85,-2.317569733,3.243750572,0.990665555
10.86,-2.965903282,3.320818901,1.765583158
10.87,-2.728435755,2.682579994,2.167627811
10.88,-2.725565434,2.683732986,2.143618345
10.89,-0.153926551,0.244511604,0.384346694
10.9,0.283801228,-0.840346336,-0.392127186
10.91,0.564916551,-1.56381321,-0.178818882
10.92,0.972727537,-2.294463634,0.276228935
10.93,0.944152296,-2.29486227,0.250197649
10.94,1.326548815,-2.925074577,0.116011024
10.95,1.269786358,-3.873680592,0.692580044
10.96,1.207222342,-4.130256176,0.932838142
10.97,1.167818069,-4.13118124,0.919908464
10.98,0.78637445,-4.30974865,0.543401897
10.99,0.377820402,-4.467169762,-0.099252611
11,0.099067405,-4.63201046,-0.594983101
11.01,-0.161691368,-4.758552074,-0.658027291
11.02,-0.35529381,-4.676719666,-0.840667844
11.03,-0.349163145,-4.613892078,-1.06647861
11.04,-0.172599748,-4.495763302,-0.88260138
11.05,-0.218579635,-4.308035374,-0.794704795
11.06,-0.266401827,-3.983746529,-0.8901335
11.07,-0.467908382,-3.53726244,-1.158172369
11.08,-0.864277661,-2.985301018,-1.306447387
11.09,-1.189020753,-2.500272274,-1.329597354
11.1,-1.053733826,-1.581766129,-0.809263945
11.11,-1.070433617,-1.110790253,-0.485314667
11.12,-1.055229783,-1.11131382,-0.450910509
11.13,-1.088132143,-0.592076302,-0.392082423
11.14,-0.946968615,-0.075091362,-0.432173073
11.15,-0.858008087,1.133956909,-1.18973887
11.16,-0.845536709,1.13397789,-1.158607364
11.17,-0.893273473,2.216278076,-1.230666399
11.18,-0.887274325,2.216358185,-1.209380984
11.19,-0.965954065,2.824552536,-0.851554275
11.2,-1.469573736,3.482945442,-0.238136739
11.21,-2.203903198,3.387123108,-0.303946167
11.22,-3.259664536,3.181286812,-0.893239439
11.23,-3.246528149,3.18166256,-0.887973666
11.24,-3.853072643,3.489001274,-1.216508389
11.25,-0.623704672,4.490858078,0.276638567
11.26,1.648302555,4.642501831,0.506126225
11.27,2.888593197,4.609440804,1.147288918
11.28,3.182658672,4.279345512,2.548566818
11.29,2.992803097,3.643165588,3.753593445
11.3,2.569455385,2.568915367,4.236318588
11.31,2.207422733,1.451395035,4.761912823
11.32,2.067658901,0.328660011,3.667991877
11.33,1.83505559,-0.277042389,1.634729862
11.34,1.827697277,-0.277126312,1.642815232
11.35,0.92766428,0.234923363,-1.859252214
11.36,0.539797187,1.249551773,-2.145332336
11.37,0.684358478,2.024594307,-1.376618266
11.38,1.309749722,2.64132309,0.120427981
11.39,1.647217035,2.826798439,1.472926736
11.4,1.626927376,2.825515747,1.422759295
11.41,1.006744266,2.101476669,2.997979164
11.42,0.992261052,2.100945473,2.949387789
11.43,-0.669155896,0.089642525,1.61482954
11.44,-1.172873735,-1.260544777,0.089061178
11.45,-1.486372948,-2.493225098,-0.85369134
11.46,-1.451683402,-3.517410278,-1.14825058
11.47,-1.430312872,-3.516682625,-1.159260035
11.48,-0.798797727,-4.9930439,-0.352623999
11.49,-0.385362446,-5.408551216,0.060366482
11.5,-0.146340042,-5.553293705,0.244503021
11.51,-0.069529235,-5.585270405,0.403569996
11.52,0.149704099,-5.502066135,0.328044772
11.53,0.322106481,-5.24640131,0.154132351
11.54,0.551473141,-5.019468307,-0.268509477
11.55,0.776372135,-4.615522861,-0.678199053
11.56,0.743198633,-4.132698059,-0.965783
11.57,0.759522378,-4.131310463,-0.982942224
11.58,0.624397516,-3.768628597,-1.176379442
11.59,0.629218876,-3.320049763,-1.247533202
11.6,0.581163585,-2.390528202,-0.924986601
11.61,0.482578993,-1.887452126,-1.044178724
11.62,0.202275306,-1.341474533,-1.170423031
11.63,0.190418303,-0.884288788,-0.989262581
11.64,0.191336691,-0.884476662,-0.982553124
11.65,0.196963996,-0.360271454,-0.581549168
11.66,0.239973992,0.192638397,-0.246401519
11.67,0.314428449,1.523562431,-0.595167041
11.68,0.326954186,2.430435181,-1.023782969
11.69,0.147518486,3.401785851,-1.132918835
11.7,0.139300436,3.401088715,-1.125504613
11.71,-0.408229947,4.305579185,-0.662014782
11.72,-0.870833874,4.242980003,-0.999884546
11.73,-1.172194958,3.783114433,-1.500706196
11.74,-1.014674902,3.218058586,-1.453297138
11.75,-0.876721442,3.151057243,-0.230990857
11.76,-0.682516635,3.876577377,0.533230722
11.77,-0.054667532,4.6498909,0.167080373
11.78,-0.051840663,4.649687767,0.180061758
11.79,0.811446309,5.004029274,-0.376441658
11.8,-1.096984625,4.540709496,2.857969761
11.81,-1.074167371,4.54211235,2.856847048
11.82,-0.152958334,1.356144905,4.831148148
11.83,0.578622937,-0.274264336,4.445096493
11.84,0.909692526,-1.440752983,3.5984869
11.85,0.673906744,-1.656988144,2.525804758
11.86,0.121433556,-1.064123154,1.49277997
11.87,-0.552516639,-0.246060371,0.969129562
11.88,-0.756088018,0.521886826,0.367902935
11.89,-0.7859357,0.521258354,0.344830364
11.9,-1.819944143,2.223190308,0.139577419
11.91,-2.506678581,2.9246912,1.285318851
11.92,-2.520372391,2.925570488,1.252253294
11.93,-2.726517677,3.211763382,2.404356241
11.94,-0.637539387,2.09480381,2.427760124
11.95,-0.653088689,2.095342636,2.406489372
11.96,0.603453875,0.04091835,1.200148106
11.97,0.878079176,-0.931820869,0.481698871
11.98,0.859487534,-0.932762146,0.487663209
11.99,1.238509774,-2.746268272,-0.3614209
12,1.334154129,-3.527884007,-0.499359667
12.01,1.080987334,-4.165744305,-0.497958422
12.02,0.683672786,-4.50407362,-0.517649174
12.03,0.428141952,-4.734547615,-0.254827023
12.04,0.393257737,-4.735181808,-0.252335846
12.05,-0.065014251,-4.905989647,0.304576814
12.06,-0.093740799,-4.90691185,0.317843616
12.07,-0.494647414,-5.025304317,-0.328797936
12.08,-0.790488958,-4.921395302,-1.145219445
12.09,-1.092846394,-4.714732647,-1.70001328
12.1,-1.339859605,-4.536608696,-2.068902731
12.11,-1.377557278,-4.08060503,-1.967196703
12.12,-1.370062351,-4.08178854,-1.931347609
12.13,-1.169390321,-3.48196888,-1.735893488
12.14,-1.201298952,-2.865253448,-1.603347778
12.15,-1.269850373,-1.338442802,-1.340696812
12.16,-1.242056489,-1.33891201,-1.299308658
12.17,-1.196413279,0.018519402,-0.788534582
12.18,-0.657501876,0.495102882,-0.286806673
12.19,-0.140240535,0.698883057,0.174365059
12.2,-0.126209095,0.699094772,0.197338656
12.21,0.353041589,1.211605072,-0.71303314
12.22,0.355556279,1.211673737,-0.700107813
12.23,0.249122068,1.647415161,-0.985180318
12.24,0.227748662,2.214758873,-1.04791069
12.25,-0.901112318,3.825976372,-0.268917382
12.26,-2.197793484,4.386112213,0.024764316
12.27,-3.758902311,4.467445374,0.24486135
12.28,-3.760210752,4.467499733,0.225545213
12.29,-4.630091667,3.447717667,-0.627256095
12.3,-4.002340794,3.630085945,-1.269950628
12.31,-3.973532438,3.630644798,-1.248925924
12.32,-1.621703148,4.057472229,-1.417451262
12.33,2.234682083,4.412348747,-0.375941843
12.34,2.236875534,4.412662506,-0.342121691
12.35,2.810466051,4.082401276,3.23203969
12.36,2.809406757,4.082490921,3.241603851
12.37,2.685624599,3.404931068,4.588036537
12.38,2.288714409,2.219631195,5.56192112
12.39,1.999715924,1.041371346,5.314797401
12.4,1.957328796,-0.247055054,4.19500494
12.41,2.050997734,-1.456494331,2.399480343
12.42,1.788044691,-1.997841835,0.248077914
12.43,0.696358979,-0.918299675,-2.2389853
12.44,0.881383181,-0.214671135,-1.615225077
12.45,1.115360498,0.445761681,-0.495289654
12.46,1.384802818,0.866728783,0.446590692
12.47,1.30901289,1.405123711,1.522692204
12.48,0.431677103,1.713971138,2.430229187
12.49,-0.484960496,1.870017052,2.696904659
12.5,-0.481754124,1.870670319,2.652477026
12.51,-1.450221062,0.020622253,1.639277816
12.52,-1.168895602,-1.405801773,0.697272897
12.53,-1.157186508,-1.405413628,0.690085173
12.54,-1.195754528,-2.523165226,0.08827123
12.55,-1.162339449,-3.676738262,-0.394804925
12.56,-0.554492593,-5.287511349,-0.668932021
12.57,-0.522729516,-5.286658764,-0.663916588
12.58,-0.198040426,-5.611194611,-0.561076522
12.59,-0.165724546,-5.609887123,-0.567216158
12.6,0.051397651,-5.373772144,-0.338807106
12.61,0.071873814,-4.842981815,-0.266012996
12.62,0.172447532,-4.194881439,-0.336379647
12.63,0.47194925,-3.671349525,-0.245629102
12.64,0.756183922,-2.82943964,0.33600083
12.65,0.771282077,-2.828062534,0.317043006
12.66,0.788628697,-2.542132854,-0.037148625
12.67,1.030003786,-2.017010689,-1.416573405
12.68,0.68082118,-1.714858055,-2.24131012
12.69,0.402037561,-1.321931839,-2.271354675
12.7,0.215721786,-0.938773155,-1.71409595
12.71,0.219500244,-0.938796997,-1.705868006
12.72,0.420526326,-0.151341438,-0.342067152
12.73,0.15984124,0.432667732,-0.002294719
12.74,-0.184156716,1.107797623,-0.105983198
12.75,-0.414740145,1.854765892,-0.618637085
12.76,-0.578422666,2.541844368,-1.20793891
12.77,-0.41571641,3.224080086,-1.478451014
12.78,-0.411215067,3.223920822,-1.46035111
12.79,-0.316893816,3.630926132,-1.126892924
12.8,-0.212299824,3.702934265,-0.541677475
12.81,-0.746541143,3.049778938,-0.691404223
12.82,-1.116342783,3.005091667,-0.627260447
12.83,-0.981482565,3.631245613,-0.287948608
12.84,-0.956204176,3.632537842,-0.263950378
12.85,-0.178963542,4.277810097,-0.496643901
12.86,0.224596173,4.71252346,-0.470238626
12.87,-0.27029711,4.762079239,2.92522645
12.88,-0.285603821,3.777517319,4.795384884
12.89,0.208781064,2.497732162,5.396616936
12.9,0.82291621,0.908168793,5.257294655
12.91,0.818000674,-0.047736168,4.465139866
12.92,0.412069917,-0.221179009,3.113972664
12.93,-0.21248579,0.074457169,1.498846889
12.94,-0.769086003,0.585526466,0.780610681
12.95,-1.674165726,1.32886219,0.39887318
12.96,-2.607429266,2.211561203,0.468504936
12.97,-2.990815401,2.829035759,0.960560918
12.98,-2.9051826,2.783725739,1.603795171
12.99,-2.305013418,2.470690727,2.075162172
13,-1.099042058,1.578442574,1.848576903
13.01,-0.169275284,0.520750046,1.25573945
13.02,0.184936285,-0.386324883,0.72595346
13.03,0.349669844,-1.370333672,0.208158553
13.04,0.664831281,-2.254200935,-0.576084971
13.05,0.650858462,-2.255147934,-0.577031732
13.06,0.906400979,-2.994009018,-0.90543437
13.07,1.411398292,-3.632558346,-0.529404402
13.08,1.74558115,-4.232907295,0.118645787
13.09,1.50042367,-4.646515369,0.434569508
13.1,0.875251055,-4.859028339,0.675174117
13.11,0.688634038,-5.040391922,0.277809203
13.12,0.502080321,-5.104598045,-0.540035248
13.13,0.398406237,-5.085028648,-1.236117482
13.14,0.123293012,-4.82115221,-1.117434025
13.15,0.092455804,-4.822788715,-1.09588027
13.16,-0.108742148,-4.596779346,-1.033990264
13.17,-0.35761711,-3.848671436,-1.116603255
13.18,-0.387495309,-3.849790096,-1.09944725
13.19,-0.569195151,-2.770918846,-1.317744732
13.2,-0.915097415,-2.005442619,-1.367025971
13.21,-1.282441974,-1.237392426,-1.268030047
13.22,-1.287519455,-1.237661362,-1.244833708
13.23,-1.343889356,-0.620038033,-1.258040428
13.24,-1.382350206,-0.107525826,-0.943400681
13.25,-1.468408108,0.261523247,-0.300379247
13.26,-0.98696661,0.678595543,-0.029673934
13.27,-0.678597927,0.95935154,-0.329752833
13.28,-0.476746798,1.221142769,-0.812002301
13.29,-0.456085205,1.222180367,-0.777390122
13.3,-0.600152493,1.716453552,-0.677951932
13.31,-0.617402434,2.030976295,-0.291380644
13.32,-0.608355045,2.03158474,-0.275940865
13.33,-1.393571138,2.431797028,-0.54902637
13.34,-1.390690923,2.431997299,-0.544929743
13.35,-2.898626089,2.468070984,-1.096667767
13.36,-2.883999586,2.468686104,-1.09334445
13.37,-2.278220177,4.332727432,-1.501436234
13.38,-0.321616978,4.906680107,-1.586673975
13.39,-0.311556548,4.908230782,-1.548413873
13.4,2.609565258,4.997579575,1.665705681
13.41,3.277344704,4.554632187,3.739475727
13.42,3.546909332,3.573012352,4.686680317
13.43,3.528959036,3.572857857,4.701521397
13.44,3.224092722,1.189792633,4.080770016
13.45,3.193309069,1.188781738,4.081861496
13.46,2.024395704,0.115065575,1.048526049
13.47,0.596567631,0.442144394,-0.891561151
13.48,0.243628278,0.771582604,-1.922606587
13.49,0.229111612,0.770537376,-1.941572905
13.5,0.229412273,1.272116661,-1.598434806
13.51,1.250107884,2.132676125,1.524811745
13.52,1.583810806,1.978025436,2.451117516
13.53,1.695478439,1.591327667,2.746078014
13.54,1.526788831,1.013327599,2.523822784
13.55,0.890100658,0.35892868,1.779550076
13.56,0.880627036,0.35846138,1.745772481
13.57,-0.205549538,-1.466222763,-0.182737574
13.58,-0.201788217,-1.466263771,-0.208495319
13.59,-0.777038693,-2.232290745,-0.287436754
13.6,-1.25793016,-3.852911472,-0.069895469
13.61,-1.103061438,-4.527648449,-0.04159046
13.62,-1.079442859,-4.527050495,-0.060124215
13.63,-1.052868009,-4.885424137,0.08994431
13.64,-0.399605006,-5.384891987,0.113668986
13.65,-0.050930709,-5.355093479,0.005035937
13.66,0.264312923,-5.085733891,-0.052776314
13.67,0.291276693,-5.084456921,-0.073856436
13.68,0.608968794,-4.690477371,-0.11540471
13.69,0.830351591,-3.750537872,-0.316624433
13.7,0.853500724,-3.749116898,-0.336289465
13.71,0.830205441,-3.283254147,-0.467120707
13.72,0.908477545,-2.848624706,-0.391138136
13.73,0.93535459,-2.459681511,-0.527373016
13.74,0.769169509,-1.979937553,-0.675809503
13.75,0.114093095,-0.983205795,-1.088623762
13.76,-0.017099738,-0.659409523,-1.207928061
13.77,-0.168943465,-0.462667465,-0.820896387
13.78,-0.021600664,-0.356941223,-0.497597337
13.79,0.187015742,-0.292050362,-0.504615903
13.8,0.260963261,-0.16746521,-0.887165606
13.81,0.264448792,0.143679619,-1.141342878
13.82,0.269097298,0.14348793,-1.124449372
13.83,0.138485074,0.708386421,-1.069436789
13.84,0.300060958,2.197452545,-0.410445094
13.85,0.258128345,2.573134422,-0.490070701
13.86,0.256126702,2.572922707,-0.485916972
13.87,0.186841816,2.73079586,-0.827459991
13.88,-0.107916057,2.639813423,-1.048303485
13.89,-0.599042058,4.035839081,0.062919781
13.9,0.013162196,5.252242088,0.371228695
13.91,0.010759234,5.25202179,0.374808908
13.92,0.750707686,6.305182457,0.295711815
13.93,-0.323085904,6.343714714,1.821695685
13.94,-0.306381583,6.344652176,1.822800398
13.95,-1.123844862,3.795845032,6.117557049
13.96,-1.113025427,3.796542168,6.115229607
13.97,-0.035992086,-0.087730408,4.524412155
13.98,0.725988388,-1.376495361,3.3304317
13.99,0.668198586,-1.355735779,1.919261336
14,-0.587844431,-0.475188255,1.017135382
14.01,-1.219391346,0.554305077,0.803838491
14.02,-1.525429726,1.512307167,0.513963223
14.03,-1.541199446,1.512769699,0.483844936
14.04,-1.69782424,2.512525558,1.439357877
14.05,-2.533856153,3.621125221,4.08833313
14.06,-2.532085419,3.624275208,4.035267353
14.07,-2.750666142,3.546031952,4.434908867
14.08,-1.916049004,2.722291946,3.332155228
14.09,-0.359516144,0.307715416,0.839733839
14.1,-0.353938282,0.308792114,0.828508139
14.11,-0.312373638,-0.568767548,0.494134307
14.12,-0.194835901,-1.302904129,0.405753017
14.13,0.638698578,-2.794091702,0.060388684
14.14,0.623799503,-2.794168949,0.051061332
14.15,0.964147329,-3.194691181,-0.312270433
14.16,0.513287604,-3.684196949,-0.250366777
14.17,0.418167353,-3.580255508,-0.374221504
14.18,0.417310953,-3.711406231,-0.478058845
14.19,0.399145544,-3.713726521,-0.456576854
14.2,0.46221748,-3.752161026,-0.427693784
14.21,0.706768394,-3.843449116,-0.415553421
14.22,0.448112696,-3.592364311,-0.585783541
14.23,0.100067303,-3.281353951,-0.743804693
14.24,-0.126574993,-3.05889082,-0.844206452
14.25,-0.300619632,-2.891346455,-0.896547198
14.26,-0.321172655,-2.893645763,-0.86235249
14.27,-0.570991278,-2.677900314,-0.953416228
14.28,-1.192273617,-2.385381222,-0.92934525
14.29,-1.198929667,-2.387055874,-0.889901876
14.3,-1.082719803,-2.242455006,-0.236406401
14.31,-0.933213055,-2.33700943,0.02534616
14.32,-0.925810456,-2.337997437,0.069490224
14.33,-0.24818559,-2.417791367,-0.254134923
14.34,-0.240085661,-2.418311119,-0.210409999
14.35,0.125675261,-2.117010117,-0.308789611
14.36,0.54164505,-1.020734787,-0.443044275
14.37,0.537342966,-1.020983696,-0.42136386
14.38,0.018965468,0.551848412,0.242210075
14.39,-0.193242729,1.310605049,0.52321738
14.4,-0.81044519,1.741288185,0.684923291
14.41,-1.481137514,1.673986435,0.719497085
14.42,-2.57686758,1.199720383,0.550383329
14.43,-2.58041954,1.199703217,0.540969789
14.44,-3.704910755,0.778556824,-1.32616961
14.45,-3.677009583,0.779117584,-1.305772185
14.46,-0.849403501,2.54205513,-2.593483925
14.47,0.710402131,3.814152718,-1.532444715
14.48,0.718491912,3.814540863,-1.506044507
14.49,2.39650321,6.393199921,0.731074035
14.5,2.384953022,6.392861366,0.73325026
14.51,3.811667919,8.065923691,3.275010347
14.52,3.221425295,7.497842789,5.487246513
14.53,3.206897736,7.497383118,5.468827724
14.54,0.283991516,3.290496826,7.725876808
14.55,-0.382357538,0.197374344,4.971941471
14.56,-0.378556848,0.197666168,4.99861002
14.57,0.170255661,-3.060576439,-3.733335972
14.58,0.326398045,-2.597865582,-4.820670605
14.59,0.572618246,-1.184473038,-3.068434
14.6,1.279825091,0.228487968,-1.452154279
14.61,1.70422852,1.549618721,-0.009478316
14.62,2.007797956,2.813142776,2.103928328
14.63,1.513131022,3.756163597,4.725081444
14.64,1.499643087,3.756692886,4.62719202
14.65,1.143686056,3.791855812,6.536015034
14.66,1.048988938,0.926184654,6.690777779
14.67,1.230710626,-0.752464294,3.461455822
14.68,0.440245688,-2.027128696,0.06768024
14.69,0.437795341,-2.026040554,0.043928027
14.7,-1.145277023,-3.497553349,-3.392719269
14.71,-1.139777064,-3.640227795,-2.540156364
14.72,-0.700556099,-3.593171597,-1.081851244
14.73,-0.018298596,-3.341988564,-0.059204817
14.74,0.300135255,-2.877696514,0.808397412
14.75,0.47030282,-2.382291794,1.451185703
14.76,0.66096431,-1.968539715,1.362038493
14.77,0.586267114,-1.571904182,1.245978594
14.78,0.799378991,-1.400654793,0.960271537
14.79,1.007519245,-1.291827202,0.676332176
14.8,1.026110768,-1.298009872,0.797464252
14.81,1.10689652,-1.215437889,1.169671535
14.82,1.274883866,-1.103919983,1.303434134
14.83,1.266013861,-1.102380753,1.281011462
14.84,1.604527593,-0.87550354,2.347833395
14.85,1.542923808,-0.72483635,2.08848238
14.86,1.56179142,-0.447523117,1.627343416
14.87,1.380084157,-0.136990547,1.242857337
14.88,1.361828923,-0.13557148,1.224256039
14.89,0.412367851,0.598156929,0.473076463
14.9,0.008826863,0.967761993,0.086657882
14.91,-0.03491788,0.97248745,0.040527225
14.92,-0.702418387,1.321658134,-0.01128912
14.93,-0.654652476,1.35549736,-0.246438384
14.94,-0.656784058,1.354410172,-0.236638308
14.95,-0.616687119,1.392921448,-0.668913961
14.96,-0.276432902,1.577292442,-0.553234339
14.97,-0.279433698,1.575104713,-0.532242894
14.98,-0.21100086,1.515589714,-0.387593746
14.99,-0.767914295,1.324666977,0.132704258
15,-1.359682322,0.432369232,0.429177463
15.01,-1.335933924,0.430651665,0.4473508
15.02,-1.248021841,-0.672299385,0.063186646
15.03,-0.938632667,-1.217222214,-0.239256442
15.04,-0.414288014,-1.563954353,-0.28061825
15.05,0.22707054,-1.908013344,0.089451015
15.06,0.398554504,-2.021896362,0.386333883
15.07,0.188460961,-1.809809208,0.433371067
15.08,-0.173136696,-1.37739563,0.070890963
15.09,-0.527592182,-0.863580704,-0.494589955
15.1,-0.517682672,-0.864603043,-0.479876906
15.11,-1.063435078,-0.039492607,-1.393144727
15.12,-1.059210062,-0.040240288,-1.382771254
15.13,-0.606134355,0.122282982,-0.373791128
15.14,-0.492406607,0.205867767,0.071000814
15.15,-0.495253235,0.205375671,0.076807141
15.16,-0.873185515,0.328917503,-0.41571489
15.17,-0.956591129,0.210270882,-0.768336594
15.18,-0.951612353,0.208735466,-0.745812953
15.19,-1.157252073,0.046875954,-1.321671963
15.2,-1.148479342,0.045700073,-1.301613331
15.21,-1.081635594,0.14061451,-0.572332025
15.22,-1.072478533,0.140124321,-0.561593294
15.23,-0.644037247,0.077599525,0.37677455
15.24,-0.638693094,0.077316284,0.383252323
15.25,-0.633753002,0.077013016,0.528967857
15.26,-0.831818104,0.038383484,0.390236557
15.27,-1.124697208,-0.18223381,-0.556739211
15.28,-1.114844441,-0.395562172,-0.38694042
15.29,-1.107296228,-0.395553589,-0.383604825
15.3,-0.835799933,-0.67315197,-0.138966441
15.31,-0.658208907,-1.048172951,-0.210728467
15.32,-0.501099587,-0.994494438,-0.317729652
15.33,-0.551136792,-0.655887604,-0.715470731
15.34,-0.47971803,-0.384595871,-0.935901761
15.35,-0.337720305,0.042037964,-0.601350486
15.36,-0.419916958,0.466329575,-0.331307739
15.37,-0.400735855,0.466856957,-0.322977155
15.38,-0.282551944,1.113814354,0.384500384
15.39,-0.2716344,1.114253998,0.387178451
15.4,-0.256176472,0.908643723,0.74691546
15.41,-0.476280749,0.513521195,-0.02575469
15.42,-0.597105265,0.075195313,-0.603712022
15.43,-0.577267051,0.075031281,-0.573831201
15.44,-0.535477102,-0.583460808,-0.949500859
15.45,-0.342818439,-0.760479927,-0.774380148
15.46,-0.143070519,-0.793735504,-0.686999857
15.47,-0.064476311,-0.585094452,-0.628595948
15.48,0.023825884,-0.381233215,-0.310763747
15.49,-0.034522772,-0.198885918,0.108463764
15.5,-0.027368307,-0.19844532,0.110314965
15.51,-0.225987852,0.046295166,0.354344428
15.52,-0.426579118,0.267062187,0.344493359
15.53,-0.071162999,0.224093437,-0.340007544
15.54,-0.065991104,0.224133492,-0.327923387
15.55,-0.165528178,0.207481384,-0.347766608
15.56,-0.198592663,0.083119392,-0.311750889
15.57,0.103563905,-0.010284424,-0.52750504
15.58,0.164656699,0.047074318,-0.376093328
15.59,0.16426599,0.046973228,-0.372648418
15.6,0.227267802,0.044403076,-0.12649256
15.61,0.275316179,0.013079643,0.059115976
15.62,0.14640677,0.046415329,0.410159826
15.63,0.229960173,-0.037668228,0.119821668
15.64,0.225133449,-0.038245201,0.130308211
15.65,0.331814826,-0.175403595,-0.370030165
15.66,0.387745738,-0.216789246,-0.406998932
15.67,0.377593309,-0.195977211,-0.545813322
15.68,0.361491859,-0.089029312,-0.490313828
15.69,0.351856768,-0.089884758,-0.480824024
15.7,-0.027001321,0.041163445,-0.212930143
15.71,-0.032929957,0.040637016,-0.205290765
15.72,-0.187653184,0.167163849,-0.192178369
15.73,0.096464694,0.200329781,0.200133041
15.74,0.173520267,0.037115097,0.30571866
15.75,0.169275045,0.036715508,0.316219866
15.76,0.0948717,-0.030613899,0.385142624
15.77,0.167460442,-0.117024422,-0.124864325
15.78,0.161359102,-0.244138718,-0.645159066
15.79,0.160903424,-0.244277,-0.626665413
15.8,0.007305562,-0.227599144,-0.575608969
15.81,-0.187013269,-0.16063118,-0.072972938
15.82,-0.067169249,-0.105711937,-0.055912554
15.83,-0.076373339,-0.017255783,0.131464392
15.84,-0.313533366,0.090474129,0.334028155
15.85,-0.485717356,0.143309593,0.329898268
15.86,-0.377953827,0.119680405,0.179014474
15.87,-0.080256522,-0.016432762,-0.094494559
15.88,0.031951427,-0.181303024,-0.33368662
15.89,0.035904109,-0.180976868,-0.316696495
15.9,0.06779927,-0.269275665,-0.277833074
15.91,-0.070885241,-0.290556908,-0.404118568
15.92,-0.257745266,-0.225682259,-0.38862592
15.93,-0.25503087,-0.225442886,-0.381397128
15.94,-0.324303687,-0.045646667,-0.113411419
15.95,-0.267344534,-0.00017643,-0.094507828
15.96,-0.415590227,0.105406761,-0.05359637
15.97,-0.411687672,0.105735779,-0.047501013
15.98,-0.370258033,0.041558266,-0.15272969
15.99,-0.195556283,-0.123196602,-0.34897396
16,-0.160204172,-0.249651909,-0.472470641
16.01,-0.155715942,-0.249192238,-0.462014675
16.02,-0.175091028,-0.351691246,-0.458065987
16.03,-0.00595361,-0.253130913,-0.300129235
16.04,0.077649832,-0.161912918,-0.156283289
16.05,0.078267694,-0.16181469,-0.153298318
16.06,0.087381959,-0.046898842,-0.046430647
16.07,-0.216730237,0.044092178,0.444672644
16.08,-0.218276322,0.044010162,0.446071446
16.09,0.203834355,-0.078295708,-0.190303683
16.1,0.084947705,-0.083235741,-0.298047364
16.11,0.081607997,-0.083369255,-0.292395771
16.12,0.056143701,-0.083571434,-0.285532117
16.13,0.042047679,-0.033522606,-0.126478657
16.14,-0.160921991,0.042834282,-0.21211338
16.15,-0.44204104,0.12885952,-0.321806371
16.16,-0.442851007,0.12887001,-0.318989694
16.17,-0.597581625,0.267869949,-0.289377093
16.18,-0.51019305,0.282382011,-0.118611187
16.19,-0.176794648,-0.06707859,0.338541329
16.2,-0.035597861,-0.246591568,0.372904956
16.21,0.062980592,-0.244096756,0.189520463
16.22,0.065800607,-0.243802071,0.193590403
16.23,-0.119211912,-0.200267792,-0.446306765
16.24,-0.168247104,0.041946411,-0.282303363
16.25,-0.082391024,0.044508934,0.302415103
16.26,0.046241224,0.053958893,0.607459903
16.27,0.108976662,0.036994934,0.483371019
16.28,0.007235706,0.03453064,0.205964521
16.29,0.007773042,0.034626961,0.208031699
16.3,-0.186526716,-0.029817581,0.076816604
16.31,-0.081865966,-0.067882538,-0.272946
16.32,0.098145962,-0.098846436,-0.422916651
16.33,0.096481562,-0.09882164,-0.417171687
16.34,0.144651473,-0.082109451,-0.293572307
16.35,0.167962968,-0.012818336,-0.044370919
16.36,-0.112682283,0.046933174,0.212805957
16.37,-0.084250927,0.044470787,0.227133691
16.38,0.030196607,-0.020176888,0.009018719
16.39,-0.006790936,-0.12309742,-0.29024744
16.4,-0.009992063,-0.123057365,-0.281359166
16.41,-0.103979409,-0.135043144,-0.155596584
16.42,-0.195232689,-0.05616188,0.071580082
16.43,-0.243100882,0.022685051,0.169358969
16.44,-0.218798399,0.044095039,0.190813914
16.45,-0.19167459,0.044005394,0.198483378
16.46,-0.188063085,-0.003935814,0.251997709
16.47,-0.054888368,-0.051860809,0.166409954
16.48,-0.056443632,-0.051929474,0.167850748
16.49,0.037427783,-0.028051376,-0.138910592
16.5,0.040815532,0.043715477,0.04153353
16.51,-0.015339553,0.043613434,0.249017268
16.52,-0.016161799,0.043516159,0.247334749
16.53,-0.021662474,0.043421745,0.253344297
16.54,-0.060820937,0.064927101,0.246418238
16.55,-0.061639547,0.064890862,0.247163534
16.56,-0.031722128,0.050486565,0.221795246
16.57,0.102870941,0.043243408,0.226205677
16.58,0.127668381,0.043214798,0.195537344
16.59,-0.073310316,-0.035699844,0.186054826
16.6,-0.232499063,-0.090611458,0.116742313
16.61,-0.469636321,-0.020915031,-0.30863604
16.62,-0.264110506,-0.051795006,-0.051641494
16.63,-0.263672829,-0.051742554,-0.050734937
16.64,-0.061311781,-0.121296883,0.388358176
16.65,-0.062001228,-0.121368408,0.387800992
16.66,0.10759145,-0.274644852,0.336879641
16.67,-0.127295852,-0.14539814,-0.011442602
16.68,-0.126014769,-0.145298958,-0.010600746
16.69,-0.208840072,0.043956757,-0.25841412
16.7,-0.080502808,0.137210846,0.364874125
16.71,-0.08340627,0.136893272,0.361029208
16.72,-0.103475571,0.083856583,0.490735978
16.73,-0.121328592,0.042796135,0.364191055
16.74,-0.124132395,0.042509079,0.360666901
16.75,-0.204558015,0.02799511,0.251363695
16.76,-0.321918428,-0.01749897,0.042985082
16.77,-0.198528707,-0.079629898,-0.05658412
16.78,-0.085156381,-0.086730003,-0.021493316
16.79,0.020256877,-0.045964241,0.123482361
16.8,-0.135559082,0.042602539,0.255474627
16.81,0.034928501,0.047447205,0.291438937
16.82,0.034345925,0.047491074,0.294527918
16.83,0.165139467,0.042798996,0.260879815
16.84,0.054127514,0.042925835,0.09662877
16.85,-0.016644716,-0.074295044,-0.113221049
16.86,-0.019353807,-0.074318886,-0.108504146
16.87,-0.011376798,-0.119952202,-0.072060198
16.88,-0.034581304,-0.05318737,0.021069318
16.89,-0.038493454,-0.053521156,0.018497109
16.9,-0.132570505,0.058671951,0.363639116
16.91,-0.245199561,0.046408653,0.438527286
16.92,-0.227137566,0.039055824,0.263667285
16.93,-0.174342334,-0.0519104,-0.006902009
16.94,-0.233642757,-0.061392784,-0.050581992
16.95,-0.177734792,-0.027807236,0.028759778
16.96,-0.177728355,-0.027812004,0.028459936
16.97,0.053708673,0.029571533,0.226293564
16.98,0.052302003,0.029449463,0.225433499
16.99,0.11289984,0.026949883,0.26846832
17,0.023349404,0.014964104,0.262752205
17.01,-0.02011615,0.019784927,0.192939296
17.02,-0.020546913,0.019845963,0.195194945
17.03,-0.107507348,-0.023228645,0.046510398
17.04,-0.065984607,-0.004110336,0.098682493
17.05,-0.042605102,-0.044988632,0.074970424
17.06,-0.179507136,0.041032791,0.065490723
17.07,-0.166822255,0.055304527,0.104240924
17.08,0.011310995,0.040920258,0.28311488
17.09,0.14301914,-0.014230728,0.344814986
17.1,0.006060958,0.002422333,0.128935829
17.11,-0.203336775,-0.052602768,0.117897928
17.12,-0.202963829,-0.052495956,0.12026909
17.13,-0.125592589,-0.018928528,0.383900046
17.14,-0.086398482,-0.030766487,0.292882532
17.15,-0.066782176,0.022158623,-0.146519274
17.16,-0.060757637,0.022259712,0.164657891
17.17,-0.037715852,0.031604767,0.371967018
17.18,0.077886939,0.038438797,0.328674972
17.19,0.07348305,0.038095474,0.326549351
17.2,-0.027546227,0.04024601,0.379623473
17.21,-0.114726424,0.02342701,0.104043737
17.22,-0.05745548,-0.043492317,-0.122244895
17.23,-0.043180048,-0.134289742,-0.021232873
17.24,-0.0025177,-0.083860397,0.098077565
17.25,0.032434881,-0.052647591,0.0179829
17.26,0.031085968,-0.052576065,0.021954209
17.27,0.146445364,-0.002305984,0.33615911
17.28,0.153108954,-0.00714016,0.334807634
17.29,0.150230885,-0.007116318,0.339276612
17.3,0.070747465,0.016819,0.303117633
17.31,0.064903796,-0.055034637,0.209252939
17.32,0.089924216,-0.064665794,0.031395912
17.33,-0.207399726,0.026302338,0.027741343
17.34,-0.209304392,0.026276588,0.029596418
17.35,-0.256465077,0.021447182,0.114530414
17.36,-0.071456313,-0.083982468,0.189566314
17.37,0.025109708,-0.09840107,0.183205813
17.38,-0.11984092,-0.048174858,0.277020723
17.39,-0.172204554,-0.002671242,0.281846225
17.4,-0.109144568,0.004555702,0.039959222
17.41,-0.108699203,0.004636765,0.040985346
17.42,-0.163137376,0.040578842,-0.011357635
17.43,-0.095708489,0.014240265,0.253351927
17.44,-0.0596627,-0.009789467,0.258398265
17.45,0.069426,-0.052967072,0.240181133
17.46,0.040165305,-0.081753731,0.201023787
17.47,-0.043878973,-0.053014755,0.129777372
17.48,-0.043689191,-0.052921295,0.131833613
17.49,-0.131974101,-0.036074638,0.097761631
17.5,-0.16297096,-0.06227684,-0.16519919
17.51,-0.163278818,-0.062231064,-0.163531184
17.52,-0.120594561,0.040758133,-0.085758716
17.53,-0.120592356,0.04076767,-0.085344106
17.54,-0.108292639,0.079092979,0.079797477
17.55,0.011833191,0.062281609,0.758148789
17.56,-0.073874056,0.016735077,0.358469904
17.57,-0.224900782,-0.023762703,0.159542233
17.58,-0.221065462,-0.023418427,0.162252545
17.59,-0.331450999,-0.092497826,-0.254322887
17.6,-0.286649466,-0.108878136,-0.341639191
17.61,-0.075706542,-0.103791237,-0.132146984
17.62,0.019872248,-0.043893814,0.285296142
17.63,-0.08434689,0.042074203,0.43018204
17.64,-0.099461496,0.065789223,0.408979386
17.65,-0.094874263,0.041666985,0.288000435
17.66,-0.094424784,0.041621208,0.286240161
17.67,-0.085977912,0.0417099,0.082821578
17.68,-0.005349874,-0.001204491,0.077939183
17.69,-0.047563791,0.001373291,0.243911997
17.7,0.04441762,0.023100853,0.25881958
17.71,-0.005384624,0.042411804,0.218805835
17.72,-0.090695143,0.042607307,0.315520614
17.73,0.001564622,0.04278183,0.322487295
17.74,0.002243817,0.042913437,0.324933201
17.75,0.021807313,0.028747559,0.182572126
17.76,-0.087357819,0.014631271,-0.088112384
17.77,-0.00054127,0.036396027,-0.012000829
17.78,-0.00044775,0.036535263,-0.009178162
17.79,-0.066201925,-0.006435394,0.240729064
17.8,-0.352772892,0.039248466,0.401362896
17.81,-0.273931801,-0.010696411,0.165465713
17.82,-0.154628992,-0.060559273,-0.02497828
17.83,-0.150552988,-0.060120583,-0.020771295
17.84,-0.205651999,-0.057317734,0.092068166
17.85,-0.157651067,-0.068875313,-0.034819901
17.86,-0.153926492,-0.06855011,-0.032703698
17.87,0.028593481,0.046608925,0.109761357
17.88,0.030164838,0.046683311,0.109190583
17.89,0.005305052,0.046711922,0.495587051
17.9,0.067143381,0.046739578,0.402642757
17.91,0.078144252,0.008571625,0.291357428
17.92,0.053000152,-0.012776375,0.243539497
17.93,0.020371377,-0.060482025,0.078882545
17.94,-0.072492838,-0.033896446,-0.093690544
17.95,-0.126841784,-0.045503616,-0.180563659
17.96,-0.126276732,-0.045140266,-0.173776448
17.97,-0.102698863,-0.0688591,-0.128141254
17.98,-0.162930965,-0.044768333,-0.000174642
17.99,-0.084186137,0.048692703,0.169621229
18,-0.08480984,0.048751831,0.171433538
18.01,-0.006870449,0.048727989,0.440347493
18.02,-0.020246029,-0.090248108,0.485488862
18.03,-0.061509848,-0.157240868,0.352903277
18.04,-0.12338239,-0.121274948,0.171696693
18.05,-0.279570818,-0.087591171,-0.157935411
18.06,-0.277173579,-0.087330818,-0.155615389
18.07,0.018389106,-0.070288658,-0.242498577
18.08,0.015268624,-0.070518494,-0.243127704
18.09,0.03306216,0.048731804,0.386804372
18.1,-0.023463428,0.160775185,0.477951407
18.11,-0.174565136,0.150920868,0.370293528
18.12,-0.215457916,0.138940811,0.123516738
18.13,-0.250251234,0.048136711,-0.120695651
18.14,-0.173652947,-0.001716614,-0.079203844
18.15,-0.171417713,-0.001261711,-0.07326746
18.16,-0.047240198,-0.113367081,0.071568102
18.17,0.043204427,-0.084223747,0.256816715
18.18,0.05485177,-0.078969955,0.193796873
18.19,0.004935801,-0.047301292,0.207589299
18.2,-0.073898673,0.00104332,0.297030926
18.21,0.025886714,-0.072827339,0.155548632
18.22,0.069516301,-0.113214493,-0.071624756
18.23,-0.06721133,-0.05788517,-0.049976647
18.24,-0.067446172,-0.057704926,-0.046543181
18.25,-0.20144695,0.050149918,0.185087889
18.26,-0.201801479,0.050146103,0.185550243
18.27,-0.120888293,0.028590202,0.243500859
18.28,-0.121147394,0.028614044,0.244462162
18.29,-0.173587263,0.009551048,0.121174753
18.3,-0.173167586,0.009694099,0.123017371
18.31,-0.068016231,-0.030856133,-0.055949271
18.32,0.034313798,-0.042681694,-0.014418423
18.33,0.032719195,-0.042619705,-0.011537254
18.34,0.023482382,-0.042625427,0.18456009
18.35,0.099639654,-0.016342163,0.296734244
18.36,0.067982912,-0.018781662,0.193783045
18.37,0.065528095,-0.018759727,0.196796119
18.38,-0.029805005,0.002848625,0.132723957
18.39,-0.022287011,-0.006715775,0.17120865
18.4,-0.019637108,0.041192055,0.262285799
18.41,-0.045879483,0.050746918,0.247613102
18.42,-0.040419996,0.048392296,0.168812722
18.43,-0.147214353,-0.032891274,0.054655492
18.44,-0.147922039,-0.032728195,0.05816561
18.45,-0.238654196,-0.001385689,-0.053281784
18.46,-0.255245149,0.053872108,-0.050492048
18.47,0.048310459,0.006094933,0.196024299
18.48,0.134598941,-0.025108337,0.515608192
18.49,0.132210165,-0.025291443,0.514866054
18.5,0.128281385,-0.082978249,0.682835698
18.51,-0.029473364,-0.08066082,0.082557082
18.52,-0.016470313,-0.063706398,-0.485008359
18.53,0.048697948,-0.024943352,-0.224642038
18.54,0.06341964,0.054019928,0.306047291
18.55,0.110420406,0.056092262,0.555348277
18.56,0.10653162,0.055642128,0.551681459
18.57,-0.123521805,0.05286026,0.397306055
18.58,-0.108375728,0.045435905,0.229736805
18.59,-0.109240115,-0.009672165,0.107719392
18.6,-0.109318852,-0.009552956,0.109804243
18.61,0.044053018,-0.107502937,0.055561066
18.62,0.137108862,-0.090551376,0.250540942
18.63,0.014126837,-0.044961929,0.432464004
18.64,0.014205754,-0.04488945,0.433506787
18.65,-0.202598572,-0.020785332,0.021203995
18.66,-0.200383127,-0.020343781,0.025853753
18.67,-0.233968914,0.054337502,-0.198731184
18.68,-0.160402894,0.066741943,-0.081152141
18.69,-0.159135819,0.067077637,-0.077182949
18.7,-0.079018831,0.067314148,0.325506419
18.71,-0.049001157,0.062745094,0.365914166
18.72,-0.097358704,0.027137756,0.402145088
18.73,0.012816727,-0.077942848,0.229407579
18.74,0.014302254,-0.077670097,0.231998771
18.75,0.063432097,-0.137272835,0.088860989
18.76,-0.057356656,-0.192119598,0.030973494
18.77,-0.053957164,-0.136859894,-0.12034297
18.78,-0.127912104,-0.067263603,-0.067815721
18.79,-0.14455837,0.057315826,0.026633263
18.8,-0.013368785,0.057311058,0.127417326
18.81,0.100192189,0.057262421,0.178333283
18.82,0.124866813,0.004566193,0.366200388
18.83,0.090258718,-0.086380959,0.324589431
18.84,0.015436769,-0.141366959,0.158929229
18.85,-0.044578373,-0.131626129,0.056114018
18.86,-0.097509146,-0.081222534,0.142019928
18.87,-0.023615599,-0.059593201,0.262958199
18.88,0.030412614,-0.117067337,0.247052699
18.89,0.029256701,-0.117086411,0.247867316
18.9,-0.181796908,-0.124175072,0.005409777
18.91,-0.237012267,-0.061821938,-0.053028405
18.92,-0.160378337,0.007651329,0.029106855
18.93,0.104004204,-0.014000893,0.237187207
18.94,0.171300352,-0.03122139,0.555294991
18.95,0.159465909,-0.012704849,0.758151233
18.96,0.076290667,-0.011030197,0.507059574
18.97,0.073643923,0.0291996,0.066500306
18.98,-0.050110459,0.055363655,-0.229158282
18.99,-0.025185823,0.05540657,-0.062048018
19,0.016729891,0.04322052,0.342437118
19.01,-0.112060309,0.054753304,0.619559407
19.02,-0.124900937,-0.005649567,0.542419374
19.03,-0.160690785,-0.075532913,0.123281658
19.04,-0.262386501,-0.058980942,0.08521235
19.05,-0.206960738,-0.123716354,0.126828849
19.06,-0.206163585,-0.123677254,0.126641214
19.07,-0.004494905,-0.147527695,0.058070123
19.08,0.088955462,-0.180962563,0.147913992
19.09,0.088196576,-0.180924416,0.148981929
19.1,0.089694381,-0.161838532,0.309230119
19.11,-0.069269836,-0.039774895,0.191908032
19.12,-0.069722831,-0.039730072,0.193155974
19.13,-0.032579124,0.05369091,0.151587784
19.14,-0.070527971,0.053694725,0.064975202
19.15,-0.19658494,0.072924614,0.079262674
19.16,-0.245671332,0.053777695,0.140413523
19.17,-0.234504461,0.041761398,0.066310942
19.18,-0.235291481,0.041725159,0.066355526
19.19,-0.135800481,-0.02295208,0.131385863
19.2,-0.136340439,-0.023020744,0.130912602
19.21,-0.072064698,-0.042266846,0.294868469
19.22,-0.062185645,-0.066226006,0.184345067
19.23,-0.078461051,-0.070975304,0.105442524
19.24,-0.054235399,-0.066152573,0.048322856
19.25,-0.054467022,-0.066157341,0.048488796
19.26,-0.040839136,-0.008773804,0.21549651
19.27,-0.137435079,-0.006538391,0.350215703
19.28,-0.046760082,-0.032989502,0.162081063
19.29,-0.107515931,-0.044956207,0.038346112
19.3,-0.208787441,-0.042502403,0.03744179
19.31,-0.130381525,-0.073579788,0.00988549
19.32,-0.131940424,-0.073580742,0.011223316
19.33,-0.084252417,-0.064052582,0.077320099
19.34,-0.029854774,-0.004309654,0.195418
19.35,0.250902474,-0.009271622,0.031015515
19.36,0.245078266,-0.009466171,0.032998979
19.37,-0.133052945,0.052595139,0.203527957
19.38,-0.134708762,0.052443504,0.202878445
19.39,-0.205821693,0.078756332,0.084089696
19.4,0.30327335,0.040346146,0.240566284
19.41,0.285807014,-0.000704765,0.517487705
19.42,0.182610899,-0.058689117,0.702845991
19.43,0.130997926,-0.066509247,0.571527958
19.44,0.129079968,-0.066913605,0.56660521
19.45,-0.199404001,-0.021439552,-0.536845684
19.46,-0.131198466,0.045596123,-0.13367945
19.47,-0.093997329,0.049985886,0.42772156
19.48,-0.098573565,0.049278259,0.573672414
19.49,-0.040476322,0.051074982,0.46235922
19.5,0.049501985,0.005132675,0.139423311
19.51,-0.101340443,0.009693146,0.082426488
19.52,-0.163884729,0.047892571,0.128924757
19.53,-0.163102359,0.047865868,0.127806574
19.54,-0.178550482,0.04791832,0.182791203
19.55,-0.017424285,-0.026134491,0.242326796
19.56,-0.01703909,-0.025972366,0.244713664
19.57,0.078794718,-0.054455757,0.080696821
19.58,0.078261495,-0.054211617,0.085215032
19.59,0.01496464,-0.106677055,0.199413031
19.6,-0.033983827,-0.077837944,0.108413875
19.61,-0.035675287,-0.077813149,0.110027611
19.62,-0.176798433,0.046610832,0.218430519
19.63,-0.097390413,0.041717529,0.067432165
19.64,-0.099804044,0.041669846,0.068444073
19.65,-0.259480685,0.065676689,0.036958158
19.66,-0.222133786,0.063310623,0.136527121
19.67,-0.127001733,0.087327957,0.228904098
19.68,-0.12774685,0.08743,0.231028527
19.69,0.041049868,-0.027380943,0.193163097
19.7,-0.003315061,-0.020073891,0.265336514
19.71,-0.027938634,-0.039132118,0.293585926
19.72,-0.028149933,-0.039048195,0.29493627
19.73,-0.01882273,-0.098786354,0.117295504
19.74,-0.05746606,-0.069893837,0.026541054
19.75,0.042435318,-0.043474197,0.200651437
19.76,0.00023526,0.049847603,0.382845074
19.77,-0.000568748,0.049840927,0.383248359
19.78,-0.03906402,0.049999237,0.234932184
19.79,-0.039143533,0.050286293,0.239334583
19.8,-0.099149317,0.050642014,0.026760995
19.81,-0.118415594,0.012598991,-0.00269115
19.82,-0.112032235,-0.013525009,0.003132939
19.83,-0.113245279,-0.013375282,0.006172538
19.84,-0.09038496,-0.07078743,0.074647486
19.85,-0.210023552,0.04186058,-0.10332495
19.86,-0.209839135,0.042021751,-0.101052344
19.87,0.050871432,-0.118345261,0.464737266
19.88,0.049023628,-0.118532181,0.463404268
19.89,-0.005505234,-0.157034874,0.351902872
19.9,0.089176208,-0.1739645,0.462651134
19.91,0.087963462,-0.174271584,0.459053755
19.92,0.087137222,-0.07859993,0.062971473
19.93,-0.002466977,0.055481911,-0.209226966
19.94,-0.000333488,0.177330971,0.511869311
19.95,-0.040441126,0.068950653,0.617945552
19.96,-0.135600805,0.061094284,0.450387925
19.97,-0.13851288,0.060588837,0.444595367
19.98,-0.302675933,-0.001987457,0.112826347
19.99,-0.313671708,0.005145073,-0.063503504
20,-0.256426632,-0.0019207,0.04681462
20.01,-0.131449193,-0.006556511,0.260318548
20.02,-0.018844128,0.000760078,0.33964482
20.03,-0.01662001,0.000908852,0.340621263
20.04,0.073910832,0.02989006,0.072475791
20.05,0.07557714,0.030217171,0.076038897
20.06,0.139086306,0.028053284,0.241426736
20.07,0.077688009,-0.017267227,0.200173229
20.08,0.006426752,0.006834984,0.118565321
20.09,-0.012472183,-0.000219345,0.134651899
20.1,-0.055890888,-0.026516914,0.137621224
20.11,-0.056703091,-0.026549339,0.13783282
20.12,-0.159982026,-0.028977394,0.135112524
20.13,-0.155230314,-0.057709694,0.118339002
20.14,-0.112460852,-0.052923203,0.013339281
20.15,-0.057848752,-0.07926178,0.015871406
20.16,-0.099155128,-0.012280464,0.264582962
20.17,-0.085263789,0.004237175,0.404883117
20.18,-0.085903406,0.003892899,0.400109917
20.19,0.061654627,0.044278145,0.314680308
20.2,0.06078282,0.044039726,0.311684758
20.21,-0.049874902,0.000817299,0.144835889
20.22,-0.064683318,-0.018440247,0.086142659
20.23,-0.069556236,-0.099951744,0.130322099
20.24,-0.05326727,-0.037864685,0.214260876
20.25,-0.022788167,0.00978756,0.352586627
20.26,0.081705779,0.00475502,0.416271329
20.27,0.116100282,0.028399467,0.355417252
20.28,0.006910354,0.047326088,0.218800366
20.29,0.006079584,0.047199249,0.21753639
20.3,-0.095066786,0.047125816,0.163868964
20.31,-0.069419503,-0.046286583,0.032166243
20.32,-0.241888374,0.049551964,-0.129603386
20.33,-0.124280602,0.047218323,0.160840482
20.34,0.176107973,-0.043911934,0.492441803
20.35,0.106153846,-0.116038322,0.487201154
20.36,-0.13295877,-0.111521721,0.367201179
20.37,-0.171295255,-0.054201126,0.295499116
20.38,-0.052873671,-0.032726288,0.09005481
20.39,-0.044897228,-0.025525093,-0.245311141
20.4,-0.018873632,0.005690575,-0.10722363
20.41,0.093520135,0.00310421,0.308144808
20.42,0.163187474,0.002571106,0.535228849
20.43,0.157818198,0.001885414,0.527685165
20.44,-0.140593469,0.044314384,0.416668147
20.45,-0.107219249,0.041439056,0.132928938
20.46,-0.160783619,0.038779259,0.014315546
20.47,-0.117705435,0.014748573,0.034350336
20.48,-0.12923035,-0.035541534,0.172794461
20.49,-0.052109122,-0.009176254,0.259161323
20.5,0.010698944,-0.018671036,0.145155639
20.51,0.010947645,-0.01847744,0.1480349
20.52,-0.100714952,0.022453308,0.113035291
20.53,0.002971709,-0.06833744,0.134820849
20.54,0.009818405,0.003635406,0.096731603
20.55,-0.129703879,-0.005857468,0.210850805
20.56,-0.130232722,-0.005888939,0.210779518
20.57,-0.066649675,0.00121212,0.140680283
20.58,-0.184914321,0.010739326,0.090291381
20.59,-0.245209158,-0.018007278,0.07834518
20.6,-0.259185612,-0.037143707,0.128787071
20.61,-0.160288513,-0.063485146,0.164191932
20.62,-0.150256395,-0.00604248,0.213870585
20.63,-0.149788916,-0.006084442,0.212684214
20.64,-0.035001963,0.039326668,0.199387342
20.65,-0.023213148,0.039194107,0.238250315
20.66,0.01037541,0.048665047,0.327442944
20.67,0.010717064,0.048609734,0.326115727
20.68,-0.067185193,0.043836594,0.201125115
20.69,-0.037293136,-0.030262947,-0.022707164
20.7,-0.058007658,-0.063589096,-0.060827672
20.71,-0.141122222,-0.0490942,0.135033578
20.72,-0.140075952,-0.049037933,0.134858936
20.73,-0.156108886,-0.025156975,0.320275724
20.74,0.016122133,-0.006038666,0.221806675
20.75,0.01528421,-0.006046295,0.22231105
20.76,0.014368147,0.013057709,0.355959475
20.77,-0.043884456,0.024923325,0.261331797
20.78,-0.044857234,0.024846077,0.260764539
20.79,-0.139427096,-0.003901482,0.007715344
20.8,-0.125443757,0.044028282,0.049222052
20.81,-0.04689765,0.044073105,0.131799102
20.82,-0.047855109,0.044092178,0.13271296
20.83,0.098758191,-0.013477325,0.388252348
20.84,-0.129597217,-0.006355286,0.213056624
20.85,-0.128733605,-0.006282806,0.213711679
20.86,-0.245910347,0.044126511,0.312381268
20.87,-0.10691303,0.00606823,0.168643892
20.88,-0.071700513,-0.017498016,-0.151922107
20.89,0.070127934,0.023417473,0.25807327
20.9,0.073895752,0.044851303,0.546452582
20.91,-0.070627421,0.068505287,0.561862707
20.92,-0.115718842,0.053943634,0.345073611
20.93,-0.113991559,0.053954124,0.344118089
20.94,-0.156821013,0.044599533,0.068176508
20.95,-0.091118723,-0.041269302,-0.084777713
20.96,0.01208213,0.006943703,0.175048173
20.97,0.028392047,-1.90735E-05,0.543359995
20.98,-0.007528275,0.033638,0.455536246
20.99,-0.004395962,0.033927917,0.457818329
21,-0.058532357,-0.037392616,-0.245265365
21.01,-0.122310817,-0.043974876,-0.180685639
21.02,-0.217497826,0.047454834,-0.089576006
21.03,-0.129492372,0.093151093,-0.015668094
21.04,-0.004949301,0.124430656,0.029590011
21.05,0.060807526,0.201105118,0.278180659
21.06,-0.065017372,0.146071434,0.478155315
21.07,-0.065458834,0.146137238,0.479314029
21.08,0.025462955,-0.136269569,0.35193193
21.09,0.026360482,-0.13595295,0.356235325
21.1,-0.019896388,-0.293615341,0.149755359
21.11,-0.017602742,-0.293293953,0.152977884
21.12,-0.086843342,-0.295463562,0.085309088
21.13,-0.14370653,-0.194712639,-0.074440062
21.14,-0.336900532,-0.146807671,0.129744887
21.15,-0.225568026,-0.00310421,-0.00611347
21.16,-0.181629568,0.051941872,0.220909625
21.17,-0.177914053,0.051820755,0.216636449
21.18,-0.040215075,0.11883831,0.247035086
21.19,0.068660647,0.126171112,0.151021034
21.2,-0.122846723,0.128869057,0.240546614
21.21,-0.107954592,0.064537048,0.229549766
21.22,-0.103315085,0.064875603,0.231046677
21.23,0.064859539,0.050820351,0.156999797
21.24,0.0795573,-0.094961166,0.223570377
21.25,0.019637227,-0.128314972,0.217001319
21.26,0.022181213,-0.128267288,0.215865016
21.27,-0.109505773,-0.168922424,0.059199929
21.28,-0.217354238,-0.027587891,-0.274268389
21.29,-0.217875719,0.03711319,0.07205075
21.3,-0.149859011,0.051324844,0.526439667
21.31,-0.001041174,-0.063878059,0.588939309
21.32,-0.001823723,-0.064143181,0.585424304
21.33,-0.120806515,-0.095358849,0.379809797
21.34,-0.085594177,-0.037944794,0.112143278
21.35,-0.082962096,-0.037864685,0.111117601
21.36,0.048465759,-0.068725586,-0.326942504
21.37,0.047960609,-0.068702698,-0.326328218
21.38,0.088671088,0.050627708,0.579745531
21.39,-0.050720096,0.076366425,0.792948544
21.4,-0.134108841,0.085361481,0.572429359
21.41,-0.175585568,0.044342041,0.168065548
21.42,-0.150764167,-0.048893929,-0.15369004
21.43,-0.192470551,-0.110854149,-0.198117435
21.44,-0.180619717,-0.112918854,-0.117951572
21.45,-0.178372264,-0.112667084,-0.115976036
21.46,0.146519572,0.016789436,0.25611046
21.47,0.135669112,0.050438881,0.355608344
21.48,0.017839491,0.110546112,0.396379143
21.49,-0.03923732,0.051027298,0.188688934
21.5,-0.036797643,0.051456451,0.193263829
21.51,-0.218353689,-0.010293007,-0.153437614
21.52,-0.153221428,-0.04574585,-0.076784492
21.53,-0.144234955,-0.071874619,0.023042142
21.54,-0.142391861,-0.071731567,0.023471713
21.55,-0.116545737,-0.10999012,0.166579664
21.56,-0.100228608,-0.095553398,0.173023313
21.57,-0.172343373,-0.071598053,0.233675867
21.58,-0.186248481,-0.040498734,0.382006556
21.59,-0.080772579,-0.066916466,0.194117189
21.6,0.009591937,-0.01188755,-0.023554862
21.61,-0.003660977,0.052733421,0.042233348
21.62,-0.002554297,0.076600075,0.221945137
21.63,-0.073431849,0.141079903,0.293065846
21.64,-0.046136796,0.128993034,0.218526125
21.65,-0.045815706,0.128973961,0.217738211
21.66,-0.122199535,0.035603523,0.016740501
21.67,-0.122202039,0.035658836,0.017641187
21.68,-0.160640419,-0.024145126,0.02298224
21.69,-0.01271075,-0.055265427,0.188861698
21.7,-0.013919055,-0.05536747,0.188245922
21.71,0.054208905,-0.057929993,0.249263912
21.72,0.052846819,-0.058125496,0.247248381
21.73,-0.094190776,-0.068017006,0.425099343
21.74,0.024335146,-0.12822628,0.128742695
21.75,0.02237463,-0.128494263,0.126128554
21.76,-0.320096254,0.046074867,0.007830381
21.77,-0.319752812,0.045871735,0.004076004
21.78,-0.054513693,0.045656204,0.137573093
21.79,-0.020663977,0.035784721,0.314153642
21.8,-0.023014486,0.035395622,0.310175806
21.81,0.051738292,-0.089526176,0.481904864
21.82,0.010679364,-0.044203758,0.249506563
21.83,0.01155436,-0.044234276,0.248437077
21.84,-0.047751307,-0.046508789,-0.061336756
21.85,0.008140147,0.003745079,-0.180049717
21.86,-0.011965752,0.048892975,0.238448232
21.87,0.007829368,0.048192024,0.673494637
21.88,-0.089674652,-0.074479103,0.281987131
21.89,-0.154673636,-0.139409065,-0.134391308
21.9,-0.156004906,-0.139414787,-0.133365691
21.91,-0.206811607,-0.156142235,-0.065261185
21.92,-0.207679629,-0.156258583,-0.066510856
21.93,0.10117957,-0.08234787,0.337559491
21.94,0.225191087,-0.061069489,0.440461099
21.95,0.150167674,-0.032650948,0.387904257
21.96,-0.015470505,-0.006554604,0.187422603
21.97,-0.199306846,-0.021018028,0.03887856
21.98,-0.200459123,-0.021043777,0.03961736
21.99,-0.202353537,0.045928955,-0.067597926
22,-0.263698995,0.079407692,0.08609426
22.01,-0.187926441,0.103256226,0.123827547
22.02,-0.123984218,0.09126091,0.188407868
22.03,-0.160137683,0.060133934,0.207644016
22.04,-0.101686627,0.045815468,0.238882065
22.05,-0.100026161,-0.042714119,0.34145388
22.06,-0.078947544,-0.083432198,0.427997619
22.07,0.061291516,-0.117067337,0.317021102
22.08,0.008460253,-0.052619934,0.232420057
22.09,0.003019214,-0.098308563,0.229274243
22.1,-0.026970416,-0.09140873,0.278090835
22.11,-0.09044525,-0.12284565,0.297401369
22.12,0.015872031,-0.127955437,0.192257822
22.13,0.140457958,-0.140246391,0.109958291
22.14,0.053415149,-0.104636192,0.234010637
22.15,0.031377643,-0.052313805,0.3595846
22.16,0.057219356,0.014326096,0.33571887
22.17,-0.05130896,0.042664528,0.264164686
22.18,-0.053613007,0.042366028,0.260421276
22.19,-0.070084274,0.037299156,0.17821306
22.2,-0.072998852,0.037014961,0.175679743
22.21,0.107548803,-0.004015923,0.220893651
22.22,0.103598744,-0.004329681,0.2182962
22.23,-0.110334247,0.002607346,-0.015744627
22.24,-0.177141637,0.040745735,-0.117760122
22.25,-0.175862074,0.040577888,-0.129288107
22.26,0.04504624,-0.007504463,0.086013228
22.27,0.04106915,-0.007918358,0.081589103
22.28,0.144230336,-0.133002281,0.928903282
22.29,0.062078029,-0.128827095,0.739847958
22.3,0.032395303,-0.08133316,0.179631501
22.31,-0.029824883,-0.055085182,-0.289253444
22.32,0.034625918,-0.043023109,-0.246386617
22.33,0.062377334,0.038121223,0.383540899
22.34,0.033843279,0.068711281,0.725917459
22.35,-0.107304931,0.03456974,0.491941631
22.36,-0.144487262,-0.054495811,0.147639215
22.37,-0.151749194,-0.155332565,-0.011977345
22.38,-0.143976957,-0.105252266,0.018769085
22.39,-0.144510329,-0.105409622,0.015828013
22.4,-0.077979177,-0.129468918,0.039888769
22.41,0.052376747,-0.146384239,0.109752953
22.42,0.158216208,-0.09149456,0.37549153
22.43,0.156074375,-0.091718674,0.372447908
22.44,0.003224134,-0.044072151,0.268510699
22.45,-0.057881564,-0.092097282,0.148783535
22.46,-0.035761356,-0.101838112,0.103835613
22.47,-0.03839317,-0.102035523,0.101912856
22.48,0.013425648,-0.037647247,0.084936321
22.49,-0.118581444,0.026752472,0.122135222
22.5,-0.156234086,-0.009383202,0.130307674
22.51,-0.150195152,-0.038330078,0.064170986
22.52,-0.15066731,-0.038505554,0.060395777
22.53,-0.055304319,-0.019558907,0.25642097
22.54,-0.05560258,-0.019794464,0.251187533
22.55,0.068748027,-0.031965256,0.277302951
22.56,0.033020645,-0.060819626,0.230674669
22.57,-0.026060849,-0.046552658,0.174779236
22.58,-0.089638323,-0.027460098,0.056782097
22.59,-0.107800335,-0.037100792,0.078327328
22.6,-0.107421696,-0.037167549,0.075914592
22.61,-0.018799186,0.070463181,0.286067575
22.62,-0.034184963,0.099076271,0.219160244
22.63,-0.034979761,0.098985672,0.217791542
22.64,-0.105766296,0.051026344,0.107086569
22.65,-0.073087752,0.055757523,0.089719385
22.66,-0.01466018,-0.004196167,0.078989059
22.67,-0.079114705,-0.028276443,0.195182845
22.68,-0.081080586,-0.028442383,0.192751214
22.69,-0.13297683,-0.03099823,0.249797076
22.7,-0.115153432,-0.02155304,0.250045389
22.71,-0.240361691,-0.004874229,0.052490652
22.72,-0.239160657,-0.004838943,0.051905632
22.73,-0.329825759,0.031195641,-0.057878792
22.74,-0.327351183,0.031273842,-0.058626622
22.75,0.029853553,-0.045408249,0.319891393
22.76,0.122381121,-0.059885979,0.499299258
22.77,0.121265858,-0.060025215,0.496646076
22.78,0.156400681,-0.031440735,0.548448086
22.79,0.142178953,0.004462242,0.286986381
22.8,-0.140359819,0.042822838,-0.101771951
22.81,-0.065598279,0.085852623,-0.216267347
22.82,-0.047770709,0.030537605,0.362728536
22.83,-0.161518395,0.027839661,0.376964182
22.84,-0.283696473,-0.01792717,0.273397118
22.85,-0.222100556,-0.073143959,0.16641745
22.86,-0.234008253,-0.022929192,0.052180707
22.87,-0.108694047,0.013021469,0.1168551
22.88,-0.091305345,0.029828072,0.265966356
22.89,-0.090544581,0.02986145,0.266105145
22.9,0.055805177,-0.001210213,0.276720166
22.91,0.055600882,-0.001152039,0.279080868
22.92,0.016782939,-0.036982536,0.205503807
22.93,-0.048573256,-0.034472466,0.082929716
22.94,-0.181131393,-0.079868317,0.283211321
22.95,-0.159707665,-0.060641289,0.242348015
22.96,-0.21499607,-0.027042389,0.000519037
22.97,-0.167257577,0.006568909,-0.075616896
22.98,-0.167914152,0.00662899,-0.073004067
22.99,-0.268736571,0.030613899,0.268672288
23,-0.268432021,0.030652046,0.269019127
23.01,-0.264916092,-0.019508362,-0.018365234
23.02,-0.268462539,-0.040926933,0.010263115
23.03,-0.267330468,-0.040849686,0.011016428
23.04,-0.214054793,0.011835098,0.089471519
23.05,0.0441401,0.002193451,0.21263285
23.06,0.042593896,0.002086639,0.211507186
23.07,0.002995461,-0.031497955,0.093912214
23.08,0.001092851,-0.031579971,0.093602568
23.09,-0.037072271,0.006611824,0.092625231
23.1,-0.004668653,0.027946472,0.260591686
23.11,-0.008197099,0.027708054,0.257724941
23.12,0.114348412,-0.015648842,0.276729405
23.13,0.093431354,0.027233124,0.229289383
23.14,-0.030325085,0.022252083,0.168183178
23.15,-0.026985914,0.000535011,0.078707546
23.16,0.013913572,0.029083252,-0.05820325
23.17,0.130258799,-0.057319641,0.099349052
23.18,0.065572232,-0.019428253,0.274377495
23.19,0.04204765,-0.017494202,0.303216219
23.2,-0.151361167,0.027518272,0.233179897
23.21,-0.113168478,0.019933701,0.02249366
23.22,-0.146712601,0.005242348,0.194013476
23.23,0.155305937,-0.12917614,0.481632531
23.24,0.027079284,-0.201508522,0.234681517
23.25,0.02276361,-0.20189476,0.225504249
23.26,-0.027964681,-0.226200104,0.306879699
23.27,-0.030342251,-0.226576805,0.294793904
23.28,-0.025029451,-0.021017075,0.099054679
23.29,0.133618206,0.024214745,0.183817387
23.3,0.083145604,0.02394104,0.419970661
23.31,-0.067773134,0.02367878,0.433255911
23.32,-0.069838852,0.023446083,0.425500751
23.33,-0.005529016,-0.13476944,-0.061789528
23.34,-0.032897472,-0.130190849,0.050705522
23.35,-0.103149116,-0.065763474,0.273174405
23.36,-0.079209805,0.013031006,0.358981282
23.37,-0.047689617,0.022432327,0.257056296
23.38,-0.030008405,0.027104378,0.152612686
23.39,-0.031033784,0.027042389,0.150429994
23.4,0.029550001,0.026970863,0.225554436
23.41,-0.034086168,0.022163391,0.118642233
23.42,0.012328655,-0.042488098,0.123066485
23.43,0.001032919,-0.071235657,0.112537853
23.44,0.087564886,-0.140704155,0.051375166
23.45,-0.003803283,-0.159936905,0.051516622
23.46,-0.006536484,-0.160048485,0.049421042
23.47,-0.119521499,-0.141052246,0.118594527
23.48,-0.196402729,-0.09812355,0.227689683
23.49,-0.086556822,-0.107843399,0.108102068
23.5,-0.096203968,-0.127123833,0.106770307
23.51,-0.097700641,-0.127203941,0.103815615
23.52,-0.141231015,-0.096130371,0.108172357
23.53,-0.107524723,-0.069810867,-0.008521304
23.54,-0.078806564,-0.017175674,-0.105801836
23.55,-0.074475989,0.025896072,0.026738003
23.56,-0.087133303,0.083312988,0.09600319
23.57,-0.101977378,0.143116951,0.088574141
23.58,-0.102250353,0.143088341,0.08715339
23.59,-0.126554027,0.088006973,0.015027106
23.6,-0.083989307,0.035328865,0.084747709
23.61,-0.134995341,0.020936012,0.108879626
23.62,-0.068450436,-0.062870026,0.085486032
23.63,-0.069415778,-0.062861443,0.086864196
23.64,-0.061321914,-0.170629501,-0.004735947
23.65,-0.003291368,-0.196993828,0.091487616
23.66,0.01590234,-0.130027771,0.090910986
23.67,-0.068085119,-0.075014114,0.090050206
23.68,-0.2280958,-0.041568756,0.05069565
23.69,-0.360839188,-0.070325851,-0.189497262
23.7,-0.360890329,-0.070320129,-0.1889541
23.71,-0.375035644,0.02067852,-0.341363072
23.72,-0.205762535,-0.051169395,-0.181035638
23.73,-0.007335469,-0.130268097,0.195303589
23.74,0.137382373,-0.089673042,0.375090629
23.75,-0.037394926,-0.0945158,0.078271724
23.76,-0.273952633,-0.089727402,0.1354132
23.77,-0.272489309,-0.08972168,0.13399756
23.78,-0.222775683,-0.214170456,-0.569519937
23.79,-0.155046552,-0.187785149,-0.385499358
23.8,-0.204244897,-0.108828545,0.08445926
23.81,-0.073082253,-0.032371521,0.261058092
23.82,-0.103262514,-0.01101017,0.148056552
23.83,-0.105676293,-0.01113224,0.142164275
23.84,-0.212056682,-0.004023552,0.023107544
23.85,-0.338313192,-0.044729233,-0.313988805
23.86,-0.336239308,-0.04468441,-0.313605607
23.87,-0.185142279,-0.058979034,-0.323989153
23.88,-0.108827159,-0.018213272,0.044185832
23.89,-0.107748717,-0.018179893,0.044270001
23.9,-0.021719083,0.04406929,0.180589289
23.91,-0.026979625,0.082386017,-0.051806025
23.92,-0.151583642,0.060866356,0.02033332
23.93,-0.146744236,0.034548759,0.003126532
23.94,-0.147448883,0.034561157,0.004828587
23.95,-0.060186684,0.020196915,-0.091480173
23.96,-0.068801597,0.113539696,0.014016315
23.97,-0.101323307,0.142216682,0.136830658
23.98,-0.103020757,0.14215374,0.133675188
23.99,-0.185563877,0.139697075,0.063778281
24,-0.220174715,0.027109146,0.050879419
24.01,-0.221372113,0.027005196,0.045715094
24.02,-0.153772086,0.019716263,0.014549188
24.03,-0.203823224,0.017187119,0.07460925
24.04,-0.269761622,0.021842957,0.157786205
24.05,-0.27738604,0.040895462,0.177836031
24.06,-0.219584435,0.052792549,0.157366663
24.07,-0.146925002,0.050374985,0.156948447
24.08,-0.050436497,0.031195641,0.188601255
24.09,-0.097845912,0.021606445,0.171492875
24.1,-0.096286401,0.021622658,0.163804084
24.11,-0.04912667,0.019260406,0.221676499
24.12,-0.190575123,-0.045325279,0.260839552
24.13,-0.101119012,-0.13384819,0.170526668
24.14,-0.09879145,-0.133786202,0.164306849
24.15,-0.032225281,-0.0834589,0.105947733
24.16,-0.030335516,-0.083390236,0.098561056
24.17,-0.212103486,0.084300041,0.331641436
24.18,-0.209380209,0.084400177,0.322896034
24.19,-0.299837798,0.079706192,-0.135010317
24.2,-0.311231464,0.268986702,-0.180819005
24.21,-0.145895943,0.312199593,0.061205953
24.22,-0.000858814,0.343447685,0.521673143
24.23,-0.010110334,0.336388588,0.499456346
24.24,-0.179553226,0.276674271,-0.079839841
24.25,-0.190842181,0.145115852,-0.156496167
24.26,-0.190377191,0.145258904,-0.167313114
24.27,-0.244116604,0.226883888,-0.034793586
24.28,-0.141626656,0.160064697,-0.203915283
24.29,-0.047267377,0.136317253,0.113825575
24.3,-0.069559947,0.122144699,0.373811126
24.31,-0.07098794,0.122400284,0.358778358
24.32,-0.228326678,-0.04736805,-0.064172238
24.33,-0.437119901,-0.094978333,-0.265937448
24.34,-0.514054716,-0.197634697,-0.411297143
24.35,-0.466865003,-0.278733254,-0.487257302
24.36,-0.460679293,-0.27839756,-0.494211495
24.37,-0.331360877,-0.479154587,-0.20421426
24.38,-0.163393617,-0.533813477,0.168570131
24.39,-0.01337257,-0.669874191,0.336388707
24.4,-0.008212537,-0.669472694,0.327356309
24.41,-0.131902337,-1.006719589,-0.222423941
24.42,-0.126137912,-1.00643158,-0.226671666
24.43,-0.186199099,-1.274324417,-0.63561511
24.44,-0.268634647,-1.278857231,-0.731805444
24.45,-0.264856875,-1.27855587,-0.737688899
24.46,-0.408955127,-0.981333733,-0.679594398
24.47,-0.563488245,-0.767870903,-0.632584572
24.48,-0.593163967,-0.566369057,-0.583624244
24.49,-0.56804204,-0.462955475,-0.608065963
24.5,-0.632307768,-0.282874107,-0.572190762
24.51,-0.646570861,-0.167359352,-0.684929848
24.52,-0.616116166,-0.090118408,-1.042675972
24.53,-0.617767692,-0.008137703,-1.151682138
24.54,-0.423507571,0.10520649,-1.063327789
24.55,-0.269167244,0.144540787,-0.835342169
24.56,-0.113871008,0.203235626,-0.704470098
24.57,0.107203513,0.235839844,-0.521633148
24.58,0.199550286,0.053246498,-0.155526578
24.59,0.383072913,-0.193475723,0.081632972
24.6,0.675667405,-0.569105148,0.133052886
24.61,0.796683848,-0.956276894,0.020858228
24.62,0.871150136,-1.323707581,-0.322860003
24.63,0.806685746,-1.647382736,-0.661389709
24.64,0.55491817,-2.003625393,-0.797665834
24.65,0.208565161,-2.410839558,-0.881299198
24.66,-0.040356562,-2.816662788,-1.010885715
24.67,-0.085228257,-2.806957245,-1.102536798
24.68,-0.52479291,-3.894969463,-0.862839758
24.69,-0.516984463,-4.356851101,-0.901581287
24.7,-0.556610704,-4.343761921,-0.994232535
24.71,0.20266296,-4.705355167,-0.975207448
24.72,0.408064842,-4.730149269,-1.03562808
24.73,0.360151291,-4.71223259,-1.136286497
24.74,0.767635882,-3.938137531,-1.684909701
24.75,0.708127737,-3.917236805,-1.785176039
24.76,0.223224372,-1.782084942,-2.438960552
24.77,0.135804534,-0.721768379,-2.254202604
24.78,0.267639101,0.219384193,-1.60457778
24.79,0.295248091,0.838441849,-0.586217165
24.8,0.240657568,0.862422943,-0.672312737
24.81,-0.234338313,1.236159325,-0.150985479
24.82,-0.622199953,0.696237564,-0.665765762
24.83,-0.672215819,0.474658966,-1.04849124
24.84,-0.780700862,0.29873848,-1.810058832
24.85,-0.667461932,0.340148926,-2.637035847
24.86,-0.678470254,0.638601303,-2.822291851
24.87,-0.464597076,1.367985725,-2.174257755
24.88,0.438627839,2.136364937,-0.883386374
24.89,0.934914291,2.965455055,0.205353737
24.9,0.860578835,3.750044823,1.209811211
24.91,0.827109218,3.784023285,1.121633768
24.92,0.477720738,4.704984665,1.570950985
24.93,-0.061326146,4.648721695,0.665333033
24.94,-0.448918164,4.29083252,-0.434514999
24.95,-0.728698194,3.888545036,-0.955342054
24.96,-0.963370264,3.311606407,-0.944261074
24.97,-1.004329681,2.685870171,-0.912551403
24.98,-0.988234043,2.698204994,-0.948724747
24.99,-0.481845021,1.620486259,0.183767796
25,-0.670683324,1.518893242,0.429776669
25.01,-0.891069531,2.031747818,1.378402233
25.02,-1.458851099,1.743222237,2.301161289
25.03,-1.846782088,0.752171516,3.318490744
25.04,-1.801271796,0.766671181,3.274163246
25.05,-1.728368282,-1.828166962,4.693724632
25.06,-1.015274405,-2.542749405,4.569157124
25.07,0.426326454,-2.620774746,5.207917213
25.08,0.52617234,-1.502825737,4.886879921
25.09,-0.360936284,0.247525215,4.217634201
25.1,-1.494623661,2.408630371,3.16320467
25.11,-3.063406706,4.534766197,2.616392612
25.12,-4.616930008,6.38843441,2.691658497
25.13,-4.555438042,6.398522377,2.662145138
25.14,-5.122014046,9.063261986,4.268992424
25.15,-3.904474735,9.527032852,4.846953869
25.16,-3.857102394,9.527011871,4.842254639
25.17,-1.91325593,9.654049873,4.931018829
25.18,-0.228124514,10.06272411,2.536800861
25.19,-0.170295268,10.04967117,2.559813499
25.2,-0.677614987,9.221469879,1.735926151
25.21,-0.041338399,8.170854568,2.861577034
25.22,-0.262055934,7.272040367,2.788964748
25.23,-0.239621699,7.259669304,2.814380646
25.24,-1.336146832,4.518047333,0.563984394
25.25,-0.671478808,2.09022522,-0.424559593
25.26,0.132050455,-0.574668884,-0.542297602
25.27,0.128150657,-0.623437882,-0.430990696
25.28,1.434964061,-5.899543762,-0.221683264
25.29,1.417147398,-5.944828033,-0.110696554
25.3,0.643173337,-10.25102711,-3.598928452
25.31,0.206662685,-11.90108585,-5.317528725
25.32,0.098867863,-12.77706718,-5.827012539
25.33,1.265183449,-13.28679466,-6.063508987
25.34,1.208922625,-13.29916763,-6.025074482
25.35,2.17809701,-13.35717869,-5.414696693
25.36,2.382454634,-11.94523239,-2.696141958
25.37,1.920385599,-10.92680931,-1.861442804
25.38,0.907867909,-10.44475937,-2.077594757
25.39,0.326630116,-9.826887131,-1.773310184
25.4,0.359472513,-9.460054398,-1.817495704
25.41,1.167135477,-9.524372101,-2.914497614
25.42,2.188933849,-8.178823471,-3.748850822
25.43,3.901470661,-5.574170113,-2.79659009
25.44,4.697617531,-2.749151707,-2.434645414
25.45,5.328869343,0.500247002,-1.283109426
25.46,5.439724445,3.027504921,-0.274202347
25.47,5.314538956,3.037762642,-0.26928544
25.48,4.010891914,8.239177704,4.140521526
25.49,2.053698301,11.14675426,6.150687218
25.5,0.030617952,13.84885788,7.474112511
25.51,1.010745406,14.25484467,8.135801315
25.52,1.571834803,14.23166943,5.950695515
25.53,1.573564768,14.2281332,5.95956707
25.54,-0.396631241,13.88920879,0.70136261
25.55,0.280647755,12.67926979,1.749598742
25.56,0.32423389,12.67683411,1.742487669
25.57,-0.058174014,11.27827549,3.432326794
25.58,-1.672492743,8.023790359,6.021410465
25.59,-1.340581656,5.036348343,4.965120316
25.6,-1.290555,5.012342453,5.01808691
25.61,0.058381677,-0.819062233,3.882493258
25.62,1.385248065,-4.345685005,4.056125641
25.63,-0.512598515,-6.842485428,3.391625881
25.64,-2.423338413,-9.275814056,0.912380457
25.65,-3.696285248,-11.07524776,-2.984068155
25.66,-5.873402596,-12.00297165,-5.673713684
25.67,-6.434668064,-12.60687351,-5.710212708
25.68,-5.821184635,-12.98800468,-4.653596878
25.69,-5.180321217,-13.39436722,-2.734081745
25.7,-4.823646545,-14.49259949,-1.521217346
25.71,-4.580924988,-15.34759617,-0.99193275
25.72,-3.88962841,-14.97638512,-1.12336278
25.73,-3.069610834,-13.62387848,-1.25399828
25.74,-2.623189926,-11.05189323,-1.902145982
25.75,-2.638525963,-11.02574921,-1.976865172
25.76,-0.340013027,-1.448451042,-0.129607678
25.77,2.808906555,3.43318367,1.042395353
25.78,3.691905975,6.79369545,3.568474054
25.79,2.223498344,10.3526659,6.484313965
25.8,0.220609784,12.42442894,8.978815079
25.81,-1.497947454,13.96075439,11.42531872
25.82,-2.182116985,14.21610451,13.5786047
25.83,-2.757692814,13.88700962,11.5181551
25.84,-2.934650421,13.42876434,6.197206497
25.85,-3.254083633,12.76383114,0.888504028
25.86,-3.228629351,12.72916126,0.975197792
25.87,-2.694236755,11.38064003,-1.274039268
25.88,-1.668488622,9.981421471,-0.967563391
25.89,0.219091252,6.475193977,0.653174877
25.9,0.093221113,4.79977417,1.144528151
25.91,0.331924737,3.605135918,2.35084343
25.92,0.5286901,1.623145103,2.991076708
25.93,0.812717438,-0.648051262,3.802388191
25.94,1.013359785,-3.22217083,3.382859707
25.95,0.903455973,-6.006091118,0.992754221
25.96,0.190561563,-8.844226837,-2.059767008
25.97,0.165579081,-8.879416466,-1.945074558
25.98,-0.734078467,-10.8319006,-4.357656956
25.99,-1.493827939,-12.42524338,-6.631032944
26,0.401564866,-12.98504448,-6.178060532
26.01,1.568616867,-13.67237282,-3.218258858
26.02,1.709239006,-13.37832355,-0.181876421
26.03,1.58900249,-13.35603905,-0.230434895
26.04,1.800501943,-12.32793903,-0.850433469
26.05,1.09445703,-11.89866447,-2.673308134
26.06,1.03475225,-11.88264942,-2.706326008
26.07,-0.286748588,-9.66409111,-6.067851067
26.08,1.149134636,-5.768380642,-5.776068687
26.09,4.480980873,-1.850342751,-0.584551096
26.1,4.446866035,-1.828061104,-0.643701553
26.11,8.262313843,1.513903618,2.452996016
26.12,6.719540596,7.912522316,5.794849873
26.13,4.975282192,9.839643478,5.742006302
26.14,4.182561874,11.41972828,5.950150013
26.15,4.147716045,11.43535042,5.921442032
26.16,0.839054465,13.95380116,7.039037704
26.17,0.478135347,13.94230843,6.635581017
26.18,-0.837664366,13.24071312,2.746518135
26.19,-1.271447182,12.12659168,0.512213707
26.2,-1.191735148,10.90576649,1.208540916
26.21,-0.563632011,9.196398735,5.187688828
26.22,-0.021307588,7.492721558,9.293852806
26.23,-0.175036252,6.197249413,10.65561962
26.24,-0.068173647,6.180798531,10.6736269
26.25,-0.417551845,0.92509079,7.126085281
26.26,-0.330708832,0.880630493,7.239605904
26.27,-0.781101108,-2.913412571,4.678629398
26.28,-3.860141277,-9.456939697,-2.478065729
26.29,-4.702649117,-11.91819572,-5.96119976
26.3,-5.128406048,-13.31748962,-7.623667717
26.31,-5.248071671,-13.48921013,-6.263358116
26.32,-5.151034832,-13.51021957,-6.193922997
26.33,-4.52799654,-12.82851601,-4.134922028
26.34,-4.0465312,-14.13249111,-0.46645844
26.35,-4.418424606,-15.0897007,-0.206753254
26.36,-3.609059095,-14.76743031,-1.603125572
26.37,-3.644874573,-14.75192547,-1.6571033
26.38,-3.050404072,-13.57587433,-3.089725971
26.39,-1.0362885,-8.832280159,-3.090100288
26.4,-1.068560243,-8.809956551,-3.16276598
26.41,-0.131571412,-1.972127438,-0.855653167
26.42,-0.15244323,-1.954524517,-0.910301089
26.43,2.142000675,3.137629509,2.062827587
26.44,2.840740204,10.53321648,6.606581688
26.45,2.810386658,10.56135464,6.525463581
26.46,-3.334819317,16.52061081,12.59934235
26.47,-4.729531765,16.55474472,16.0110054
26.48,-4.121062279,15.82658195,13.95299435
26.49,-3.740268707,15.4157486,8.281381607
26.5,-4.42602253,14.72507763,2.773382187
26.51,-4.364699841,14.6882391,2.878385067
26.52,-4.66461134,12.96937561,-1.397136331
26.53,-4.129205227,11.46167278,-2.239930153
26.54,-0.974963784,6.920062065,2.662762642
26.55,0.207164079,3.857804298,4.743347168
26.56,0.178827196,3.851917267,4.76581955
26.57,1.716813803,1.071387291,5.471114635
26.58,4.102750778,-4.551697731,5.967773438
26.59,2.66538763,-6.945850372,2.95481205
26.6,0.497045934,-8.730169296,-1.73967886
26.61,0.478542745,-8.758353233,-1.625032902
26.62,-0.78775233,-12.88842869,-8.626708031
26.63,0.085031331,-14.4651413,-8.239547729
26.64,0.960056007,-14.94114971,-5.148941517
26.65,0.909853339,-14.94347668,-5.123738289
26.66,1.891625047,-15.14195633,-2.895560026
26.67,2.369663,-14.76483345,0.020610809
26.68,1.786700845,-13.58734512,0.22132659
26.69,0.825498343,-11.94639015,-1.160949469
26.7,-0.134224236,-10.60036755,-4.154111385
26.71,-1.291849136,-9.091247559,-7.145410538
26.72,-1.794080496,-6.924514771,-7.397779465
26.73,-1.25440371,-4.303858757,-5.888054371
26.74,-1.251386166,-4.295959473,-5.92116785
26.75,8.766986847,4.298596382,2.379433632
26.76,11.99958611,6.752093315,4.935433865
26.77,11.59231281,10.24243069,5.543827057
26.78,7.260401249,13.64414406,6.4734869
26.79,7.20446825,13.66304207,6.432994366
26.8,-0.065788627,17.23051834,12.58889961
26.81,-0.022867441,17.23306847,12.55945396
26.82,-0.806530953,11.99213409,3.684097767
26.83,-2.300869703,9.946187973,0.026037931
26.84,-2.233965635,9.938508987,0.024900675
26.85,-0.52920866,8.049846649,3.083456039
26.86,-0.333844185,8.535992622,4.759575844
26.87,-0.239690244,8.533000946,4.739107132
26.88,-3.163539886,5.966379166,7.220981121
26.89,-2.820483685,0.760210037,8.665620804
26.9,-1.567175746,-3.789314747,8.905200958
26.91,-2.429000139,-8.199889183,5.405015469
26.92,-3.207944393,-11.20349598,-1.055389404
26.93,-3.018335819,-13.36610413,-4.897151947
26.94,-2.588997602,-14.47896576,-5.472743034
26.95,-3.172892094,-14.3041153,-4.773711205
26.96,-4.232028008,-14.04203987,-4.925290108
26.97,-5.36686039,-13.7962513,-3.07052207
26.98,-5.924007416,-13.41854286,-0.360162377
26.99,-4.887464523,-13.37919331,0.891848803
27,-4.70968914,-13.0372982,0.46225071
27.01,-4.740015984,-13.02945328,0.431406021
27.02,-3.336603165,-9.921922684,-0.60515666
27.03,-3.369063854,-9.918697357,-0.615687847
27.04,-3.171350718,-7.778570175,-2.012221575
27.05,-2.808953762,-5.095654964,-1.799411416
27.06,-0.228145123,-0.456349373,0.246132851
27.07,4.936114311,3.769166946,4.993336678
27.08,5.62981987,7.918086052,5.49191761
27.09,2.306438208,14.55827141,4.679653645
27.1,0.360137999,17.38224792,7.853900909
27.11,0.353850275,17.41182137,7.749150276
27.12,-2.888456106,15.53719234,20.09582138
27.13,-6.527339935,14.53590965,14.28806877
27.14,-6.498080254,14.52715111,14.31313515
27.15,-7.726142883,12.64433861,-5.322481155
27.16,-7.691624165,12.61256886,-5.214433193
27.17,-1.724945426,9.30585289,-1.6659832
27.18,-0.051220924,7.37798214,2.274690151
27.19,-0.084048539,7.382224083,2.262886763
27.2,0.686210156,3.721668243,5.593453407
27.21,0.713614106,1.373882294,4.577715874
27.22,0.735026896,-1.119338989,4.118200302
27.23,0.529644191,-3.824535847,3.401700974
27.24,0.465475082,-3.841897488,3.486364603
27.25,1.283106804,-10.25624657,-1.045991182
27.26,1.244569063,-10.27532005,-0.951855421
27.27,1.719958782,-12.47691917,-2.806832314
27.28,2.609467268,-15.34145164,-5.817175388
27.29,2.573617935,-15.36131287,-5.703672409
27.3,2.411907434,-15.42764568,-6.277037621
27.31,3.528371811,-15.52842236,-5.127279758
27.32,3.094257355,-14.85412502,-0.030923247
27.33,0.850291371,-13.20966721,0.607430577
27.34,0.796184659,-13.1905756,0.544211865
27.35,-2.294433117,-10.1695919,-1.424984455
27.36,-3.070558071,-6.51035738,-6.872685432
27.37,-1.242082953,-5.636787415,-6.559126377
27.38,2.002019405,-4.035549641,-4.961322308
27.39,1.99561584,-4.03202486,-4.974759102
27.4,13.03879166,4.187321663,4.861844063
27.41,15.17392159,8.355506897,6.880493164
27.42,10.54206562,10.94416904,5.13705492
27.43,2.875037193,13.21603966,4.970096111
27.44,-2.055052757,14.54201412,7.715470314
27.45,0.13272202,14.33743191,6.498986244
27.46,0.159148336,14.346735,6.440443516
27.47,0.941023231,13.74986076,5.934601784
27.48,-2.265552044,13.27134037,2.729552746
27.49,-2.185645103,13.27249241,2.678607941
27.5,-2.32225728,14.06755447,3.786449671
27.51,-2.188171387,14.29825592,6.349441051
27.52,-0.912948072,7.535759926,10.76133728
27.53,-0.88623035,1.989254951,13.00658512
27.54,-0.808750808,1.960968971,13.08695602
27.55,-3.645589828,-7.197742939,2.653014898
27.56,-3.562464714,-7.244720936,2.830485821
27.57,-6.115507603,-12.1679678,-5.454507351
27.58,-6.290565968,-13.38700104,-6.77099514
27.59,-6.176508904,-13.40685654,-6.695735931
27.6,-5.514746189,-13.65026855,-5.925345421
27.61,-4.662790298,-13.45105362,-3.03472662
27.62,-4.907740593,-13.06920147,0.51301527
27.63,-4.565384865,-13.49652767,0.907534957
27.64,-4.220473289,-14.1869812,-0.020758629
27.65,-4.468658924,-14.10808945,-1.356549978
27.66,-3.940641165,-13.55358315,-2.463488102
27.67,-2.921303511,-12.02150536,-2.931864738
27.68,-1.961501002,-10.20343018,-2.84495306
27.69,-1.505473375,-9.163780212,-2.590319395
27.7,-1.420172572,-7.118350506,-2.485487938
27.71,-0.945780635,-3.921028137,-1.338488579
27.72,4.399304867,1.344157219,1.949941397
27.73,9.221432686,4.246006012,7.258406639
27.74,8.461452484,11.77859592,9.11206913
27.75,1.080027342,18.87388611,12.23638058
27.76,-4.021741867,21.61297607,17.60449028
27.77,-9.107773781,21.92694473,21.39273262
27.78,-10.30356598,18.99419403,13.04702187
27.79,-8.120951653,17.43602371,2.62468338
27.8,-7.104253769,15.27683926,-4.078770638
27.81,-5.022866249,13.2793045,-4.480137825
27.82,-0.892988801,10.31803513,-1.320029855
27.83,2.861996651,7.354090691,2.4502244
27.84,3.222303629,5.696818352,4.955169678
27.85,2.457490444,4.248224258,5.799491882
27.86,2.435860157,4.248451233,5.803656578
27.87,0.638734579,0.715370178,7.083981037
27.88,0.621395052,0.695066452,7.168515205
27.89,-2.808316231,-5.159152031,-0.715827227
27.9,-4.171051979,-8.468529701,-4.658718109
27.91,-3.541605473,-11.21453857,-5.82815218
27.92,-1.54799211,-13.85159683,-5.657878876
27.93,1.372311115,-16.41576385,-6.259381771
27.94,4.034810543,-17.90750885,-6.510996819
27.95,5.795017242,-18.60487556,-4.997986317
27.96,6.716759682,-18.80438995,-0.621676207
27.97,5.055258274,-17.61641312,2.278963804
27.98,2.767774582,-14.91948509,1.914557576
27.99,0.052390516,-11.28534317,-1.505840898
28,-2.01473093,-7.858907223,-4.102327347
28.01,-2.809521437,-5.370809555,-6.050188065
28.02,-2.652925968,-3.28604126,-7.189094067
28.03,-0.942807615,-0.405643463,-4.900450706
28.04,4.618286133,3.413350105,1.009495974
