Time (s),Linear Acceleration x (m/s^2),Linear Acceleration y (m/s^2),Linear Acceleration z (m/s^2)
0,0.042213678,0.219851494,0.061837673
0.01,0.089282572,0.236573219,0.38454774
0.02,-0.059379399,0.112195015,0.727983654
0.03,-0.086832464,0.009423256,0.405821681
0.04,-0.198675513,-0.095709801,0.065937355
0.05,-0.193939209,-0.315709114,-0.229661137
0.06,-0.145754933,-0.360935211,-0.412243038
0.07,-0.139344156,-0.360692024,-0.402148217
0.08,-0.054140449,-0.279058456,-0.295117497
0.09,-0.025569141,-0.173523903,-0.174246788
0.1,-0.021563411,-0.173347473,-0.167773202
0.11,-0.099053025,-0.120474815,0.039735802
0.12,-0.245327234,0.116791725,0.116245411
0.13,-0.217258036,0.088258743,-0.062845021
0.14,-0.165289938,0.107613564,0.101382986
0.15,-0.161340058,0.107802391,0.106581286
0.16,-0.247842133,-0.004496574,0.116541535
0.17,-0.25250864,-0.152665138,-0.090786412
0.18,-0.190139592,-0.231411934,-0.242119119
0.19,-0.26229471,-0.212003708,-0.411886007
0.2,-0.257569134,-0.211745262,-0.408304185
0.21,-0.210079789,-0.13245678,0.171537891
0.22,-0.2074278,-0.132287026,0.168656051
0.23,0.085169077,-0.055635452,0.582982361
0.24,0.084690034,-0.055642128,0.578950584
0.25,0.104371518,0.009030342,0.295722276
0.26,0.104427308,0.009017944,0.298718095
0.27,0.008485377,-0.017343521,-0.423247576
0.28,-0.091921031,-0.012556076,-0.512219846
0.29,-0.221165419,-0.010167122,-0.301779807
0.3,-0.207074463,0.035302162,-0.083539292
0.31,-0.018491447,0.12624836,0.164383054
0.32,-0.017158329,0.051962852,0.297828227
0.33,-0.149991512,0.03513813,0.462745458
0.34,-0.150683284,0.035105705,0.460855722
0.35,-0.038702965,0.003953934,0.770261645
0.36,0.029385924,-0.127677918,0.584419131
0.37,0.041582584,-0.165821075,0.302564412
0.38,-0.083342433,-0.084150314,-0.311827302
0.39,-0.098831713,-0.098303795,-0.437649101
0.4,-0.082342744,-0.05268383,-0.162502423
0.41,-0.082024217,-0.052667618,-0.162845984
0.42,0.07220459,0.035845757,0.198673457
0.43,-0.079194963,0.040613174,0.487698883
0.44,-0.072346509,0.038204193,0.523385465
0.45,-0.129344165,0.035843849,0.44455266
0.46,0.066833556,-0.064692497,0.316494703
0.47,0.08346808,-0.112579346,0.208586425
0.48,0.197688937,-0.158114433,0.173568457
0.49,0.136534751,-0.115102768,0.038062677
0.5,0.135262191,-0.115164757,0.037402898
0.51,-0.028335512,-0.120009422,-0.091973424
0.52,-0.196852982,-0.009918213,0.064849712
0.53,-0.147868872,0.054649353,0.197079957
0.54,-0.165696144,0.126418114,0.148127571
0.55,-0.275767028,0.107273102,0.101311609
0.56,-0.333912134,0.057068825,-0.025388781
0.57,-0.295755208,0.035660744,-0.089038104
0.58,-0.293497741,0.03578186,-0.085669793
0.59,-0.174374163,-0.014392853,0.054932129
0.6,-0.172675252,-0.014291763,0.054373618
0.61,-0.068567872,-0.059699059,0.184895396
0.62,0.011307418,-0.054859161,0.241554424
0.63,-0.08527112,-0.095461845,0.209818885
0.64,-0.038076043,-0.10731411,0.318255723
0.65,-0.037142277,-0.107248306,0.316467255
0.66,0.023394644,-0.092834473,0.247779191
0.67,0.006512642,-0.083268166,0.081825465
0.68,0.026989341,-0.11925602,-0.046915039
0.69,0.087299883,-0.143303871,-0.090747245
0.7,0.032022953,-0.126731873,-0.058510058
0.71,0.029578209,-0.126877785,-0.058874071
0.72,0.018087387,-0.088681221,0.112406045
0.73,-0.118513405,0.035822868,0.463189542
0.74,-0.117385864,0.03589344,0.462398708
0.75,-0.240625024,0.035987854,0.521086812
0.76,-0.284863532,0.007190704,0.434369862
0.77,-0.031423092,-0.00014019,0.571157396
0.78,0.026006222,0.018881798,0.368848294
0.79,0.02454406,0.018799782,0.368058622
0.8,0.047454238,-0.053110123,-0.2063393
0.81,0.045861423,-0.053218842,-0.20112142
0.82,0.064656794,-0.106077194,0.365942508
0.83,0.061248124,-0.106241226,0.359374523
0.84,-0.186185956,-0.099189758,0.739132345
0.85,-0.18749851,-0.099197388,0.728947163
0.86,-0.34702003,0.011050224,0.195092976
0.87,-0.19253993,-0.063077927,-0.080516867
0.88,0.095138401,-0.046327591,-0.227979839
0.89,0.186886638,-0.02732563,-0.084648997
0.9,0.18465665,-0.027496338,-0.078830674
0.91,0.220501006,-0.11625576,0.358224183
0.92,0.21811676,-0.116413117,0.359896779
0.93,0.144294143,-0.061468124,0.275177956
0.94,-0.068782508,0.026984215,0.309382558
0.95,-0.156781137,0.03403759,0.271434069
0.96,-0.337751687,0.041144371,0.117071703
0.97,-0.337489784,0.041133881,0.121114701
0.98,-0.303254783,-0.057027817,-0.19278118
0.99,-0.123889625,-0.088206291,-0.229675382
1,-0.124852657,-0.088284492,-0.221337184
1.01,0.05855751,-0.136248589,0.005603446
1.02,0.057045102,-0.136357307,0.010616599
1.03,0.105907649,-0.12208271,0.030691491
1.04,0.095422834,-0.052688599,0.148412228
1.05,-0.039121509,0.033480644,0.435701311
1.06,-0.040436447,0.033412933,0.433146387
1.07,0.169991523,0.006912231,0.367693901
1.08,0.114459485,-0.141698837,0.289098114
1.09,0.111991614,-0.141825676,0.28941828
1.1,0.023059845,-0.103686333,0.254040301
1.11,0.215362132,-0.115872383,-0.07021255
1.12,0.139705837,-0.025117874,-0.002844648
1.13,0.136584222,-0.025280952,-0.004499283
1.14,-0.200079918,0.182941437,0.050542515
1.15,-0.228541791,0.194930077,0.029738065
1.16,-0.227780461,0.053708076,0.023401773
1.17,-0.182914376,-0.121096611,0.244374454
1.18,-0.185714483,-0.121259689,0.242478848
1.19,0.204460651,-0.286727905,0.250804395
1.2,0.199953407,-0.286943436,0.247365803
1.21,-0.044551313,-0.217658043,0.145709485
1.22,-0.044877768,-0.217658997,0.142490223
1.23,-0.005005419,-0.220087051,-0.326642454
1.24,-0.037797749,-0.177051544,-0.557726204
1.25,-0.207089484,0.031223297,-0.042462081
1.26,-0.29726696,0.031234741,0.569431901
1.27,-0.227123618,-0.021450996,0.164281845
1.28,-0.227432787,-0.021422386,0.159571186
1.29,-0.160176814,-0.069278717,0.05571378
1.3,-0.15894872,-0.069187164,0.052245378
1.31,-0.010961473,0.031509399,0.309490621
1.32,-0.010093749,0.031580925,0.307190359
1.33,0.169059485,0.024394035,0.356681317
1.34,-0.075613856,0.041099548,0.306354284
1.35,-0.06777817,0.033903122,0.307736307
1.36,-0.023831367,0.014773369,0.254706562
1.37,-0.023243606,0.014741898,0.259716362
1.38,-0.04415524,-0.02835083,0.204752386
1.39,-0.062380016,0.007591248,0.181497693
1.4,-0.118785858,0.031573296,0.054796003
1.41,-0.115456581,0.055548668,-0.103776678
1.42,-0.176649153,0.055614471,0.027207598
1.43,-0.254791915,0.03652668,0.568126261
1.44,-0.253195584,0.036642075,0.56348151
1.45,-0.025961697,-0.075731277,0.50274986
1.46,-0.02442646,-0.075648308,0.501743615
1.47,-0.050865531,-0.13778019,0.178208008
1.48,0.176330358,-0.147238731,-0.007616758
1.49,0.112452418,-0.173553467,-0.132301927
1.5,0.113403469,-0.173521996,-0.129569143
1.51,-0.054956317,-0.108774185,0.137286305
1.52,-0.096821964,-0.127846718,0.173101574
1.53,-0.095726252,-0.127765656,0.171634272
1.54,-0.125792444,-0.022366524,-0.007456161
1.55,-0.01760757,-0.039115906,0.09520153
1.56,-0.066958427,-0.067932129,0.168197483
1.57,-0.154038191,0.128333092,0.130226672
1.58,-0.154312074,0.128312111,0.130785182
1.59,-0.117591202,0.188066483,-0.102006525
1.6,0.037335873,0.128040314,-0.015186168
1.61,0.270315737,0.015304565,0.394518524
1.62,-0.261652529,-0.054144859,0.076460727
1.63,-0.330259383,-0.07561779,-0.070983388
1.64,-0.35345602,-0.173737526,-0.194614679
1.65,-0.353845298,-0.173747063,-0.19662264
1.66,0.267827123,0.005670547,0.063286774
1.67,0.343043238,0.036530495,0.879402697
1.68,0.240936935,0.03151989,1.053572774
1.69,0.235069513,0.031330109,1.043575406
1.7,0.122196496,0.031143188,0.490638107
1.71,-0.217561245,0.030966759,-0.112763546
1.72,-0.292468429,0.030857086,0.042156681
1.73,-0.273372382,0.030751228,0.168766007
1.74,-0.165803254,0.004323006,0.264741361
1.75,-0.084868908,-0.101147652,0.239483446
1.76,-0.032452285,-0.022259712,0.066618696
1.77,-0.034791827,-0.022395134,0.068031624
1.78,-0.100136936,0.030200958,0.14241688
1.79,-0.097832382,0.030168533,0.118516579
1.8,0.042602718,-0.03693676,-0.047295794
1.81,0.100440651,0.029979706,0.030624196
1.82,0.068970591,0.029852867,0.278738558
1.83,-0.153842419,0.039360046,0.62506032
1.84,-0.16680491,0.029784203,0.465002239
1.85,-0.176427305,-0.027668953,0.207739607
1.86,-0.178321213,-0.085112572,-0.061986789
1.87,-0.146099091,-0.130574226,-0.076710828
1.88,-0.109153867,-0.149710655,0.018510938
1.89,-0.105460733,-0.04190731,0.150824696
1.9,-0.101935446,-0.022687912,0.353887677
1.91,-0.099954486,-0.022590637,0.353065401
1.92,-0.120997161,0.030266762,0.339812487
1.93,-0.008336276,0.023189545,0.114691615
1.94,-0.066522241,0.030450821,0.077855185
1.95,-0.05739966,0.030528069,0.067480713
1.96,-0.094417483,0.035354614,0.083398134
1.97,-0.102952093,0.006644249,0.128387153
1.98,-0.102516025,0.00664711,0.13073796
1.99,-0.242683709,-0.050802231,0.10707894
2,-0.17668426,0.030615807,-0.103889637
2.01,-0.176003575,0.030612946,-0.09972053
2.02,0.233861715,-0.151473045,0.535758138
2.03,0.28684485,-0.216324806,0.912441909
2.04,-0.197948337,-0.024927139,0.408642709
2.05,-0.197131157,-0.024868965,0.40821296
2.06,-0.431194156,0.030315399,0.055964984
2.07,-0.020255119,-0.041470528,-0.165979311
2.08,-0.020310074,-0.041532516,-0.160177633
2.09,-0.091025054,-0.051229477,-0.206599847
2.1,-0.039489299,-0.046615601,0.26919052
2.11,0.091718405,-0.061214447,0.438449383
2.12,0.086904287,-0.061404228,0.434529007
2.13,-0.13810283,0.029513359,0.365987718
2.14,-0.096731097,0.02943325,0.104857609
2.15,-0.092983842,0.029360771,-0.031847164
2.16,-0.150782585,0.034100533,0.181422085
2.17,0.133116752,-0.088095665,0.251766503
2.18,0.093398482,-0.064283371,0.11607042
2.19,0.106296122,-0.059624672,0.050427876
2.2,0.063351512,-0.052611351,-0.017844066
2.21,-0.001493156,-0.014481544,0.128849089
2.22,0.098217726,0.006885529,0.333602428
2.23,0.084146231,0.028201103,0.359757602
2.24,0.041569352,-0.010334015,0.193083584
2.25,-0.079592466,0.02058506,0.061133988
2.26,-0.082326859,0.020424843,0.066151962
2.27,-0.17279163,-0.08026123,-0.112069286
2.28,-0.277399629,-0.089954376,-0.007909749
2.29,-0.146798849,-0.087628365,0.142311871
2.3,-0.14874208,-0.087731361,0.1441686
2.31,-0.073797584,-0.056685448,0.226609275
2.32,-0.131709337,-0.02077961,0.203444973
2.33,-0.088890404,-0.083053589,-0.06013868
2.34,-0.089493036,-0.083108902,-0.056673639
2.35,-0.066685706,-0.135839462,-0.091607079
2.36,-0.008479834,-0.157465935,0.008290641
2.37,-0.062563419,-0.023427963,0.178054363
2.38,-0.066551715,-0.018709183,0.049507108
2.39,-0.154391885,0.02671051,0.022579718
2.4,-0.088971347,0.026651382,0.186929956
2.41,-0.045966953,0.014579773,0.274181485
2.42,-0.122003853,0.129426956,0.120799124
2.43,-0.229649752,0.119848251,0.192157477
2.44,-0.166226655,0.009737015,0.039188467
2.45,0.056652516,-0.045326233,0.289605171
2.46,-0.093455225,-0.263289452,0.211014748
2.47,-0.201550067,-0.162763596,0.022417877
2.48,-0.146112561,-0.09811306,0.137892008
2.49,-0.059475631,-0.083723068,0.331306487
2.5,-0.092907816,-0.119643211,-0.079381213
2.51,-0.093119711,-0.119670868,-0.07593751
2.52,-0.096569896,0.026329041,0.139529318
2.53,-0.09887439,0.0262537,0.135775238
2.54,-0.149175108,0.124318123,0.388920426
2.55,-0.122506887,0.203263283,0.243213654
2.56,-0.147934645,0.229545593,0.121272296
2.57,-0.241802037,0.188820839,0.051559217
2.58,-0.24112311,0.188842773,0.053822048
2.59,-0.182483017,0.026068687,0.079287693
2.6,-0.18219924,0.026065826,0.084179416
2.61,0.092675656,0.018846512,0.381872624
2.62,0.121474445,-0.041009903,0.278086066
2.63,0.213112459,-0.108036041,0.089448288
2.64,0.213560477,-0.108021736,0.097702324
2.65,0.10836494,-0.091256142,0.24097164
2.66,0.131671131,-0.06495285,0.214724481
2.67,0.056048989,-0.076975822,0.17122218
2.68,-0.053527594,-0.053095818,0.092192993
2.69,-0.055149943,-0.053150177,0.097253636
2.7,-0.176577181,-0.093917847,0.063433632
2.71,-0.17112869,-0.149043083,0.038545564
2.72,-0.173078358,-0.149111748,0.042478375
2.73,-0.3229011,-0.01986599,-0.009121098
2.74,-0.322480232,-0.019831657,-0.006167363
2.75,-0.382887214,0.099982262,-0.150843412
2.76,-0.196130306,0.102498055,-0.075406171
2.77,-0.194628984,0.102571487,-0.07260485
2.78,0.030208379,0.073832512,0.036739245
2.79,0.275219739,0.028279305,0.743035078
2.8,0.158740878,0.023405075,0.714656472
2.81,0.15855059,0.023397446,0.71422863
2.82,-0.049920529,-0.026889801,0.193385869
2.83,-0.049210906,-0.026833534,0.195342988
2.84,-0.268526137,-0.15367794,-0.213376671
2.85,-0.266994089,-0.153567314,-0.206864953
2.86,-0.193849504,0.011748314,-0.304382473
2.87,-0.107620001,0.014205933,0.030157607
2.88,0.015393227,0.002202034,0.107576363
2.89,-0.061108649,-0.038553238,0.601496697
2.9,-0.086286187,-0.086490631,0.370282561
2.91,-0.134284169,-0.024232864,0.288275093
2.92,-0.133364141,-0.024191856,0.28910628
2.93,-0.023150057,-0.05529213,0.104156256
2.94,0.038559228,-0.014575005,0.033053473
2.95,0.036523342,-0.014666557,0.032849327
2.96,0.136513025,0.047428131,0.606612623
2.97,0.101823926,0.030493736,0.337308079
2.98,-0.001602113,0.025564194,0.039600406
2.99,-0.186575323,0.047124863,0.183270276
3,-0.389123589,0.028025627,0.472453564
3.01,-0.386197776,0.028151512,0.473780155
3.02,0.001659751,-0.096208572,0.192503005
3.03,0.086616993,-0.074544907,0.080986097
3.04,0.163731232,-0.052901268,-0.029266946
3.05,0.054165959,-0.016879082,0.069887698
3.06,0.055284441,0.016789436,0.170899302
3.07,0.010697782,-0.021381378,0.211423039
3.08,-0.031293869,0.026639938,0.282533288
3.09,-0.030195832,0.02677536,0.287629724
3.1,-0.113277942,0.019680023,0.286616325
3.11,-0.098518938,-0.032924652,0.032249168
3.12,-0.097848773,-0.032820702,0.036518082
3.13,-0.09893021,0.003192902,0.111590281
3.14,-0.168889433,0.027247429,0.233699098
3.15,-0.171379328,-0.022880554,0.078339003
3.16,-0.169177711,-0.022726059,0.081866749
3.17,-0.159765005,0.018121719,0.122636139
3.18,0.002285451,0.022979736,0.261563689
3.19,0.06782347,-0.005717278,0.122824207
3.2,0.049460411,0.032653809,0.407046378
3.21,0.050642312,0.032717705,0.407578707
3.22,0.064082593,0.028029442,0.426512897
3.23,0.117717296,0.016188622,0.112893894
3.24,0.119023711,0.016342163,0.11760135
3.25,-0.006671369,0.002081871,0.350161433
3.26,-0.005948305,0.00212574,0.351074308
3.27,-0.218124867,0.004593849,0.142352492
3.28,-0.148748279,0.119692802,0.195706263
3.29,-0.146667093,0.119853973,0.199536637
3.3,0.048335046,0.029034615,0.01337634
3.31,-0.04724744,0.02915287,0.45685041
3.32,-0.117774248,-0.013871193,0.720753908
3.33,-0.028661549,-0.066436768,0.364973217
3.34,-0.223738611,0.029508591,0.397142738
3.35,-0.168456823,-0.065995216,0.16212365
3.36,0.177106321,-0.135149002,-0.07160005
3.37,0.175666064,-0.135054588,-0.064495921
3.38,-0.038160026,-0.051217079,0.493685067
3.39,-0.052843928,-0.094331741,0.177497461
3.4,-0.08156994,-0.132601738,-0.076795518
3.41,-0.187978745,-0.170753479,-0.209074065
3.42,-0.220787585,-0.148895264,-0.136006624
3.43,-0.21617806,-0.148509026,-0.128853977
3.44,-0.234937578,-0.174433708,0.203726709
3.45,-0.229418814,-0.173974991,0.210932553
3.46,-0.08567971,-0.283661842,0.065550417
3.47,-0.059813708,-0.17786026,-0.13168177
3.48,0.07562989,-0.208537102,-0.103401274
3.49,0.103831828,-0.186641693,-0.001753569
3.5,-0.016579032,-0.171973229,0.098895907
3.51,-0.162459493,-0.104610443,0.258535564
3.52,-0.144732833,-0.094680786,0.074944168
3.53,-0.141661733,-0.094312668,0.081597805
3.54,-0.146861881,-0.134654999,-0.070968062
3.55,-0.20461005,-0.194264412,-0.116820365
3.56,-0.135680914,-0.189258575,-0.211925089
3.57,-0.127477229,-0.153236389,-0.004149735
3.58,-0.088127494,-0.023921967,-0.093548507
3.59,-0.086968958,-0.023915291,-0.094858438
3.6,-0.230117261,0.09815979,0.384615481
3.61,-0.228159964,0.098115921,0.380310327
3.62,-0.185082614,0.011933327,0.163460821
3.63,-0.186052799,-0.102972031,-0.165864319
3.64,-0.270652056,-0.201038361,-0.316611707
3.65,-0.268769622,-0.200963974,-0.317461014
3.66,-0.312756538,-0.172271729,-0.325647712
3.67,-0.078610718,-0.145971298,-0.356290907
3.68,0.161020398,-0.064749718,0.035333544
3.69,-0.075295508,-0.005290985,0.375274122
3.7,-0.37413007,0.245801926,0.586534858
3.71,-0.313857973,0.360575676,0.236447141
3.72,-0.25093168,0.322199822,-0.109522998
3.73,-0.350521147,0.360370636,-0.214662314
3.74,-0.353048325,0.360136032,-0.218530953
3.75,0.040018529,0.29989624,-0.487702698
3.76,-0.10220176,0.29682827,-0.346217394
3.77,0.215098053,0.28166008,0.539626122
3.78,0.51850909,0.060250282,1.094799399
3.79,0.518107891,-0.182613373,1.416677952
3.8,0.364715576,-0.176254273,1.719097257
3.81,0.358145833,-0.176941872,1.697142839
3.82,-0.293303162,0.0045681,0.56357944
3.83,-0.290905744,0.004499435,0.550339282
3.84,-0.392788529,0.028531075,-0.171162933
3.85,-0.611976385,0.028713226,-0.898252726
3.86,-0.522533655,-0.260949135,-1.484488249
3.87,0.18532595,-0.270767212,0.284300149
3.88,0.236599341,-0.256831169,0.344007939
3.89,0.448872984,-0.242715836,0.354194582
3.9,0.138154805,-0.19494915,0.428223461
3.91,-0.211713642,-0.182916641,0.434532344
3.92,-0.444262981,-0.089338303,0.212016255
3.93,-0.477511436,-0.026853561,-0.272414327
3.94,-0.474437743,-0.026715279,-0.272519112
3.95,0.497791916,-0.137008667,-1.408297896
3.96,0.989248574,-0.235542297,-0.884641647
3.97,0.980546475,-0.236017227,-0.899442017
3.98,0.130574435,-0.03758049,1.011550784
3.99,0.136393935,-0.037339211,0.985659242
4,-1.059966087,0.068640709,1.307052374
4.01,-1.042663455,0.069523811,1.289919615
4.02,-1.800227284,0.262328148,0.701666117
4.03,-1.40910399,0.218299866,-0.387644559
4.04,-0.785746217,0.06870079,-1.334324241
4.05,-0.804297507,0.0678339,-1.34858799
4.06,0.066589445,-0.04329586,-1.51535058
4.07,1.623377085,-0.211696625,0.278226495
4.08,1.605032206,-0.211979866,0.24714075
4.09,0.547882021,-0.254817963,1.100955129
4.1,-0.055686682,-0.196696281,1.164120555
4.11,-0.573505878,-0.198327065,0.93177104
4.12,-0.929042339,0.046608925,0.467311978
4.13,-1.05985713,0.26263237,-0.44287765
4.14,-0.713529348,0.08801651,-1.298688889
4.15,-0.282592028,0.032773972,-1.346345067
4.16,-0.299178422,0.032670021,-1.369455576
4.17,0.895636022,-0.302455902,0.996998906
4.18,0.881376326,-0.30213356,0.969483435
4.19,0.628415704,-0.502746582,1.389380217
4.2,-0.630079985,-0.097554207,1.323919654
4.21,-0.622896254,-0.097106934,1.320637465
4.22,-0.878046155,0.001029015,0.45317319
4.23,-1.009015441,0.034391403,-0.624559701
4.24,-1.017901063,0.034122467,-0.62795341
4.25,-0.183843017,-0.05234623,-0.412551016
4.26,0.111566901,-0.05974102,0.215676814
4.27,0.029303312,0.023984909,0.595903814
4.28,0.019975215,0.02394104,0.588632107
4.29,-0.105904639,0.035858154,0.503360689
4.3,-0.68012619,0.033452034,0.449635148
4.31,-0.68596822,0.033420563,0.445670337
4.32,-0.302952677,-0.117602348,-0.115819424
4.33,-0.315029472,-0.117908478,-0.118270755
4.34,0.149885804,-0.247166634,-0.189291477
4.35,0.711926937,-0.367028236,0.12504077
4.36,0.761878014,-0.398402214,0.666152537
4.37,0.695927084,-0.125518799,0.543267846
4.38,0.690292299,-0.12545681,0.538203359
4.39,-0.341382355,0.157306671,0.121809483
4.4,-0.804604769,0.258115768,-0.360096246
4.41,-0.800542951,0.258345604,-0.362286151
4.42,-0.893198967,0.150848389,-1.339688659
4.43,-0.890090227,0.151063919,-1.342149496
4.44,-0.703280687,0.022078514,-1.102646112
4.45,0.326815486,-0.281208038,0.553154767
4.46,0.680119515,-0.392668724,1.020203352
4.47,0.667983055,-0.391384125,0.991079211
4.48,0.513434827,-0.2750597,1.798700809
4.49,0.026179552,-0.167973518,1.630221367
4.5,-0.435105622,-0.08220768,0.819513798
4.51,-0.756852984,0.034212112,-0.041345894
4.52,-0.762667596,0.025470734,-0.748643637
4.53,-0.633994043,-0.041424751,-1.186614871
4.54,-0.367412418,-0.125314713,-1.563844681
4.55,0.233719453,-0.228313446,-1.609840393
4.56,0.641813636,-0.163840294,-0.711987615
4.57,0.624104381,-0.162319183,-0.73898828
4.58,0.809948087,-0.330191612,0.332593143
4.59,0.300370246,-0.310836792,1.779849291
4.6,0.300281972,-0.30810833,1.746375561
4.61,-0.958627939,0.031792641,1.787710667
4.62,-0.918149352,0.056607246,0.916824222
4.63,-0.433181822,-0.029514313,-0.104149759
4.64,-0.440877616,-0.029941559,-0.101215422
4.65,0.156984463,-0.181264877,-0.838477969
4.66,0.383630484,-0.315389633,-0.397917032
4.67,0.276427925,-0.305364609,0.272678375
4.68,0.274535835,-0.304650307,0.264114499
4.69,0.021456912,-0.13174057,0.160824776
4.7,0.029213518,-0.131420136,0.158847332
4.71,-0.853709877,0.065160751,0.033682287
4.72,-0.838361859,0.058308601,-0.016034961
4.73,-0.369400799,0.025184631,-0.269070506
4.74,0.067714229,-0.096338272,-0.342554629
4.75,0.277568847,-0.172073364,-0.350489855
4.76,0.459908903,-0.202157974,-0.458172888
4.77,0.588470101,-0.210392952,-0.098828495
4.78,0.406071901,-0.122803688,0.37082988
4.79,0.061238684,0.065765381,0.784776032
4.8,0.06437055,0.067349434,0.769234598
4.81,-0.46584028,0.216945648,0.644194901
4.82,-1.183422446,0.227568626,0.607105732
4.83,-0.772948027,0.070617676,0.579568863
4.84,0.028890863,-0.131835938,0.168662667
4.85,0.027151331,-0.131474495,0.164893508
4.86,0.315154254,-0.236789703,-0.061516345
4.87,0.719996274,-0.342300415,-0.027926087
4.88,0.83610189,-0.397761345,-0.291172743
4.89,0.758440495,-0.316775322,-0.269176602
4.9,0.753484607,-0.317173958,-0.265995503
4.91,0.180642039,-0.168889999,-0.307354271
4.92,-0.319860339,0.008541107,-0.000318527
4.93,-0.66725421,0.008944511,0.135326862
4.94,-0.666851461,0.009094238,0.133938551
4.95,-0.698272824,-0.091545105,0.182631016
4.96,-0.363594532,-0.340970039,0.5362252
4.97,0.133290142,-0.729828835,0.530438304
4.98,0.122866944,-0.730996132,0.540433168
4.99,0.801946163,-1.151438713,-0.335153818
5,1.240688443,-1.448255539,-1.2786026
5.01,1.512140393,-1.477558136,-2.2050879
5.02,1.48880899,-1.480681419,-2.17369628
5.03,0.381796926,-0.488321304,-1.550524235
5.04,0.106175631,0.051670074,-1.119981527
5.05,0.08023601,0.048557281,-1.081585646
5.06,-0.008821167,0.874233246,-0.885044396
5.07,-0.031596772,0.87176609,-0.849851787
5.08,0.324321866,1.133261681,-0.415504754
5.09,0.233524323,1.23952198,-0.281777173
5.1,0.210889295,1.238286972,-0.258140594
5.11,0.139309779,1.103023529,-0.316084534
5.12,-0.431441754,0.855035782,-0.845268726
5.13,-0.435406268,0.853585243,-0.819063306
5.14,-0.934064627,0.581764221,-0.636458397
5.15,-0.873896837,0.171391487,-0.270238489
5.16,-0.209816486,-0.886698723,0.380627394
5.17,-0.148259729,-1.202630043,0.241189718
5.18,0.13836351,-1.463842392,-0.298604757
5.19,0.127489939,-1.464128494,-0.288296431
5.2,0.533022881,-1.775953293,-1.211518288
5.21,0.752134681,-1.905852795,-1.686716914
5.22,-0.071557313,-1.519810677,-0.949942112
5.23,-0.116185919,-1.270038605,-0.851123512
5.24,0.169400811,-1.199663162,-0.947758555
5.25,0.149895221,-0.97129631,-0.922974706
5.26,0.145140141,-0.970575333,-0.934290886
5.27,-0.607006431,-0.644543648,-1.260176897
5.28,-1.006420493,-0.625325203,-1.418201208
5.29,-0.835734963,-0.694998741,-1.294455767
5.3,-0.832480371,-0.695412636,-1.288471937
5.31,-0.290896237,-1.105370522,-0.980653286
5.32,-0.265853196,-1.285536766,-0.896829426
5.33,-0.36237371,-1.324398041,-0.675042272
5.34,-0.229180872,-1.2218256,-0.875644684
5.35,-0.014736086,-1.107075691,-1.404314756
5.36,0.444061399,-0.752529144,-1.892570972
5.37,0.753967285,-0.28749752,-1.725070596
5.38,0.610729277,0.369496346,-0.887774944
5.39,0.27163437,1.287960052,-0.000566483
5.4,-0.171165317,2.266673088,0.508128107
5.41,-0.165760249,2.268324852,0.478434086
5.42,-0.485429227,3.334907532,-0.277986348
5.43,-0.198869333,3.479146957,-0.971739233
5.44,-0.475005209,3.584558487,-1.648007631
5.45,-0.463472903,3.584106445,-1.645142794
5.46,-1.031861424,3.527931213,-2.620690823
5.47,-1.083959937,3.490314484,-2.707031727
5.48,-0.812494755,3.505191803,-1.851394415
5.49,-0.899977922,3.766887665,-0.856195927
5.5,-0.626441002,4.110381126,-0.121847898
5.51,-0.215438843,4.097632408,0.828849018
5.52,-0.204602823,3.9083004,2.398609877
5.53,-0.491777718,3.453486443,3.403902769
5.54,-0.471103162,3.453184128,3.409259081
5.55,0.668984175,1.85067749,2.573493958
5.56,0.668315232,1.85006237,2.58511591
5.57,2.579759598,0.64343071,2.597550869
5.58,2.559132576,0.644414902,2.579114437
5.59,0.905286849,0.277737618,3.682781219
5.6,-0.345537931,0.395291328,3.989032984
5.61,-1.762414932,0.49373436,3.940422058
5.62,-3.090662003,0.512888908,3.828522205
5.63,-3.213326454,0.270626068,2.821485281
5.64,-2.697630644,0.214069367,1.679053903
5.65,-2.691217899,0.214560509,1.672509193
5.66,-1.811276197,0.456842423,0.438033521
5.67,-1.354842544,0.63704586,0.09954232
5.68,-0.729177415,0.616350174,0.057422817
5.69,-0.725307882,0.617875099,0.038186073
5.7,-0.07504867,0.097677231,0.863898635
5.71,-0.549549818,-0.433989525,1.65352869
5.72,-0.616286397,-1.151874542,1.980710983
5.73,-0.60972923,-1.148802757,1.946715713
5.74,-0.120093674,-2.773683071,1.766088963
5.75,0.272082299,-3.635118008,1.015368938
5.76,0.391425103,-4.362819195,0.374013484
5.77,0.213883147,-4.820309162,-0.181785405
5.78,-0.091140196,-5.070093632,-0.171354115
5.79,0.750831783,-5.248468876,-1.384663224
5.8,0.732625663,-5.248849392,-1.381130338
5.81,0.031319268,-4.993505955,-1.008795142
5.82,0.021263152,-4.994204044,-1.001884222
5.83,-0.265158355,-4.740943432,-0.261196554
5.84,0.185970306,-4.116911888,-0.833625078
5.85,0.16830051,-4.118332863,-0.818409681
5.86,0.17362383,-3.645842075,-1.121901751
5.87,-0.386647433,-2.615194321,-0.836839259
5.88,-0.634875059,-2.132556915,-0.319467008
5.89,-0.646576047,-2.133637428,-0.306577385
5.9,-0.954666495,-1.151321411,-0.387191892
5.91,-1.162956595,-0.64875412,-0.652769327
5.92,-1.158537626,-0.652413368,-0.611756802
5.93,-1.114818096,-0.060139656,-1.473772526
5.94,-0.497799754,0.364958763,-0.798525572
5.95,-0.282205492,1.040018082,0.285778105
5.96,-0.50827539,1.711119652,0.656206548
5.97,-0.502298951,1.709562302,0.677476585
5.98,-1.242834449,3.472406387,-0.023590267
5.99,-1.503761053,4.148126602,-0.401278436
6,-1.955192566,4.618151665,-0.129554719
6.01,-1.949248552,4.617085457,-0.112481564
6.02,-1.984724998,4.362529755,-0.331717134
6.03,-1.971739173,4.337706566,-0.631710291
6.04,-1.971046805,4.336274147,-0.605406165
6.05,-0.94394052,5.234427452,-0.235031501
6.06,-0.942866445,5.232132912,-0.185842976
6.07,1.778202176,5.153447151,1.82644093
6.08,2.500463009,5.000977516,2.699234009
6.09,2.105254889,4.45378685,3.298883677
6.1,1.2666471,3.452045441,4.725524426
6.11,0.795506716,2.048557281,5.782474041
6.12,1.201511383,0.504444122,5.793019772
6.13,1.17468679,0.504993439,5.790681362
6.14,2.075115919,-0.775224686,4.950526237
6.15,2.696694851,-1.809140205,2.933336258
6.16,1.515016437,-1.162510872,-0.899023414
6.17,1.060670137,-0.528037071,-1.316995502
6.18,1.131555557,0.022751808,-0.605139852
6.19,0.645959973,0.427776337,0.471007824
6.2,0.723024011,0.821185112,1.116825938
6.21,0.716936469,0.822189331,1.085100412
6.22,0.659493208,0.667805672,1.622821927
6.23,0.638846159,0.305294037,1.70014596
6.24,0.392422378,-0.418613434,1.547864437
6.25,0.38366127,-0.417181969,1.518704772
6.26,-0.822314978,-2.207454205,0.193167538
6.27,-1.154609442,-3.174839497,-0.966717899
6.28,-1.140838981,-3.175588131,-0.959014475
6.29,-0.980463088,-4.821422577,-1.280547023
6.3,-0.372496963,-5.475857258,-0.182731405
6.31,-0.566868007,-6.024687767,0.25344798
6.32,-0.528143525,-5.972693443,0.219261318
6.33,-0.197651327,-5.72440815,0.537725747
6.34,0.242539704,-5.440052986,0.633664131
6.35,0.505904317,-5.119586468,0.188540012
6.36,0.35624516,-4.712856293,-0.060111642
6.37,0.18941249,-4.217393875,-0.194745958
6.38,0.25373739,-3.817245007,-0.446100324
6.39,0.406775951,-3.400070667,-0.857538641
6.4,0.524603128,-2.851000786,-0.918232679
6.41,0.610516071,-2.289681911,-0.767399669
6.42,0.428680301,-1.563042641,-0.905074239
6.43,0.283961833,-0.724113464,-0.859663069
6.44,-0.067918375,0.030796051,-0.615430117
6.45,-0.205148339,0.644295692,-0.051935762
6.46,-0.16794169,1.111680984,0.416960537
6.47,-0.268286586,1.624293327,0.476859331
6.48,-0.317432523,2.081348419,-0.187258005
6.49,-0.310422659,2.080272675,-0.167504966
6.5,-0.788827539,3.082095146,-1.369674444
6.51,-0.775386989,3.681598663,-1.818860292
6.52,-0.615929127,3.455169678,-2.155272007
6.53,-0.610787988,3.454088211,-2.130091667
6.54,-0.567557037,3.154242516,-1.68054533
6.55,-0.552707255,3.479883194,-1.10851264
6.56,-0.239578858,4.346856117,0.059172958
6.57,-0.234396786,4.347259521,0.049206287
6.58,0.347308457,4.975024223,1.221001148
6.59,1.005370617,5.198078156,1.708066463
6.6,1.011169434,5.198460579,1.699679136
6.61,-1.168076634,4.66541481,4.873054981
6.62,-1.162034512,4.666777611,4.845072269
6.63,-0.406146646,1.750045776,7.084692478
6.64,-0.422960103,1.752635002,7.036739349
6.65,0.376145601,0.03849411,6.543733597
6.66,0.397243559,-0.680454254,3.696443081
6.67,-0.564710081,-0.219507217,1.844292402
6.68,-1.258480072,0.533242226,0.337082565
6.69,-1.268543243,0.534028053,0.326683462
6.7,-1.926693678,1.456534386,-0.454103351
6.71,-2.399311543,2.611263275,-0.403972238
6.72,-3.425510645,3.522179604,1.473920107
6.73,-3.11945343,2.79355526,2.748806477
6.74,-2.01262641,1.57418251,2.058061838
6.75,-1.084328294,0.100320816,0.929439008
6.76,-0.259287775,-1.29511261,0.313716054
6.77,0.321748257,-2.733587265,0.777377069
6.78,1.655008078,-4.086866856,0.468395293
6.79,1.757411003,-5.027421951,0.641907811
6.8,1.72211051,-5.023612976,0.603318572
6.81,1.6339854,-5.744448185,0.307927311
6.82,1.165772796,-5.852351665,0.390235663
6.83,0.565941632,-5.436843872,0.4374156
6.84,-0.227121323,-4.77101469,-0.24452734
6.85,-0.780712605,-4.418149471,-0.508658707
6.86,-0.840917707,-4.334780693,-0.308544278
6.87,-0.854905844,-4.335577965,-0.296337426
6.88,-0.318543702,-4.348277092,0.099599838
6.89,-0.149098903,-4.469509125,-0.255566239
6.9,-0.319467604,-4.567487717,-0.647069752
6.91,-0.522364855,-4.402757168,-1.196902156
6.92,-0.641898632,-4.039731026,-1.714837193
6.93,-0.755501151,-3.475602627,-2.022749662
6.94,-0.759209633,-3.478736401,-1.982209682
6.95,-0.253789663,-1.896818638,-1.79842186
6.96,-0.153670445,-0.820307732,-1.692990422
6.97,-0.141814277,-0.823968887,-1.646063328
6.98,-1.783838272,1.710281372,-0.834275127
6.99,-1.752136946,1.706728935,-0.792307615
7,-2.138527632,2.855237961,-0.474414676
7.01,-1.108116865,2.577382088,-0.656337142
7.02,-0.668281078,2.493886948,-0.826978385
7.03,-0.407878876,2.532822609,-0.768773437
7.04,-0.249293193,2.81388092,-0.701009035
7.05,-0.504043639,3.219755173,-0.660141349
7.06,-0.88847059,3.525439262,-1.052175999
7.07,-0.888314486,3.524835587,-1.034051895
7.08,-3.474126816,4.395672798,-2.000967741
7.09,-3.808731556,5.206299782,-1.759005785
7.1,-2.621783495,5.700602531,-1.155822277
7.11,-0.634934783,5.694441795,-0.65224117
7.12,1.076392293,5.664550781,0.032347515
7.13,1.077785254,5.663953781,0.08245258
7.14,2.657189846,4.770652771,3.20153141
7.15,3.081867456,3.832062721,4.652715683
7.16,3.07704711,3.832098961,4.672007084
7.17,2.578018188,0.906423569,4.715868473
7.18,2.064328671,-0.30252552,2.945631266
7.19,1.430454373,-0.795632362,1.480363727
7.2,1.429118752,-0.79561615,1.473094583
7.21,0.050013959,-0.515563011,-0.899747372
7.22,0.195805475,-0.089508057,-0.673232436
7.23,0.548576057,0.180908203,-0.156292245
7.24,0.440615952,0.398722649,0.478369296
7.25,0.450545818,0.398690224,0.461691409
7.26,1.297663927,0.109049797,0.3725034
7.27,1.301103354,-0.281000137,0.124216683
7.28,1.366532683,-0.658960342,0.8867926
7.29,1.382652044,-1.256840706,1.507079601
7.3,1.069326043,-2.137023449,1.534976244
7.31,1.062468171,-2.136012554,1.495191574
7.32,-0.166908339,-3.482980728,1.214809418
7.33,-0.647594571,-4.047184467,0.363067538
7.34,-0.81754458,-4.530299664,-0.225153461
7.35,-0.799163997,-4.530144215,-0.235806063
7.36,-0.554333985,-5.193334579,-0.151556298
7.37,-0.83024776,-5.217242718,0.263515472
7.38,-0.577229142,-5.135718346,0.123038054
7.39,-0.550652683,-5.135605812,0.118388176
7.4,0.092900917,-4.797845364,-0.824070811
7.41,0.176303357,-4.431079388,-1.030404687
7.42,0.192874849,-4.430245876,-1.049180269
7.43,0.101589181,-3.986060619,-0.927975416
7.44,0.133292839,-2.95258522,-0.766356826
7.45,0.129952595,-2.388216972,-0.938936472
7.46,0.279617459,-1.74006176,-1.224682927
7.47,0.33986187,-0.931800842,-1.355246425
7.48,0.340330064,-0.930819511,-1.372230291
7.49,-0.214043155,0.372211456,-0.789580703
7.5,-0.20718351,0.372349739,-0.790820122
7.51,-0.091895536,1.143102646,-0.299993664
7.52,-0.085326098,1.142425537,-0.287180513
7.53,-0.006272212,1.373773575,-0.217561573
7.54,0.178332374,2.203434944,-0.694050551
7.55,0.168288171,2.863017082,-1.062522411
7.56,-0.056660339,3.493721962,-1.654102802
7.57,-0.052832901,3.4923172,-1.622753024
7.58,0.149467737,3.862480164,-1.140083671
7.59,-0.209899843,3.524246216,-1.250298262
7.6,-0.20021753,3.52375412,-1.234607339
7.61,-0.372945666,4.596130371,0.557026267
7.62,0.064676315,4.555318832,0.374532878
7.63,0.598226309,4.552585602,0.11929065
7.64,0.849829078,4.968730927,1.8826195
7.65,0.513537049,4.652540207,3.942088842
7.66,0.062284619,3.500829697,5.321243286
7.67,0.081623226,3.500720024,5.341889381
7.68,-0.216829717,0.967488289,5.788444996
7.69,0.466619521,0.102873802,4.961908817
7.7,0.456643939,-0.11772728,3.626341343
7.71,0.007369056,0.066364288,2.288775206
7.72,-0.016644567,0.066208839,2.27486372
7.73,-1.312428713,1.41178894,0.125475586
7.74,-1.721565247,2.142015457,-0.426720649
7.75,-1.736539006,2.142037392,-0.434531897
7.76,-2.910138369,3.300971031,0.791572034
7.77,-2.931463957,3.021137238,1.094173908
7.78,-2.072441339,2.219347954,0.828530073
7.79,-2.070430279,2.219518661,0.82445842
7.8,-0.160255507,-0.37098217,0.437535286
7.81,0.245707586,-1.534403801,0.273052901
7.82,0.747608125,-2.53256464,0.474424154
7.83,1.081040382,-3.485041618,0.790388942
7.84,1.161958933,-4.334408283,0.667517543
7.85,0.980315685,-4.918008804,0.546191216
7.86,0.698530793,-5.336414337,0.333979219
7.87,0.676696241,-5.336007118,0.32374835
7.88,0.219573394,-5.402766705,-0.43416363
7.89,-0.033972926,-5.433856964,-0.797154665
7.9,-0.150338888,-5.25919199,-0.591317177
7.91,-0.243086219,-5.122742176,-0.563161969
7.92,-0.318053931,-4.897776604,-0.608593166
7.93,-0.441788971,-4.656217098,-0.695439935
7.94,-0.463023841,-4.364472389,-0.829178095
7.95,-0.430558264,-4.063216209,-1.094503522
7.96,-0.612685978,-3.65421772,-1.394696712
7.97,-0.744435549,-3.051270485,-1.48615396
7.98,-0.877001882,-2.44119215,-1.548376679
7.99,-0.883122087,-2.44183588,-1.5248878
8,-0.455611229,-0.888716698,-0.692539692
8.01,-0.5763762,-0.23823452,-0.252371907
8.02,-0.57324934,-0.239028931,-0.222674713
8.03,-1.378811121,0.916525841,-0.096064709
8.04,-1.275569081,1.334731102,0.108441979
8.05,-0.731706739,1.384501457,-0.277345181
8.06,-0.732993305,1.384203911,-0.251034975
8.07,-0.39372161,1.961130142,-0.133881018
8.08,-0.521545053,2.145471573,-0.290705383
8.09,-1.102340341,2.408860207,-1.099362373
8.1,-1.106317163,2.408899307,-1.088613272
8.11,-2.82200861,2.914060593,-2.720565796
8.12,-2.814730644,2.913888931,-2.718898773
8.13,-3.224176168,3.883244514,-1.72312355
8.14,-3.201102257,3.882807732,-1.71511209
8.15,-0.664227605,5.335735321,0.626199365
8.16,1.284636974,5.74745369,1.102094054
8.17,1.290086746,5.747768402,1.150588632
8.18,2.316568613,5.942281723,2.123511791
8.19,2.556777239,5.852113724,3.00673461
8.2,2.714671612,4.983942986,3.63993907
8.21,2.408292532,3.579426765,3.605511904
8.22,2.023017406,0.680559158,2.384244919
8.23,2.018147469,0.680929184,2.394488335
8.24,1.35831058,-0.674061775,0.375691801
8.25,1.126462579,-0.458616257,-0.247434288
8.26,1.141373158,-0.001523018,-0.083159149
8.27,1.315965295,0.51026535,0.479558587
8.28,1.694660187,0.681931496,0.820464671
8.29,1.692323923,0.681237221,0.791078687
8.3,1.47511363,1.037306786,1.487436414
8.31,1.468548894,1.036724091,1.45017457
8.32,0.584345877,0.655562401,1.205148339
8.33,0.580352128,0.655200005,1.16429472
8.34,0.005772963,0.01330471,0.745868564
8.35,-0.317090988,-0.999623299,0.322795451
8.36,-0.791321158,-1.895223141,-0.221344426
8.37,-0.80542165,-3.85871172,-0.323008418
8.38,-0.781689763,-3.858907223,-0.326830328
8.39,-0.95897013,-5.056225777,0.389761984
8.4,-0.841140151,-5.523217201,0.576175273
8.41,-0.48312372,-5.669264317,0.365225881
8.42,0.16573666,-5.547016144,0.381677687
8.43,0.50105232,-5.22834301,0.958862305
8.44,0.210776925,-5.002905369,0.515331268
8.45,0.180635095,-4.50680685,-0.305232585
8.46,0.235454992,-4.005836964,-0.523632884
8.47,0.262064457,-4.005164623,-0.541912615
8.48,0.271093428,-3.231065273,-1.830772161
8.49,0.561556816,-2.796990871,-1.678710222
8.5,0.834749699,-2.317514896,-1.038244486
8.51,0.790245473,-1.850110054,-0.723638892
8.52,0.787711561,-1.84960556,-0.747940958
8.53,0.329446554,-0.77401638,0.378188819
8.54,0.453333139,-0.232271195,0.415250301
8.55,0.474453211,0.321078301,0.092489153
8.56,0.474797487,0.321108818,0.092083782
8.57,-0.037581861,0.974553108,-0.374409378
8.58,-0.446445942,1.457784653,-1.500003457
8.59,-0.517880857,2.479585648,-2.517716885
8.6,-0.221503705,3.182944298,-1.610983849
8.61,-0.238327503,3.776250839,-1.279330254
8.62,-0.498200029,4.161340714,-1.40557909
8.63,-0.841285706,3.943180084,-1.34858799
8.64,-0.708193362,3.504950523,-1.027027965
8.65,-0.804268837,3.356538773,-0.172091797
8.66,-0.363137811,3.933713913,1.051653862
8.67,-0.351704568,3.933829308,1.064915776
8.68,0.585057139,4.613807678,0.930532575
8.69,0.353702396,4.542019844,0.597000063
8.7,-0.29189688,4.25262928,1.410310507
8.71,-0.747397244,3.257210732,2.587497234
8.72,-0.731019855,3.257745743,2.592442513
8.73,-0.292674512,0.310698509,4.712150574
8.74,0.546499312,-0.532078743,4.934463024
8.75,0.83459568,-0.611181259,4.3059659
8.76,0.766426444,-0.019883156,2.993005037
8.77,0.754914582,-0.020057678,2.979083776
8.78,-0.504149258,2.25908947,-0.078787416
8.79,-1.094245434,3.393785477,-0.538264036
8.8,-1.100841522,3.393554688,-0.535495281
8.81,-1.911272168,4.442065239,1.679937601
8.82,-1.704505444,3.426800728,2.594133377
8.83,-0.664826632,2.121741295,1.811436415
8.84,-0.556976914,1.113391876,0.461656749
8.85,-0.328928381,0.016374588,-0.099490441
8.86,0.074373394,-1.377599716,-0.208217815
8.87,0.266250819,-2.402863503,-0.449936748
8.88,0.24358803,-2.403401375,-0.444831669
8.89,1.177418232,-4.237807751,0.571391285
8.9,1.474882722,-4.925233841,0.968292832
8.91,1.375698805,-5.478419781,1.005968928
8.92,1.145612836,-5.672316074,0.766608059
8.93,0.669496059,-5.772688866,0.243841514
8.94,0.636697948,-5.772396088,0.230751142
8.95,0.28432402,-5.786354542,-0.269463062
8.96,0.094105184,-5.718736649,-0.522029638
8.97,-0.146646097,-5.555335522,-0.717851162
8.98,-0.646192551,-4.822198391,-0.557792544
8.99,-0.458265424,-4.450736523,-0.707011104
9,-0.517674387,-4.024586201,-0.877421677
9.01,-0.4991377,-3.493279457,-1.082407355
9.02,-0.523522735,-2.921368122,-1.15433991
9.03,-0.504898548,-2.258521557,-1.209367633
9.04,-0.554134846,-1.648358345,-1.055262685
9.05,-0.315851152,-0.896847725,-0.873346686
9.06,-0.481475413,-0.150123596,-0.548582077
9.07,-0.480087787,-0.150458336,-0.523093998
9.08,-0.870066643,0.423739433,-0.356711507
9.09,-1.885599971,1.761660576,-0.831076503
9.1,-2.018078327,2.170689583,-1.305569172
9.11,-1.99738121,2.170501709,-1.257264614
9.12,-1.893978477,2.527379036,-1.665319443
9.13,-1.641080976,2.767121315,-1.575166941
9.14,-0.93026942,3.239170074,-0.581063867
9.15,-0.929599524,3.23948288,-0.562903047
9.16,-1.738418341,3.481499672,-1.013251424
9.17,-2.5856812,3.491071701,-1.426545024
9.18,-2.57446003,3.491006851,-1.425271988
9.19,-3.435089827,3.59397316,-1.698776484
9.2,-1.43407619,4.643012047,-0.262660116
9.21,0.351838201,4.777881622,-0.072850287
9.22,1.211737037,4.724152565,0.090853617
9.23,1.219159245,4.725716591,0.137600169
9.24,2.226703644,3.891441345,2.483371973
9.25,2.337039709,3.076034546,3.650844097
9.26,2.030055761,1.848527908,3.924890518
9.27,2.1730721,0.738042831,3.815437317
9.28,2.523121357,-0.28192997,3.072348595
9.29,2.517733097,-0.809117317,2.290654898
9.3,1.710803032,-0.759370804,0.303687632
9.31,0.793054819,-0.146957398,-0.923865616
9.32,0.790279508,-0.147672653,-0.942214012
9.33,0.767974913,0.971886635,-0.067373842
9.34,1.159417391,1.210261345,0.28950879
9.35,1.372362375,1.374368668,0.86110878
9.36,1.362503052,1.373338699,0.820270896
9.37,1.231470942,1.415530205,1.387051702
9.38,0.875060439,1.165817261,1.438794374
9.39,-0.083628275,-0.237739563,1.168871641
9.4,-0.090691052,-0.238056183,1.126259685
9.41,-0.547193766,-1.186358452,0.809853315
9.42,-1.205992699,-3.259928226,0.492388815
9.43,-1.273628473,-4.076515198,0.131860182
9.44,-1.393690109,-4.792582035,-0.094137549
9.45,-1.36795485,-4.792781353,-0.095218621
9.46,-0.985396445,-5.580662727,-0.178035364
9.47,-0.555671573,-5.659739494,-0.070835724
9.48,-0.524060905,-5.659678459,-0.073623605
9.49,0.583444595,-5.223781109,0.361804009
9.5,0.608710885,-5.223584652,0.354935885
9.51,0.637001514,-4.217722416,0.377248317
9.52,0.870489121,-3.779230595,-0.303925157
9.53,0.888678551,-3.778882504,-0.317277402
9.54,0.85434401,-3.326014519,-0.712615967
9.55,0.683434248,-2.322399616,-0.981943905
9.56,0.807009995,-1.847980976,-0.781105995
9.57,0.669225335,-1.289855003,-0.840690196
9.58,0.666584492,-1.289727211,-0.85131824
9.59,-0.005014017,-0.195523262,-1.069395661
9.6,-0.136820003,0.029465675,-0.892954111
9.61,0.004823476,0.29032135,-0.505445004
9.62,0.00797902,0.290163994,-0.489737749
9.63,0.462218225,0.974656105,-0.539506257
9.64,0.456893206,0.974362373,-0.521633089
9.65,0.383931756,1.788154602,-0.87380445
9.66,0.255362123,2.752808571,-1.142403483
9.67,-0.481217653,4.162849426,-1.295609236
9.68,-0.681262195,4.136372566,-1.801615238
9.69,-0.686659396,4.136264801,-1.791004419
9.7,-1.130192637,3.992583275,-1.993889928
9.71,-1.125499487,3.992659569,-1.984423637
9.72,-0.86009562,4.603313446,-0.545842946
9.73,-0.339493215,5.075074196,0.436811179
9.74,-0.329142809,5.075293541,0.451668561
9.75,-0.328544498,4.96792984,0.43147099
9.76,-0.50300163,3.534306526,1.90233171
9.77,-0.477318645,3.535070419,1.925980926
9.78,-0.467202127,1.247023582,3.552854538
9.79,0.49309215,0.074432373,4.491716385
9.8,1.256325483,-0.464291573,4.980550766
9.81,1.1604532,-0.280393601,4.755627632
9.82,0.445288837,0.183512688,3.631936312
9.83,0.006475687,0.834197044,2.020801067
9.84,-0.64004457,1.453794479,0.418721527
9.85,-0.659009695,1.453359604,0.412299395
9.86,-1.553149223,2.159302711,-0.008672334
9.87,-2.909804344,3.128728867,0.692456782
9.88,-2.660127878,2.846017838,1.169833541
9.89,-2.003433466,2.084486961,0.888335407
9.9,-1.462624669,1.095598221,0.036556292
9.91,-1.466534495,1.095575333,0.043134209
9.92,-0.418183148,-0.961159706,-0.109808065
9.93,-0.146584958,-1.86392498,0.352025151
9.94,0.4517892,-2.826600075,0.779698134
9.95,0.906262636,-3.691165924,0.644941568
9.96,0.876667142,-4.287527084,0.576606751
9.97,0.653987289,-4.776095867,0.73541671
9.98,0.436112315,-5.080258369,0.601136982
9.99,0.074793011,-5.231129169,0.072629623
10,0.059412781,-5.231131077,0.081120096
10.01,0.032770857,-5.463337421,-0.266033083
10.02,0.013674527,-5.463268757,-0.259479702
10.03,0.006662674,-5.341064453,-0.140555531
10.04,-0.021958511,-5.0847435,-0.130247638
10.05,-0.36089471,-4.428554058,-0.648160934
10.06,-0.521905303,-4.200912952,-1.036868811
10.07,-0.741760969,-3.743407726,-1.365742207
10.08,-0.987254739,-3.185343742,-1.507681251
10.09,-0.913302839,-2.655967712,-1.371804357
10.1,-0.717714667,-1.968566418,-1.150571823
10.11,-0.719978511,-1.96827364,-1.133668303
10.12,-0.829938531,-0.624741554,-1.45756793
10.13,-1.130018473,0.170553207,-1.182210088
10.14,-0.975026548,1.085565567,-0.285664141
10.15,-0.768297136,1.883265495,0.627750814
10.16,-1.339261532,2.173441887,0.070022658
10.17,-1.333908319,2.399311066,-1.040394545
10.18,-1.319152594,2.400398254,-1.004027367
10.19,-0.8695333,2.686314583,-1.092221618
10.2,-0.864600539,2.687259674,-1.067316532
10.21,-0.784824669,2.790951729,-1.039116621
10.22,-1.441224933,3.093035698,-0.529527664
10.23,-2.586937428,2.985402107,-1.130395412
10.24,-3.823837042,2.956654549,-1.834225535
10.25,-3.802240372,2.95676899,-1.830813885
10.26,-3.02264595,4.063544273,-0.368688941
10.27,-1.089889765,4.160758018,-0.057942659
10.28,1.063522577,4.282880783,0.37501812
10.29,1.942191243,4.221264839,1.321495652
10.3,1.948559046,4.224443436,1.373607278
10.31,2.65444231,3.435076714,3.589042187
10.32,2.661677122,3.437978745,3.62970686
10.33,2.21504283,1.50098896,2.703638315
10.34,2.214707851,1.50247097,2.723209143
10.35,1.265759468,0.420814514,0.727072597
10.36,1.262345791,0.420050621,0.717613578
10.37,0.896780849,0.516727448,0.399391592
10.38,0.891943097,0.514868736,0.374934912
10.39,1.348510504,1.066226006,0.396924853
10.4,1.38024044,1.234753609,0.3574664
10.41,1.373024821,1.233351707,0.337419033
10.42,1.590130925,0.850800514,0.604533553
10.43,1.082324505,0.692811966,1.00601089
10.44,0.688670278,0.278372765,1.150339127
10.45,0.070508026,-0.250971794,0.986591578
10.46,-0.772518635,-1.18218708,0.582632422
10.47,-1.290967464,-2.100931168,0.286047548
10.48,-1.284980893,-2.102022171,0.258166164
10.49,-1.545867085,-3.982163429,-0.164311141
10.5,-1.528300524,-3.982545853,-0.176490516
10.51,-1.368770957,-4.883047581,0.112227991
10.52,-0.039367765,-5.927112579,0.859164596
10.53,0.27080673,-6.116359711,1.162934065
10.54,0.297956288,-6.116312981,1.153895974
10.55,0.420029521,-5.977319717,1.054918766
10.56,0.628916919,-5.565310955,0.382023484
10.57,0.758652747,-5.048015118,-0.193370163
10.58,0.78176105,-4.298700333,0.05481559
10.59,1.086573124,-3.214630127,-0.238518328
10.6,1.078724027,-2.69081974,-0.699688554
10.61,1.127335906,-1.958791733,-0.336341351
10.62,0.800836921,-1.497293472,-0.728309274
10.63,0.280357093,-1.021252632,-1.254579782
10.64,-0.000524983,-0.475595474,-1.105384111
10.65,-0.227457553,-0.109409332,-0.644175112
10.66,-0.342532098,0.036586761,-0.432822108
10.67,-0.273231715,0.244866371,-0.631671488
10.68,-0.11393261,0.498627663,-0.873510361
10.69,-0.046893433,1.07078743,-0.823794603
10.7,-0.025569901,1.839283943,-0.801591635
10.71,-0.025481939,1.839301109,-0.796465993
10.72,-0.237819314,3.41004467,-1.16514802
10.73,-0.23173824,3.41023159,-1.154549837
10.74,-0.572472274,3.755261421,-1.325543642
10.75,-0.688943863,3.429944992,-1.52953887
10.76,-1.21815908,3.071203232,-1.741797924
10.77,-1.595790148,2.990539551,-1.23514688
10.78,-1.518763065,3.456130981,0.003011897
10.79,-1.484157324,3.457523346,0.023172349
10.8,0.123771131,4.649072647,0.626688302
10.81,0.536322832,5.105916023,1.235840321
10.82,0.450760633,5.249524117,2.544199228
10.83,0.123897523,4.43815136,3.878678322
10.84,0.322095931,2.86528492,4.600910187
10.85,0.483105511,1.320409775,4.749794006
10.86,0.693243384,-0.072570801,4.759126186
10.87,0.891629219,-0.853956223,3.986017942
10.88,0.315561235,-0.865702629,2.884057999
10.89,0.292553574,-0.868169785,2.837080956
10.9,-1.712205768,0.321876526,0.453076065
10.91,-1.915733337,1.150767326,-0.023204938
10.92,-2.022841692,2.128658295,0.525206149
10.93,-2.493035793,2.776664734,1.688741088
10.94,-2.275264502,2.83649826,2.239528894
10.95,-1.61502099,2.264620781,1.7148031
10.96,-1.604713917,2.265065193,1.710848808
10.97,-0.553412318,0.158445358,-0.725876391
10.98,-0.155133814,-0.485556603,-1.012043834
10.99,0.473641247,-1.424435616,-0.383927852
11,0.451944947,-1.425380707,-0.387253195
11.01,1.266777039,-3.049842358,1.64185071
11.02,1.165759802,-3.649586201,1.057097077
11.03,1.132463098,-3.650726795,1.053884268
11.04,0.859490514,-4.551974297,0.714524448
11.05,0.555661202,-4.804264069,-0.200915456
11.06,0.229632199,-4.919903278,-1.233016372
11.07,-0.056167364,-4.953963757,-1.035071135
11.08,-0.085906386,-4.954379559,-1.017096162
11.09,-0.043988049,-4.8446064,-0.102291264
11.1,-0.340647101,-4.579134941,0.160801902
11.11,-0.319123387,-4.411677837,-0.032865763
11.12,-0.335937083,-4.169843674,-0.649237037
11.13,-0.555158615,-3.729146004,-1.260069847
11.14,-0.751708329,-3.218894958,-1.832811356
11.15,-0.958453178,-2.622327328,-2.013909578
11.16,-1.219536066,-1.862867355,-1.982582808
11.17,-1.34801352,-1.012276649,-1.521957755
11.18,-1.334909797,-1.011497498,-1.489096761
11.19,-1.463002682,0.416525841,-0.616435647
11.2,-1.448925138,1.093080521,-0.221074104
11.21,-1.097023964,1.413284302,-0.289243281
11.22,-0.602264464,1.458754539,-0.439786136
11.23,-0.399434745,1.456536293,-0.809960365
11.24,-0.387966394,1.458972931,-0.765063524
11.25,0.181954801,1.690761566,-0.987110972
11.26,0.176008746,1.692050934,-0.963799357
11.27,-0.478403956,2.992881775,-1.227473974
11.28,-1.375081182,3.502786636,-1.255979061
11.29,-1.383267045,3.502189636,-1.264386535
11.3,-3.857741356,3.649925232,-1.776408434
11.31,-4.569591045,3.410341263,-1.95820713
11.32,-4.541815758,3.411114693,-1.950048327
11.33,-4.307015419,3.719334602,-1.039123535
11.34,0.354753733,4.149085999,0.365461558
11.35,1.92239666,4.086601257,0.130985975
11.36,2.31443572,4.033936501,0.826285362
11.37,2.041062117,3.731687546,2.753418446
11.38,2.29968071,3.256017685,4.074259281
11.39,2.217523098,1.926753998,4.416633606
11.4,2.310535431,0.613277435,3.777492523
11.41,2.301083326,0.613278389,3.780013323
11.42,1.680599809,-0.344608307,0.181570828
11.43,1.429702759,-0.254231453,-1.082171559
11.44,1.728508353,0.079667091,-0.289897919
11.45,1.711169481,0.076334,-0.324166417
11.46,1.911552668,0.942082405,0.27231276
11.47,2.064787388,1.470496178,0.817336321
11.48,2.23643446,1.637195587,1.633254528
11.49,1.650802732,1.566649437,1.289172649
11.5,1.622057438,1.563462257,1.244828224
11.51,0.059685752,0.803868294,0.317183137
11.52,-0.458565086,-0.027561188,0.488748878
11.53,-0.476562232,-0.030361176,0.435458869
11.54,-1.363734484,-2.221080303,0.485647261
11.55,-1.37180233,-2.222910404,0.442091286
11.56,-1.433265448,-4.343227386,0.361295521
11.57,-1.42338264,-4.344017029,0.340317339
11.58,-1.289298296,-5.493794441,0.278725117
11.59,-1.132939219,-5.76469183,0.275716186
11.6,-0.750207484,-5.863073826,0.532000363
11.61,-0.201748967,-5.772236347,0.764339447
11.62,0.341128677,-5.39400959,0.848476827
11.63,0.632953882,-4.869618416,0.55702132
11.64,0.800202608,-4.352247238,0.224679843
11.65,0.881157875,-3.832433224,-0.002065107
11.66,0.851108849,-3.408398628,-0.491623759
11.67,0.871626437,-3.408277512,-0.507936001
11.68,1.118500352,-2.647105694,-1.01147604
11.69,0.889852524,-2.022538662,-0.926933289
11.7,0.890888333,-2.022830486,-0.9462412
11.71,0.366267651,-1.331035614,-1.046701789
11.72,0.020636767,-0.643939972,-1.048502207
11.73,-0.483474851,0.117510796,-1.154413819
11.74,-0.380302906,0.347449303,-0.963546276
11.75,-0.375630528,0.347530365,-0.968289375
11.76,-0.216669977,0.644479752,-0.814042032
11.77,0.180228621,1.793766022,-0.863617957
11.78,0.18089205,1.7937603,-0.866296828
11.79,0.2596398,2.557462692,-0.614738822
11.8,-0.155198664,4.26930809,-0.946006417
11.81,-0.155819148,4.269208908,-0.953448534
11.82,-0.090729415,4.441485405,-1.312255621
11.83,-0.367755354,3.976873398,-1.392392278
11.84,-0.365180224,3.976911545,-1.398149848
11.85,-0.795176387,3.876600266,-0.628564119
11.86,-0.782524347,3.877052307,-0.617679715
11.87,0.110833749,4.883213043,0.037537921
11.88,0.124310479,4.883899689,0.061943468
11.89,0.472222209,4.860826492,0.886798143
11.9,-0.267314971,4.208258629,1.05670464
11.91,-1.145577312,2.52109623,2.52032876
11.92,-0.806969702,1.027331352,3.563958645
11.93,0.565954566,-0.716173172,3.994432449
11.94,0.542639434,-0.717378616,3.974850655
11.95,1.698030233,-1.83711338,4.174161911
11.96,0.56797719,-0.856928825,3.608063221
11.97,-0.112252682,0.011223793,2.543896198
11.98,-0.136689782,0.010547638,2.507686138
11.99,-1.63619709,2.220047951,0.432387173
12,-2.817054749,3.371535301,0.474063277
12.01,-3.027514935,3.620530128,0.650532603
12.02,-2.475475311,3.318858147,1.040470481
12.03,-1.287320018,2.396968842,0.995924056
12.04,-0.41257757,1.439064026,0.767300367
12.05,-0.426815629,1.438788414,0.767070651
12.06,0.267124772,0.384982109,0.335096836
12.07,0.777889967,-1.320057869,0.6965819
12.08,1.134858489,-2.103268623,0.824128389
12.09,1.551176906,-2.869705677,0.698099494
12.1,1.562660217,-3.619348049,0.605675459
12.11,0.936687946,-3.949948788,0.603962123
12.12,0.121008456,-4.127250195,0.527808189
12.13,0.099708773,-4.127313137,0.533746004
12.14,-0.216550827,-4.385964394,0.113514893
12.15,-0.448430091,-5.039562225,-0.276938587
12.16,-0.465340614,-5.039443016,-0.245439887
12.17,-0.833132386,-5.360025883,-0.843143404
12.18,-0.8405599,-5.359585285,-0.800647795
12.19,-1.00989747,-5.282341003,-1.558526278
12.2,-1.009879351,-5.281586647,-1.516200781
12.21,-0.923636973,-5.089190006,-1.686298847
12.22,-0.520112157,-4.003766537,-1.070552707
12.23,-0.717160523,-3.349326611,-1.092859507
12.24,-0.846112192,-2.431462765,-1.157958031
12.25,-0.870122433,-1.515865326,-1.139762163
12.26,-0.859348238,-1.514856339,-1.111428738
12.27,-0.997398496,0.308145523,-0.533777297
12.28,-0.986634195,0.308999062,-0.512614965
12.29,-0.906900048,0.977739334,-0.06951946
12.3,-0.408592284,1.979413033,-0.479169011
12.31,-0.401209116,2.492928505,-0.541866899
12.32,-0.645499885,2.88210392,-0.303160071
12.33,-0.636980176,2.883566856,-0.276023924
12.34,-1.628933668,3.354605675,-1.212574005
12.35,-1.619428754,3.356272697,-1.18499136
12.36,-1.852789164,3.347496986,-1.265605092
12.37,-1.849000812,3.347849846,-1.26026082
12.38,-2.604883194,3.072710991,-1.798885345
12.39,-3.542316198,3.216736794,-1.555327415
12.4,-2.660567999,3.777853012,-0.525844336
12.41,-0.854548335,4.401833534,0.149927974
12.42,1.286005259,4.715790749,0.487451613
12.43,2.397106409,4.852996826,1.407915354
12.44,2.903159857,4.791434288,2.989347458
12.45,2.907716751,4.794306755,3.024110079
12.46,2.968799353,4.250678062,4.118528843
12.47,2.13209939,1.836143494,3.698064804
12.48,1.696770549,0.455002785,2.501019716
12.49,1.284865737,-0.399892807,1.324529767
12.5,1.280646324,-0.400512695,1.318318367
12.51,1.393185258,-0.77025032,-0.229899406
12.52,1.177704334,-0.333370209,-0.12929064
12.53,1.541062117,0.378552437,0.010302126
12.54,1.840243816,1.155257225,0.3954705
12.55,1.834023595,1.153738022,0.377416909
12.56,1.984892607,2.310920715,1.096859217
12.57,1.300158024,2.732941628,1.196954966
12.58,1.290809512,2.731035233,1.171866655
12.59,0.190160394,1.383021355,0.8007586
12.6,-0.04298903,0.200008392,0.597033978
12.61,-0.473380655,-1.248654366,0.389788956
12.62,-0.479960322,-1.250642776,0.356334716
12.63,-0.847186625,-2.650077343,-0.10567373
12.64,-1.000679135,-3.644218445,-0.178863943
12.65,-0.910186827,-5.444582462,-0.143366873
12.66,-0.841643214,-6.026033401,0.084470242
12.67,-0.57876277,-6.279522419,0.467020869
12.68,-0.552266955,-6.279497623,0.459971845
12.69,-0.192234203,-6.179377556,1.050823689
12.7,0.210004687,-5.823208809,1.352744579
12.71,0.464952767,-5.268192768,1.056836963
12.72,0.492018879,-4.732232094,0.577210665
12.73,0.319405437,-3.683794022,-0.85713613
12.74,0.339431405,-3.68413353,-0.879657745
12.75,0.354131192,-2.657544613,-0.115432859
12.76,0.376208305,-2.346966267,0.012455732
12.77,0.385198832,-2.34747839,-0.012908131
12.78,0.182639495,-1.282215118,-1.302016258
12.79,0.190870449,-1.282193184,-1.310469031
12.8,-0.29567939,-0.35057354,-1.651330233
12.81,-0.06951654,-0.086805344,-1.310492396
12.82,-0.064269274,-0.086508751,-1.307327747
12.83,0.20355916,0.193693161,-0.381106466
12.84,0.199635103,0.51213932,0.231176734
12.85,-0.03395021,0.995949745,0.213626087
12.86,0.081139803,1.551730156,-0.449430496
12.87,0.034167945,2.256095886,-1.08234477
12.88,-0.196154535,3.125823975,-1.4757303
12.89,-0.084582031,3.952486992,-1.719869971
12.9,0.020429999,3.76621151,-1.686920643
12.91,-0.069972008,3.440917015,-1.16364491
12.92,-0.393248409,3.230676651,-0.529597163
12.93,-0.589999259,3.727101326,0.535109282
12.94,-0.056213558,4.63818264,0.597024202
12.95,-0.039035648,4.639924049,0.620845437
12.96,0.164874047,5.042199135,-0.407408923
12.97,-0.374428392,4.551748276,1.293197989
12.98,-0.698736429,3.640384674,2.49280262
12.99,-0.542605639,2.421006203,2.598521471
13,-0.507093549,2.425807953,2.644927263
13.01,0.619383574,-0.066886902,2.964666843
13.02,0.710349739,-0.437859535,3.730343342
13.03,0.660075963,-0.200522423,4.033513546
13.04,0.645740271,-0.202084541,4.023845196
13.05,-0.072550833,0.5085392,2.435059786
13.06,-0.856177986,1.319125175,1.233207583
13.07,-0.880412877,1.315742493,1.200348377
13.08,-2.358199596,2.71827507,0.574701309
13.09,-2.658235073,2.807024002,0.596303165
13.1,-2.668923855,2.805299759,0.574162364
13.11,-1.223018408,1.594849586,0.372978866
13.12,-0.664865375,0.875609398,0.1975106
13.13,-0.674851894,0.874865532,0.192083031
13.14,-0.192702025,0.038433075,0.108675748
13.15,0.345977634,-0.678609848,0.341598392
13.16,0.892679691,-2.406340122,0.98956573
13.17,0.841849446,-3.205308437,1.124612331
13.18,0.864941418,-3.647488594,1.383540154
13.19,0.923384547,-4.077502728,1.613583446
13.2,0.894476414,-4.078669071,1.606916666
13.21,0.412028551,-5.017854214,-0.158850759
13.22,0.525973439,-5.042101383,0.070326537
13.23,0.497341514,-5.042386532,0.078810871
13.24,0.23598063,-4.757392406,-0.642047763
13.25,0.103898838,-4.443142414,-0.373045325
13.26,0.156930834,-4.037731171,-0.155760944
13.27,0.130954683,-4.036671638,-0.129492521
13.28,0.000225767,-3.728874683,-0.306651354
13.29,-0.072602443,-3.03299427,-0.488018215
13.3,-0.340228885,-2.612419605,-0.525033295
13.31,-0.741627395,-2.177162647,-0.67423749
13.32,-1.027626514,-1.731882095,-0.806371391
13.33,-1.150031567,-1.33635807,-1.098894358
13.34,-1.151653528,-1.332935333,-1.053090096
13.35,-1.314166546,-0.615624428,-1.029174566
13.36,-1.202319503,-0.185295105,-0.987140894
13.37,-1.188949466,-0.180847168,-0.937607348
13.38,-1.096623063,0.436851502,-1.337850809
13.39,-0.960544765,0.595088959,-1.29304564
13.4,-1.088523746,0.779590607,-1.352221131
13.41,-1.110388994,1.162652016,-1.367175698
13.42,-0.956370354,1.741341591,-1.141146421
13.43,-1.126081824,2.551522255,-1.111461163
13.44,-1.811660171,3.121322632,-1.351258397
13.45,-1.798280835,3.122650146,-1.341565847
13.46,-3.364315987,2.615436554,-1.944160581
13.47,-3.309372663,2.531924248,-1.703749537
13.48,-2.468631506,3.221001625,-0.539834261
13.49,-0.305404067,4.103464127,0.379480362
13.5,-0.28831178,4.108362198,0.414754868
13.51,1.887086391,4.314667702,0.75830543
13.52,2.516659737,4.226198196,2.473706245
13.53,2.021949291,3.859429359,2.603134632
13.54,2.024413109,3.862886429,2.62719202
13.55,1.477196097,2.134218216,1.370447278
13.56,1.471696615,2.135101318,1.377592564
13.57,0.91487509,0.758120537,0.222759724
13.58,0.948455572,0.879377365,-0.017009258
13.59,0.911038399,1.103108406,0.046289921
13.6,1.401047707,1.359550476,-0.027972221
13.61,1.776807547,1.74993515,-0.028956652
13.62,2.004828453,2.334008217,0.715385079
13.63,2.43475008,2.435914993,2.126214266
13.64,2.405218601,2.093361855,2.501794577
13.65,1.942513585,1.610807419,2.504051924
13.66,0.858886302,1.251924515,2.430116415
13.67,-0.0662435,0.263066292,1.007175922
13.68,-0.077537052,0.256736755,0.952564359
13.69,-1.175724387,-1.771642685,-0.467161775
13.7,-1.448642492,-2.702781677,0.005634665
13.71,-1.398447752,-3.505891323,0.233366966
13.72,-1.383824825,-3.508188725,0.207154334
13.73,-1.27475059,-4.788359165,0.772936583
13.74,-1.07727015,-5.203872681,1.13184917
13.75,-0.572429478,-5.482786179,1.365859747
13.76,0.31908071,-5.582012653,1.376810074
13.77,0.345919907,-5.582841396,1.358703613
13.78,0.91405052,-5.039878368,1.24466908
13.79,0.927449346,-4.618835926,0.961341143
13.8,0.953871787,-4.618934155,0.948557854
13.81,0.766692996,-3.625165939,-0.288934052
13.82,0.618196428,-3.311213493,-0.688635707
13.83,0.537223995,-2.99526453,-1.036787271
13.84,0.551009953,-2.995486736,-1.047520161
13.85,0.014097571,-2.253469467,-1.164577961
13.86,0.212775916,-1.74115181,-0.912633658
13.87,0.22359702,-1.190197945,-1.063600063
13.88,0.225156739,-0.667081833,-1.03638649
13.89,0.227844968,-0.66569519,-1.019942164
13.9,0.307961047,0.120901108,-0.439202011
13.91,0.409309208,0.449894905,-0.500087559
13.92,0.577034831,0.879236221,-0.672521889
13.93,0.622267306,1.540572166,-0.379374921
13.94,0.613735914,1.540807724,-0.371837795
13.95,0.307800055,2.989624977,-0.18775475
13.96,0.184624836,3.406665802,-0.622321129
13.97,0.17905958,3.407177925,-0.613681912
13.98,-0.041131437,3.117835999,-1.641321182
13.99,-0.392162919,2.969658852,-1.952488184
14,-0.88833487,3.419956207,-1.107276678
14.01,-0.255505145,4.531207085,-0.498439491
14.02,0.110090971,5.250020981,-0.38792783
14.03,0.45142284,5.485636711,-0.466212452
14.04,0.245824114,5.61163044,0.287478924
14.05,-0.557818532,5.47053051,1.375869632
14.06,-0.585240543,4.71542263,2.509506941
14.07,-0.167957634,3.133079529,2.720056057
14.08,0.114311129,1.752416611,2.584649324
14.09,0.343790352,0.208443642,2.86726284
14.1,0.712173164,-1.337402344,3.379985809
14.11,0.696819782,-1.33801651,3.381403685
14.12,0.813847661,-2.568927288,3.235537291
14.13,0.349923551,-1.797390938,3.126801491
14.14,0.32302469,-1.802336693,3.091553688
14.15,-1.41834271,0.464987755,2.259536743
14.16,-2.013542891,1.698651314,1.468957782
14.17,-2.025413036,1.695761681,1.443536282
14.18,-3.975340128,3.585382462,1.326181173
14.19,-3.517382145,3.507647514,1.30238533
14.2,-2.519415855,2.776657104,1.321367383
14.21,-1.484108806,1.911657333,1.270493984
14.22,-1.486673474,1.910862923,1.262773633
14.23,-0.666207194,0.753255844,1.234896898
14.24,-0.183727622,-0.739706039,0.79838109
14.25,0.118682772,-1.519260406,0.674561977
14.26,0.283365756,-1.954096317,0.646731257
14.27,0.119925037,-2.278963566,0.833324432
14.28,0.19051066,-2.434154987,0.826357007
14.29,0.097287595,-2.666121483,0.820407033
14.3,0.140720666,-2.668268204,0.9457286
14.31,0.179465458,-2.943212509,0.677711844
14.32,0.224202722,-3.167406082,0.18769145
14.33,0.201662391,-3.168409348,0.180765152
14.34,0.181157067,-3.353390217,-0.181699097
14.35,-0.225984797,-3.538306713,-0.340256512
14.36,0.076554321,-3.663403034,-0.363225877
14.37,0.363850176,-3.568323135,-0.040311694
14.38,0.337233126,-3.569046974,-0.046622515
14.39,0.198936492,-3.390062332,0.608770371
14.4,0.179536492,-3.390275002,0.607297063
14.41,0.038480174,-3.308652878,0.761979938
14.42,-0.286629468,-3.226545811,0.5041309
14.43,-0.412609339,-3.115293503,0.467118263
14.44,-0.224365875,-3.042166233,0.477869719
14.45,-0.090111725,-2.686352253,0.303038895
14.46,-0.210599452,-1.99510479,0.042402208
14.47,-0.208278015,-1.993238449,0.065894425
14.48,0.245387629,-0.111600876,-1.299443722
14.49,0.12749058,1.188274384,-1.158793688
14.5,-0.060035445,2.583621979,-0.069644809
14.51,-0.054766566,2.584877014,-0.05582583
14.52,-2.02256012,4.803196907,-0.91652596
14.53,-2.018947363,4.803679466,-0.911298573
14.54,-2.631069183,4.25948143,-0.569390118
14.55,-2.270807743,1.557346344,-0.496135771
14.56,-2.266572237,1.556512833,-0.505739212
14.57,-1.715189576,1.02320385,-1.208326697
14.58,-1.136429787,1.831737518,-0.79631722
14.59,-0.09723442,3.244482994,-0.763501644
14.6,0.228760898,4.214918137,-0.823033035
14.61,0.241806269,4.218219757,-0.791173935
14.62,0.828845799,4.946115494,-0.004646897
14.63,1.432166338,5.410227776,2.599653244
14.64,1.432099581,5.4123106,2.619585514
14.65,2.855913639,3.271569252,2.621660709
14.66,1.73181963,1.913432121,1.610370278
14.67,1.720052719,1.914722443,1.623091221
14.68,0.514497399,-0.732721329,0.21705091
14.69,0.215696693,-1.66169548,0.612900496
14.7,0.208915651,-1.662436485,0.606803656
14.71,1.324560881,-2.202053547,0.881804466
14.72,1.615926385,-1.510793686,0.866670013
14.73,1.238518357,-0.409974098,1.091810346
14.74,1.23099649,-0.41087532,1.083992362
14.75,1.116552591,1.764095306,0.810179949
14.76,0.800501645,2.384317398,1.157785177
14.77,0.787307501,2.380757332,1.123885393
14.78,0.704116345,2.443060875,2.08679533
14.79,0.391489536,0.843550682,2.125327826
14.8,0.376163364,0.839320183,2.077274799
14.81,-0.142638981,-1.067802429,0.714222491
14.82,-0.105120055,-1.899376869,0.296111167
14.83,-0.110307396,-1.902139664,0.259458482
14.84,-0.177292734,-2.654176712,0.838510752
14.85,0.062054306,-2.651785851,0.952639937
14.86,0.064968735,-2.653754234,0.922693133
14.87,-0.008590207,-2.052100182,0.8602494
14.88,-0.003342073,-2.05368042,0.834578037
14.89,0.10391821,-1.293801308,0.418717951
14.9,0.002066214,-1.082235336,0.261484921
14.91,0.019093335,-0.894720078,0.524163425
14.92,0.528891742,-0.716889381,0.793911219
14.93,0.51604569,-0.718506813,0.755533278
14.94,1.334096909,-0.396676064,2.09752512
14.95,1.316872835,-0.39789772,2.060013294
14.96,0.856819391,-0.269406319,2.168776035
14.97,0.480889916,-0.339490891,2.236574173
14.98,0.472661614,-0.340043068,2.213407755
14.99,0.889334917,-0.752217293,1.249046683
15,0.852782905,-0.64221859,0.911984146
15.01,0.844483256,-0.642251015,0.905090869
15.02,0.700711429,0.1909132,0.447018534
15.03,0.401160896,0.751166344,0.317986697
15.04,-0.027103096,1.411933899,0.64331615
15.05,-0.448204875,1.768569946,0.473449439
15.06,-0.529711127,1.773298264,0.040508747
15.07,-0.425985545,1.347275734,-0.445547581
15.08,-0.4679901,0.751407623,-0.384156853
15.09,-0.392336726,0.095726967,-0.361033052
15.1,-0.13393867,-0.373141289,-0.35687983
15.11,0.315550804,-0.7821064,0.203953654
15.12,0.3219589,-0.781672478,0.218574286
15.13,0.131063983,-0.766818047,0.524719775
15.14,0.015068688,-0.373527527,0.207064763
15.15,0.031213768,-0.372710228,0.230376676
15.16,0.010348668,0.095122337,-0.209804744
15.17,-0.259609848,0.969918251,0.036188543
15.18,-0.070438616,0.977814674,0.365799785
15.19,0.11788784,0.698285103,0.42624259
15.2,0.189650103,0.253609657,0.423023105
15.21,0.077514112,-0.322608948,0.278344929
15.22,0.0869781,-0.321714401,0.295196384
15.23,-0.288052678,-1.204339027,-0.051027775
15.24,-0.277180284,-1.203624725,-0.039044499
15.25,-0.546628833,-1.488222122,-0.493927717
15.26,-0.565714181,-1.284679413,-0.491825044
15.27,-0.44857192,-0.973683357,-0.343641758
15.28,-0.443860203,-0.564665794,-0.068313658
15.29,-0.315258235,-0.107713699,-0.048683465
15.3,-0.315680862,0.201038361,-0.259093463
15.31,-0.263040692,0.603317261,-0.593383014
15.32,-0.201610535,0.780612946,-0.701329768
15.33,-0.197132796,0.781082153,-0.693200767
15.34,-0.111609414,0.862800598,-0.498646259
15.35,-0.071565501,0.771884918,-0.183575869
15.36,-0.488350242,0.496447563,0.22430405
15.37,-0.605922282,0.242652893,0.398557723
15.38,-0.488927394,-0.104371071,0.630237103
15.39,-0.569107413,-0.702710152,0.183602125
15.4,-0.615333378,-0.994320869,-0.323989868
15.41,-0.562959015,-1.051184654,-0.466731012
15.42,-0.549034834,-1.050785065,-0.462762117
15.43,-0.704586864,-0.841980934,-0.635688901
15.44,-0.715209127,-0.64740181,-0.833142221
15.45,-0.218111947,0.035370827,0.043711126
15.46,-0.209975988,0.035334587,0.0403741
15.47,-0.193881676,0.530558586,0.511065662
15.48,-0.556669951,0.630637169,0.396105349
15.49,-0.633710444,0.515446663,-0.058914483
15.5,-0.732100189,0.295297623,-0.529620647
15.51,-0.656882584,0.03487587,-0.891262114
15.52,-0.641700506,0.035831451,-0.880706787
15.53,-0.272681624,-0.370206833,-0.312172592
15.54,-0.22878772,-0.474747658,0.188918233
15.55,-0.175053358,-0.514929771,0.183398902
15.56,-0.166364729,-0.514508247,0.186091244
15.57,-0.172797531,-0.277147293,-0.075718343
15.58,-0.164344132,-0.12131691,-0.058759928
15.59,-0.159716457,-0.121397018,-0.062693477
15.6,-0.234369636,0.055576324,-0.1712026
15.61,-0.123363286,0.076924324,-0.257862806
15.62,-0.223866791,0.134216309,-0.245335996
15.63,-0.220368713,0.134137154,-0.248536825
15.64,-0.299461752,0.146161079,-0.264961124
15.65,-0.215250522,0.038493156,-0.163705111
15.66,-0.158084661,-0.00932312,-0.023884594
15.67,-0.154292584,-0.009305954,-0.02581203
15.68,-0.186401784,-0.028504372,0.126671672
15.69,0.040077835,-0.004700661,0.164066821
15.7,0.255631208,-0.122144699,-0.075545311
15.71,0.255173534,-0.122398377,-0.079799771
15.72,0.242660612,-0.065353394,0.104715139
15.73,0.289654404,-0.001167297,0.096668273
15.74,0.288324326,-0.001608849,0.089076251
15.75,0.218200624,0.036316872,0.137438029
15.76,0.184954062,0.050430298,0.137201428
15.77,0.0561288,0.074168205,0.104132414
15.78,0.051151723,0.078781128,0.076914877
15.79,-0.171646178,-0.007530212,-0.36803174
15.8,-0.176977426,0.025947571,-0.543464661
15.81,0.092923567,0.011576653,-0.092940301
15.82,0.089884356,0.011379242,-0.094640076
15.83,0.203662768,-0.09897995,0.219408602
15.84,0.20273754,-0.044129372,0.185974777
15.85,0.228692949,0.034626007,0.395801276
15.86,0.128045514,0.034323692,0.211892605
15.87,0.260008931,-0.028068542,0.131248981
15.88,0.053002179,0.034087181,0.431275964
15.89,0.056739837,0.062639236,0.448854595
15.9,0.098935574,0.033612251,0.228412747
15.91,0.197230533,0.00217247,0.044546694
15.92,0.136901885,0.004191399,0.151943386
15.93,0.008812189,0.008628845,0.143439919
15.94,-0.196032077,0.032416344,0.0444341
15.95,-0.208964378,-0.065662384,-0.12804988
15.96,-0.208468407,-0.065365791,-0.122142702
15.97,-0.145581335,-0.148762703,-0.243392617
15.98,-0.106602758,-0.203399658,0.003927708
15.99,0.060142756,-0.116804123,0.105659843
16,0.05245696,-0.054174423,0.156690836
16.01,-0.053870201,0.034797668,0.214588076
16.02,-0.210375428,0.164439201,0.245550036
16.03,-0.25780791,0.121678352,-0.097956121
16.04,-0.3574664,0.062274933,-0.310205638
16.05,-0.419999361,0.036480904,-0.377971351
16.06,-0.417507261,0.037037849,-0.369718492
16.07,-0.297695965,0.037595749,-0.344173193
16.08,-0.059001267,-0.014509201,-0.172416687
16.09,-0.088391989,-0.009213448,0.060564578
16.1,-0.165090114,-0.030249596,-0.020866692
16.11,-0.184375584,-0.015406609,0.014641821
16.12,-0.182002425,-0.014938354,0.021156907
16.13,-0.158307612,0.040614128,-0.020176709
16.14,-0.139960408,0.041175842,-0.220172584
16.15,-0.138400346,0.04189682,-0.209573686
16.16,-0.21951291,-0.024339676,-0.22950393
16.17,-0.130427361,-0.179150581,-0.189944327
16.18,-0.044578731,-0.163966179,-0.276690722
16.19,-0.030663818,-0.124867439,-0.148696125
16.2,-0.028931588,-0.124166489,-0.139467359
16.21,-0.039101452,-0.118741989,-0.032961249
16.22,-0.037084848,-0.118083,-0.024551749
16.23,-0.380734384,-0.01438427,-0.138007104
16.24,-0.375859201,-0.013544083,-0.128596306
16.25,-0.340073556,-0.029326439,-0.373647332
16.26,-0.122025669,-0.083593369,-0.127101719
16.27,-0.030661851,-0.20031929,0.220694244
16.28,-0.044085532,-0.128133774,0.344502002
16.29,-0.042252749,-0.127868652,0.34737584
16.3,-0.102517396,0.021017075,-0.536184192
16.31,-0.073986977,0.052786827,-0.394943595
16.32,-0.189514011,0.065170288,0.093336046
16.33,-0.188613564,0.065268517,0.094153821
16.34,-0.298983127,-0.147882462,0.237232804
16.35,-0.299677253,-0.147946358,0.236580491
16.36,-0.003961474,-0.1456213,-0.027032912
16.37,-0.151468843,-0.107248306,-0.066279531
16.38,-0.150403559,-0.106929779,-0.062651992
16.39,-0.20942843,-0.015340805,-0.152348638
16.4,-0.090374172,-0.050502777,-0.252548039
16.41,-0.007750183,-0.078467369,-0.077009797
16.42,-0.005412698,-0.07784462,-0.070515752
16.43,0.053082764,-0.07254982,0.023994744
16.44,0.093159109,-0.057795525,0.114993393
16.45,-0.025809586,-0.074259758,0.095446825
16.46,-0.132540911,-0.059609413,-0.115950346
16.47,-0.167351127,-0.107251167,-0.277852356
16.48,-0.169243515,-0.107172012,-0.275996804
16.49,-0.131204784,-0.10247612,-0.137239456
16.5,-0.112553805,-0.093123436,-0.042791486
16.51,-0.09219417,-0.057436943,-0.03223294
16.52,-0.119554311,0.019058228,0.070651054
16.53,-0.103353143,0.042939186,0.006731093
16.54,-0.072809935,0.042990685,-0.132933378
16.55,-0.0756706,0.043113709,-0.130241633
16.56,-0.029782355,0.007097244,-0.218083084
16.57,-0.001589835,0.00921917,-0.042129278
16.58,0.144605234,0.056633949,0.242297947
16.59,0.089410886,0.077749252,0.153766513
16.6,-0.022640526,0.070282936,-0.103262603
16.61,-0.103020668,0.055742264,-0.136712611
16.62,-0.118397385,0.055516243,-0.022521853
16.63,-0.033194989,0.040893555,0.165794969
16.64,0.047332823,0.052694321,0.136868417
16.65,0.041933596,0.052672386,0.138512433
16.66,-0.067422539,0.05523777,0.067520797
16.67,-0.297513962,0.05556488,-0.471192062
16.68,-0.28703168,0.055932999,-0.435216129
16.69,-0.288456738,0.056184769,-0.431798995
16.7,-0.029052198,0.029734612,0.22888875
16.71,0.197672516,-0.035048485,0.619160831
16.72,-0.036285296,-0.073236465,0.478178799
16.73,0.092262983,-0.159245491,0.289611459
16.74,-0.018249735,-0.192541122,-0.544837534
16.75,-0.058863178,-0.060343742,-0.672467589
16.76,-0.004240483,0.057163239,-0.039834082
16.77,0.118261054,0.162181854,0.644842625
16.78,-0.062344,0.128155708,0.796185672
16.79,-0.104796678,0.056106567,0.471539348
16.8,-0.070091844,0.005806923,-0.076040804
16.81,-0.369656682,0.01558876,-0.173555851
16.82,-0.370129287,0.015818596,-0.170677126
16.83,-0.293778777,-0.019885063,-0.156444252
16.84,-0.007424966,-0.038881302,0.080330551
16.85,0.080606729,0.006676674,0.435721576
16.86,0.080104917,0.006731987,0.436262548
16.87,-0.002894491,0.050098419,0.14471662
16.88,0.002876639,-0.004400253,-0.040606678
16.89,-0.037237689,-0.04195118,-0.06336832
16.9,-0.036343664,-0.041194916,-0.055221856
16.91,-0.01726079,-0.040633202,-0.041856229
16.92,0.034556344,-0.025887489,0.259368658
16.93,-0.023682788,0.015063286,0.302985132
16.94,-0.02434504,0.015286446,0.305688262
16.95,-0.20590283,0.061125755,0.223127246
16.96,-0.133640289,0.044804573,-0.052444279
16.97,-0.133595854,0.045207024,-0.04804635
16.98,-0.133718029,0.00247097,0.058705688
16.99,-0.133387476,0.00279808,0.062041879
17,-0.144391745,0.02463913,0.045895636
17.01,-0.176317319,0.060752869,0.088332236
17.02,-0.1173563,0.053623199,0.177080572
17.03,-0.081994027,0.08472538,0.334320366
17.04,0.001633659,0.132555962,0.436222911
17.05,-0.113545269,0.079910278,0.340269804
17.06,-0.145845592,0.063411713,0.102707267
17.07,-0.057987943,-0.01276207,-0.118751049
17.08,-0.098080143,-0.045772552,-0.085408986
17.09,0.004919186,-0.110102654,0.07776171
17.1,0.005781069,-0.11001873,0.078308821
17.11,0.008939311,-0.107845306,0.355968475
17.12,0.010187551,-0.108035088,0.353633046
17.13,-0.074429601,-0.017006874,0.198056936
17.14,-0.073081404,-0.017119408,0.196662247
17.15,0.056392401,-0.108613968,0.45449996
17.16,-0.08267428,-0.092115402,-0.180445135
17.17,-0.014974654,-0.003482819,0.35155499
17.18,0.081428498,0.05600071,0.625160337
17.19,-0.047733739,0.012316704,0.099286973
17.2,0.032204375,0.057847023,-0.029839933
17.21,0.031843722,0.057806015,-0.030217528
17.22,0.003827676,0.059822083,0.198413312
17.23,-0.041921541,-0.019749641,0.257726729
17.24,-0.099444553,-0.010921478,0.338874221
17.25,-0.025257036,-0.028421402,0.415269405
17.26,-0.17704241,0.05965519,0.227846205
17.27,-0.176202744,0.059352875,0.224222481
17.28,-0.105179742,0.059200287,0.167043746
17.29,-0.103625789,0.059165001,0.166195333
17.3,-0.021085888,0.004083633,0.211221874
17.31,0.058183819,0.001759529,0.104210436
17.32,0.057898283,0.001923561,0.106241047
17.33,0.078780696,0.052434921,0.250176311
17.34,0.077992469,0.052581787,0.251995027
17.35,0.084480584,2.76566E-05,0.090698838
17.36,0.128666267,0.019236565,0.079602838
17.37,0.112384275,0.057517052,0.233116686
17.38,0.110412389,0.057374001,0.232121825
17.39,-0.123326883,0.047681808,0.25046587
17.4,-0.312550902,-0.002559662,0.289157987
17.41,-0.311184287,-0.002407074,0.290493608
17.42,-0.219261333,-0.040475845,0.180217564
17.43,-0.077588797,-0.054589272,0.09673959
17.44,-0.005504802,0.010269165,0.163654149
17.45,-0.00617525,0.010471344,0.165984631
17.46,-0.090734452,0.001040459,0.239651442
17.47,-0.164555132,0.003474236,0.175286651
17.48,-0.163912445,0.003490448,0.1754421
17.49,-0.025195897,-0.020421982,0.044053614
17.5,0.062318221,0.029837608,0.11837846
17.51,0.061164081,0.029876709,0.118963003
17.52,0.069498777,0.060966492,0.327388525
17.53,0.068866029,0.061128616,0.329339981
17.54,-0.091293201,0.061402321,0.188419044
17.55,-0.090404436,0.061718941,0.191754282
17.56,-0.161013365,-0.031276703,-0.127634823
17.57,-0.10247232,0.024313927,-0.127373397
17.58,-0.092146754,0.036787987,0.29217279
17.59,-0.091429546,0.0372715,0.297091544
17.6,0.126768038,-0.0460186,0.625556827
17.61,-0.173071384,-0.066757202,-0.197324216
17.62,-0.270057738,-0.116086006,-0.121219456
17.63,-0.151214212,-0.120089531,0.22110343
17.64,-0.148336604,-0.11960125,0.225171447
17.65,-0.01740855,-0.109510422,-0.006986916
17.66,0.054421768,-0.106770515,-0.080157697
17.67,-0.013494417,0.065610886,0.372476041
17.68,-0.086712644,0.067780495,0.308379531
17.69,-0.101960078,0.067511559,0.116749406
17.7,-0.152248606,0.067257881,-0.027052224
17.71,-0.183079585,0.067123413,0.050370634
17.72,-0.182192862,0.066989899,0.04885757
17.73,-0.054838017,0.069331169,0.184833229
17.74,0.045897171,0.016801834,0.298692524
17.75,-0.106102794,0.002770424,0.110304892
17.76,-0.102634817,0.003468513,0.116390646
17.77,-0.163124293,-0.072335243,-0.013066709
17.78,0.034419343,-0.12407589,-0.220293343
17.79,0.101186007,-0.082458496,-0.091990888
17.8,0.042758569,0.018795013,0.141948402
17.81,0.044235662,0.019275665,0.146093607
17.82,-0.217365235,0.067586899,0.293627501
17.83,-0.233679503,0.012987137,0.167867422
17.84,-0.163468212,-0.051131248,0.002244949
17.85,-0.148331672,-0.064901352,0.153297842
17.86,-0.204242408,-0.083472252,0.238911152
17.87,-0.199432373,-0.082803726,0.244063377
17.88,-0.132609397,-0.062811852,0.054260731
17.89,-0.101694971,0.007302284,-0.091359615
17.9,-0.109918982,0.043533325,0.023229122
17.91,0.026588798,0.084354401,0.078685224
17.92,0.056998566,0.13222599,0.283864856
17.93,-0.037398815,0.100989342,0.40207547
17.94,-0.117016673,0.077025414,0.305624425
17.95,-0.012269557,0.012525558,0.141340673
17.96,-0.011273235,0.012778282,0.14341861
17.97,-0.010535866,-0.097110748,-0.019770622
17.98,-0.060033232,-0.094594955,-0.06678164
17.99,-0.081385314,-0.006138802,0.073144615
18,-0.064863592,0.072723389,0.088697791
18.01,-0.065131307,0.072670937,0.088279843
18.02,-0.221820712,0.075309753,-0.058299899
18.03,-0.221910864,0.078205109,-0.020853281
18.04,0.039042532,0.042888641,0.513127744
18.05,0.039673239,0.043270111,0.516467989
18.06,-0.023191333,-0.250893593,0.179662585
18.07,-0.022032529,-0.250287056,0.184973478
18.08,-0.061060548,-0.216404915,0.185494542
18.09,-0.079851836,-0.094093323,0.219949603
18.1,-0.280975074,-0.043385506,-0.559841991
18.11,-0.133261353,0.019237518,-0.209845424
18.12,-0.141498089,0.081238747,0.176278174
18.13,-0.016616941,0.147686005,0.243211687
18.14,-0.019503295,0.14705658,0.238259375
18.15,-0.048435599,0.184740067,0.389007866
18.16,0.02741313,0.162929535,0.370052457
18.17,0.044988155,0.079208374,0.274656713
18.18,0.04474932,0.010131836,0.289501309
18.19,-0.066862226,-0.053879738,0.253463745
18.2,-0.086516619,-0.084169388,0.11863339
18.21,-0.081484199,-0.083154678,0.126218915
18.22,-0.112922043,-0.082036972,-0.238540888
18.23,-0.056784689,0.038573265,-0.02335155
18.24,0.067317426,0.053599358,0.163705349
18.25,0.027636498,0.054051399,0.289527476
18.26,-0.023724735,0.068764687,0.273233712
18.27,-0.021475792,0.069179535,0.276047885
18.28,-0.188640207,-0.006912231,0.191091299
18.29,-0.208598256,-0.047024727,0.233336449
18.3,-0.20420292,-0.046486855,0.236539006
18.31,-0.140115023,-0.098714828,0.248843491
18.32,-0.116948068,-0.129423142,0.251145899
18.33,-0.115176171,-0.081209183,0.233428538
18.34,-0.130555242,-0.090493202,0.112607837
18.35,-0.134200543,-0.037584305,-0.058891416
18.36,-0.061945379,-0.001565933,0.02732563
18.37,-0.047609925,0.029443741,0.164353967
18.38,-0.045773357,0.043487549,0.237543523
18.39,-0.153598189,0.084055901,0.257020712
18.4,-0.260204583,0.088869095,0.270425439
18.41,-0.126475215,0.045954704,0.155509293
18.42,-0.122584641,0.046319962,0.157396138
18.43,-0.180391669,0.001279831,0.209944964
18.44,-0.118916571,-0.031846046,0.2119838
18.45,0.047127068,-0.040963173,0.123776436
18.46,-0.080195665,-0.047657013,0.088996172
18.47,-0.254506081,-0.006380081,0.011318564
18.48,-0.250337571,-0.00580883,0.014792085
18.49,-0.312657267,0.035383224,0.096203208
18.5,-0.008279622,-0.107984543,0.176639676
18.51,-0.019501328,-0.131837845,0.433276475
18.52,0.004903167,-0.129683495,0.510133684
18.53,-0.073832005,-0.070257187,0.386616111
18.54,-0.117467374,-0.001162529,-0.088682055
18.55,-0.249237031,0.018043518,-0.42914319
18.56,-0.163846016,0.025493622,-0.132926822
18.57,-0.003794074,0.056614876,0.30530262
18.58,-0.005824387,0.056269646,0.303150415
18.59,0.039159209,0.120411873,0.541695356
18.6,0.036857367,0.119918823,0.538440704
18.61,-0.103035808,0.090949059,0.165597916
18.62,-0.133066267,0.028963089,0.05252564
18.63,-0.131133825,0.02947998,0.056275964
18.64,-0.026228011,-0.089591026,-0.003575802
18.65,-0.005005181,-0.13206768,0.058330417
18.66,-0.014875799,-0.165251732,0.350167036
18.67,0.039274752,-0.138645172,0.354355216
18.68,0.049156964,-0.090444565,0.201147258
18.69,0.048859745,-0.09006691,0.204524577
18.7,-0.207283795,0.0227108,0.170713067
18.71,-0.20633015,0.022830963,0.171334982
18.72,-0.250991941,0.063620567,-0.127398133
18.73,-0.312111437,0.094934464,-0.11670053
18.74,-0.279183537,0.114323616,0.056865573
18.75,-0.281355143,0.095457077,0.170949101
18.76,-0.277578563,0.095909119,0.173257351
18.77,-0.23197791,0.007892609,0.018143177
18.78,-0.083118588,-0.001073837,0.054664493
18.79,-0.072010964,0.037548065,0.220812857
18.8,-0.068830311,0.037631035,0.220345914
18.81,-0.096987993,0.040056229,0.293724954
18.82,-0.081422359,-0.05556488,0.166585803
18.83,-0.080310404,-0.093691826,0.118706107
18.84,-0.097982019,-0.107985497,0.244661629
18.85,-0.053916037,-0.139270783,0.304194689
18.86,0.040155023,-0.079574585,0.280039966
18.87,0.042350203,-0.07489109,0.160963357
18.88,0.013566226,-0.046105385,0.112399817
18.89,0.01562345,-0.045991898,0.112401009
18.9,-0.020938098,-0.014866829,0.154930353
18.91,-0.039082229,-0.060337067,-0.039290547
18.92,-0.179518223,0.009235382,-0.117516637
18.93,-0.130426586,0.097908974,0.052677393
18.94,-0.129377961,0.097887993,0.052076459
18.95,-0.02180481,0.071552277,0.109651327
18.96,0.046375066,0.002016068,0.736534596
18.97,0.016715288,-0.012882233,0.912096202
18.98,0.102966756,-0.083004951,0.542285562
18.99,0.103550971,-0.083407402,0.538582087
19,0.22094965,-0.078794479,0.22585249
19.01,0.153096288,-0.109828949,0.009052753
19.02,-0.01053676,0.014287949,0.572149575
19.03,-0.014683932,0.013333321,0.565832913
19.04,-0.057326555,0.002593994,0.504999578
19.05,-0.072919607,-0.058205605,0.021985531
19.06,-0.037643433,-0.058983803,0.116909087
19.07,-0.040325791,-0.059734344,0.111490548
19.08,0.017799705,-0.021739006,0.181351364
19.09,-0.079071045,-0.040920258,0.12885505
19.1,-0.005319983,-0.083851814,0.21192801
19.11,-0.006484926,-0.083772659,0.213090062
19.12,-0.008446574,-0.105298042,0.317128658
19.13,0.073123693,-0.112545013,0.219310045
19.14,0.07074526,-0.112553597,0.220237613
19.15,-0.254549861,-0.031110764,0.192688882
19.16,-0.128762722,-0.004793167,0.046959043
19.17,-0.080247939,0.04309082,-0.072106004
19.18,-0.082533419,0.043089867,-0.071048021
19.19,-0.191885859,0.078877449,0.177489638
19.2,-0.195159227,0.050103188,0.139137983
19.21,-0.159505516,0.026268959,0.049271941
19.22,-0.118953317,0.03605938,0.053533793
19.23,-0.01859197,0.021928787,0.160908401
19.24,-0.019599408,0.021936417,0.16150111
19.25,0.115457118,0.014715195,0.176156104
19.26,0.085235566,-0.004560471,0.20439589
19.27,-0.007095069,0.026413918,0.160472333
19.28,-0.061053306,-0.045704842,0.208685875
19.29,-0.017422646,-0.057936668,0.080314517
19.3,-0.062551677,0.020840645,0.26579839
19.31,-0.047418743,0.037376404,0.305229724
19.32,-0.065690249,0.034812927,0.318726182
19.33,-0.009346724,-0.022725105,0.167615712
19.34,0.060917914,-0.053876877,0.072182536
19.35,0.0829449,-0.053890228,0.142375171
19.36,0.082807004,-0.051721573,0.146044314
19.37,-0.120606601,-0.035203934,-0.075496197
19.38,-0.121221513,-0.035305977,-0.076158404
19.39,-0.226395726,0.089196205,-0.324991703
19.4,-0.064001501,0.144268036,0.142076016
19.41,0.158974737,0.08894062,0.5713346
19.42,0.154972225,0.088503838,0.569091797
19.43,0.197473332,0.040187836,0.726901174
19.44,0.112530977,-0.036870956,0.261294961
19.45,0.112826735,-0.036914825,0.260761261
19.46,-0.16797623,-0.033969879,-0.350330114
19.47,-0.167085141,-0.033708572,-0.348304153
19.48,0.071648568,0.068684578,0.646223128
19.49,0.067335665,0.067900658,0.641064704
19.5,0.025326371,0.045646667,0.516425133
19.51,-0.202041984,-0.014824867,0.0760746
19.52,-0.179019839,-0.070275307,0.022719622
19.53,-0.179067195,-0.070422173,0.02129221
19.54,0.03646782,-0.029798508,0.264726162
19.55,0.172840059,0.013339996,0.39926964
19.56,0.160331801,0.018251419,0.577754736
19.57,0.160335615,0.018318176,0.578274369
19.58,-0.140588433,0.078456879,0.137625456
19.59,-0.155534595,0.040754318,0.089780688
19.6,-0.055888712,0.022277832,0.088162541
19.61,0.047302127,0.034852982,0.170012534
19.62,0.080159158,0.037679672,0.267327189
19.63,-0.052580476,0.064249992,0.332117498
19.64,-0.201018781,0.05725193,0.185252488
19.65,-0.199710041,0.057593346,0.187769353
19.66,-0.202818364,0.051010132,-0.030301452
19.67,-0.34396404,-0.029571533,0.00460875
19.68,-0.185660243,-0.098366737,0.023633718
19.69,-0.129155457,-0.131328583,0.085387826
19.7,-0.169160187,-0.109331131,0.187145591
19.71,-0.168719739,-0.109052658,0.189283133
19.72,-0.107004315,-0.063471794,0.171287537
19.73,0.094221771,0.005923271,0.05921948
19.74,0.163818389,0.075091362,0.125556588
19.75,0.157765687,0.074624062,0.123791933
19.76,0.096478343,0.062176704,0.229689539
19.77,-0.01989311,0.090423584,0.268384934
19.78,-0.064253926,0.078006744,0.111002326
19.79,-0.070713788,0.077553749,0.109318972
19.8,0.111314178,0.026758194,0.00663054
19.81,0.183915421,0.073996544,0.13326937
19.82,-0.056801587,0.082913399,0.305031896
19.83,-0.298160464,0.08702755,0.126483142
19.84,-0.303000003,0.086616516,0.124412119
19.85,-0.204824984,0.07211113,-0.191363215
19.86,0.122889802,-0.004722595,0.62710005
19.87,0.156875163,-0.050933838,0.780859709
19.88,0.031544447,-0.082644463,0.291282773
19.89,0.027750313,-0.082772255,0.291168213
19.9,-0.039585948,-0.051868439,0.311711252
19.91,-0.040818691,-0.052172661,0.309328735
19.92,0.167572126,-0.032946587,-0.228060365
19.93,0.201721937,-0.006718636,0.186333954
19.94,0.03800714,-4.95911E-05,0.403661251
19.95,0.017590523,0.032614708,0.44083631
19.96,-0.057884187,0.000490189,0.35219115
19.97,-0.129892021,0.04744339,0.242071688
19.98,-0.107688457,0.075389862,0.075707793
19.99,-0.039243132,0.074906349,0.0051018
20,0.015280187,0.045969009,0.018312573
20.01,0.041632488,0.057814598,0.12811774
20.02,0.14717941,0.021807671,0.197130263
20.03,0.219229847,0.067278862,0.056181908
20.04,0.217206806,0.067430496,0.058224797
20.05,0.121920735,0.079543114,0.191573501
20.06,0.074633867,0.079739571,0.296794117
20.07,0.069758013,0.041654587,0.287311673
20.08,0.078854114,-0.034695625,-0.219365239
20.09,0.056745738,-0.065666199,-0.258085728
20.1,0.053878963,-0.065822601,-0.258690715
20.11,0.105605573,-0.020762444,-0.07745707
20.12,0.011606991,-0.004572868,0.095153093
20.13,0.192654848,0.052241325,0.075640142
20.14,0.143260181,-0.005831718,0.166729629
20.15,0.138758779,-0.006484985,0.161840737
20.16,0.436426193,-0.004799843,0.175813794
20.17,0.574500859,-0.036776543,0.404253244
20.18,0.676379025,-0.059105873,0.577731967
20.19,0.699178577,-0.122136116,0.463886619
20.2,0.544147074,-0.101132393,0.354212403
20.21,0.541520238,-0.101630211,0.34994483
20.22,0.190356568,-0.044709206,0.249459088
20.23,0.189049587,-0.04506588,0.246184647
20.24,0.096289016,-0.052599907,0.070809364
20.25,-0.090497941,0.018585205,0.189744115
20.26,0.00865756,0.070701599,0.184519649
20.27,0.007368118,0.070306778,0.180907846
20.28,-0.083188206,0.086852074,0.171473444
20.29,-0.208484054,0.127562523,0.188078463
20.3,-0.206228972,0.127799034,0.190001547
20.31,-0.162541151,0.17385006,0.189945221
20.32,-0.019134045,0.090781212,0.299503624
20.33,0.242244363,-0.004238129,0.438324571
20.34,0.315510899,-0.128081322,0.818333626
20.35,0.244501934,-0.194433212,0.193098068
20.36,0.241783902,-0.193935394,0.198386788
20.37,0.190579206,0.060113907,0.218167007
20.38,0.130304486,0.01748848,-0.131283283
20.39,-0.061746255,0.075601578,-0.002649188
20.4,-0.064259991,0.076077461,0.002252102
20.41,-0.425798893,0.076208115,0.487407208
20.42,-0.291308165,0.076016426,0.627638817
20.43,-0.090358108,0.034770966,0.482661486
20.44,-0.099188477,0.03427124,0.479305744
20.45,-0.081613436,0.074569702,0.405144692
20.46,-0.10409984,0.074414253,0.402338862
20.47,-0.376631081,0.100868225,0.260796547
20.48,-0.44986409,0.10115242,0.460469365
20.49,-0.456631959,0.101457596,0.464232564
20.5,-0.494758934,0.066081047,0.058115721
20.51,-0.50235188,0.066833496,0.065754294
20.52,-0.443108857,-0.018671989,0.005697846
20.53,-0.443440914,0.027386665,0.172046661
20.54,-0.417655736,0.087825775,0.766854823
20.55,-0.381258011,0.069313049,0.775593996
20.56,-0.387681305,0.070138931,0.783372283
20.57,-0.346358836,0.018440247,0.531364679
20.58,-0.2449518,-0.064349175,0.159678876
20.59,-0.467144519,0.027211189,0.347109139
20.6,-0.472164393,0.027625084,0.350883901
20.61,-0.655124068,0.178976059,0.175952673
20.62,-0.657323897,0.179780006,0.182855249
20.63,-0.526630104,0.226278305,-0.007355928
20.64,-0.390420675,0.205801964,0.17415446
20.65,-0.302563429,0.091840744,0.263464928
20.66,-0.303970367,0.092707634,0.270901799
20.67,-0.084216967,-0.002153397,0.053322911
20.68,0.021834157,0.015407562,0.208497584
20.69,0.016165171,0.01595974,0.213257372
20.7,0.090844132,-0.043510437,0.64260459
20.71,0.083854713,-0.043214798,0.645157218
20.72,-0.001899988,-0.155555725,0.867066681
20.73,0.014613193,-0.246372223,0.669754624
20.74,-0.057521705,-0.315608025,0.465415895
20.75,-0.064621598,-0.315493584,0.466200888
20.76,-0.173922449,-0.378199577,0.539080203
20.77,-0.344071299,-0.421783447,0.443963468
20.78,-0.472163409,0.037570953,0.184958696
20.79,-0.63211304,0.149456024,0.457265437
20.8,-0.424314976,0.239668846,0.527662337
20.81,-0.424809188,0.239172936,0.523597539
20.82,-0.410056889,0.265498161,0.499502361
20.83,-0.322862297,0.098015785,0.184516668
20.84,-0.038218964,0.232049942,-0.01935041
20.85,0.018834978,0.179045677,-0.134588838
20.86,0.150541723,0.223923683,0.389422536
20.87,0.323927432,0.239323616,0.8832497
20.88,0.318634599,0.238024712,0.872038543
20.89,0.265021056,0.102907181,0.736204624
20.9,0.033726402,0.083108902,0.498276055
20.91,-0.094708622,0.073174477,0.317973137
20.92,-0.331758201,-0.061040878,0.23314184
20.93,-0.32948032,-0.060889244,0.234385073
20.94,-0.416915,-0.273693085,0.248974085
20.95,-0.412080407,-0.273254395,0.252925992
20.96,-0.241003946,-0.320598602,0.250483632
20.97,-0.112290829,-0.386893272,0.06542623
20.98,-0.105606817,-0.385982513,0.073289871
20.99,-0.108195372,-0.236925125,0.277269602
21,-0.409676343,-0.052070618,0.120925427
21.01,-0.196240008,0.012595177,0.370180309
21.02,-0.179243133,0.086255074,0.57378906
21.03,-0.178197131,0.085359573,0.566249311
21.04,-0.311565459,0.101179123,0.354701102
21.05,-0.309902787,0.10009861,0.345562041
21.06,-0.310760051,0.089388847,0.517685354
21.07,-0.095750906,0.033466339,0.045832872
21.08,-0.092982024,0.032974243,0.041480541
21.09,-0.239442959,-0.087168694,0.052137971
21.1,-0.23948285,-0.04688549,0.223030567
21.11,-0.235925451,-0.047251701,0.219714642
21.12,0.02900953,-0.002358437,0.707697868
21.13,0.143391699,-0.096591949,0.963382244
21.14,0.167376608,-0.092830658,1.033347249
21.15,0.16492717,-0.093743324,1.025103211
21.16,-0.071315989,0.042286873,0.819894135
21.17,-0.071094453,0.041988373,0.81731993
21.18,-0.29702729,0.075570107,0.542476416
21.19,-0.645633459,0.083111763,0.401955843
21.2,-0.595496774,0.06437397,0.309907019
21.21,-0.456072718,-0.009498596,0.425505519
21.22,-0.43669495,-0.067137718,0.454978645
21.23,-0.551775038,-0.14410305,0.468663454
21.24,-0.775950134,-0.067876816,0.330969393
21.25,-0.720336795,-0.020212173,0.139679968
21.26,-0.654470384,-0.001080513,0.261458337
21.27,-0.622496784,-0.09683609,0.522513688
21.28,-0.394472569,-0.108867645,0.873755574
21.29,-0.220303744,-0.276668549,1.139910579
21.3,-0.339054227,-0.377524376,0.641599834
21.31,-0.322858393,-0.246100426,0.275239646
21.32,-0.343066871,-0.090975761,0.282424986
21.33,-0.343901843,-0.09188652,0.273982704
21.34,-0.192859352,0.072443962,0.58680588
21.35,-0.571957052,0.234539986,0.817189574
21.36,-0.940046668,0.095210075,0.326657951
21.37,-0.939036369,0.095029831,0.32498914
21.38,-0.736713469,0.039930344,0.003834844
21.39,-0.512816668,-0.079764366,-0.06074214
21.4,-0.623052716,-0.089366913,0.197391152
21.41,-0.386626601,-0.163695335,0.270588934
21.42,-0.392180085,-0.130327225,0.336016595
21.43,-0.363279641,-0.001309395,0.579892457
21.44,-0.360498488,-0.001671791,0.576345623
21.45,-0.40996787,0.062865257,0.108155608
21.46,-0.4065727,0.062721252,0.106446385
21.47,-0.369677246,0.069639206,0.319145322
21.48,-0.36703229,0.069288254,0.315635324
21.49,-0.324531615,0.111969948,0.665861249
21.5,-0.358796209,0.073278427,0.738477588
21.51,-0.356977761,0.07289505,0.734515131
21.52,-0.289938808,0.020645142,0.718740225
21.53,-0.273575932,-0.136839867,0.667221785
21.54,-0.215266109,-0.148156166,0.343570292
21.55,-0.203397974,-0.149297714,0.329767406
21.56,-0.292771548,-0.118826866,-0.002004743
21.57,-0.49530527,0.024511337,-0.292142689
21.58,-0.484847605,0.024312973,-0.296334267
21.59,-0.434939265,0.064723969,-0.217325985
21.6,-0.274958521,0.066666603,0.049331248
21.61,-0.178930208,0.054001808,0.507403851
21.62,0.085253909,0.014843941,0.815821886
21.63,0.075838938,0.057014465,0.811934412
21.64,0.010922223,-0.068411827,0.54703486
21.65,-0.196050197,-0.205648422,0.301056087
21.66,-0.093899861,-0.29715538,0.081407309
21.67,-0.081954807,-0.266425133,0.043324709
21.68,-0.075382799,-0.03937149,0.251727819
21.69,-0.143288165,0.084536552,0.395789623
21.7,-0.144442305,0.083860397,0.387933075
21.71,-0.014769718,0.243528366,0.482321292
21.72,-0.030416921,0.25966835,0.479789317
21.73,-0.135478586,0.374136925,0.282779157
21.74,-0.432849526,0.182204247,0.382681221
21.75,-0.345229209,0.052627563,0.536108434
21.76,-0.367003679,-0.072143555,0.71119225
21.77,-0.377432048,-0.249547958,0.270643473
21.78,-0.368546754,-0.249364853,0.270608366
21.79,-0.039869383,-0.203502655,0.062281907
21.8,-0.034121782,-0.203194618,0.064473867
21.81,0.074557811,-0.282171249,0.257872343
21.82,0.281223297,-0.270739555,0.717748642
21.83,0.279437184,-0.113581657,0.931448579
21.84,-0.348531842,0.151291847,0.787652195
21.85,-0.633304834,0.090626717,0.650693715
21.86,-0.624881268,0.090144157,0.641416788
21.87,-0.712053597,-0.004508018,0.061436594
21.88,-0.761426806,-0.16353035,-0.268706679
21.89,-0.812969327,-0.21231842,-0.502197027
21.9,-0.785700262,-0.332965851,-0.746059358
21.91,-0.61072135,-0.382030487,-0.59549284
21.92,-0.3852247,-0.292357445,-0.23849833
21.93,-0.380827338,-0.291069031,-0.224679649
21.94,-0.584138989,-0.098114967,0.13391453
21.95,-0.601522565,-0.044071198,0.170532644
21.96,-0.592803538,-0.042736053,0.182811081
21.97,-0.31739673,0.090164185,0.497818112
21.98,-0.312157393,0.091200829,0.507398963
21.99,-0.084296525,0.082576752,0.502651632
22,0.030172646,0.088162422,0.402832449
22.01,0.079164639,-0.059764862,0.362409651
22.02,0.217559993,-0.102625847,0.41542089
22.03,0.338284165,-0.062040329,0.24218905
22.04,0.420530707,0.052659988,0.31699729
22.05,0.168170899,0.162874222,0.344525039
22.06,-0.155512214,0.240096092,0.297652364
22.07,-0.152854949,0.241056442,0.30685097
22.08,-0.010311484,0.239626885,0.160863042
22.09,-0.011423826,0.240355492,0.168789744
22.1,0.065650195,0.101688385,0.474088341
22.11,0.406831414,0.06771946,0.864928007
22.12,0.432651639,-0.035636902,0.954145789
22.13,0.354572505,-0.045427322,1.186137915
22.14,0.283780187,-0.069190025,1.09815526
22.15,0.072285846,-0.102044106,0.786947846
22.16,-0.041296124,0.006881714,0.336352646
22.17,-0.103670657,0.065921783,-0.309254408
22.18,-0.23654595,0.136741638,-0.626474559
22.19,-0.186193615,0.218951225,-0.344883323
22.2,-0.040649205,0.162011147,0.008913159
22.21,0.196370199,0.138754845,0.16838938
22.22,0.186989203,0.13933754,0.176394522
22.23,0.313644379,0.137243271,0.675079227
22.24,0.47542426,0.072739601,1.267797589
22.25,0.713918567,-0.073139191,0.898498237
22.26,0.940927506,0.02733326,1.084364176
22.27,0.934479952,0.027338028,1.085755348
22.28,0.748429835,0.068741798,0.84179461
22.29,0.334082127,0.151459694,-0.19187665
22.3,0.332424998,0.152887344,-0.178630233
22.31,0.380573571,0.084626198,-0.064543486
22.32,0.365341455,0.080755234,0.39194715
22.33,0.252833426,0.081486702,0.901613593
22.34,0.252282202,0.082414627,0.909982204
22.35,0.380078912,-0.045387268,0.513342917
22.36,0.195439726,-0.069839478,0.502751172
22.37,0.289521009,-0.144358635,0.294947386
22.38,0.456105441,-0.192540169,0.05122304
22.39,0.455522358,-0.190666199,0.066761971
22.4,0.691093981,-0.011972427,0.22546649
22.41,0.689605475,-0.010533333,0.23727262
22.42,0.443276346,0.096353531,0.359630466
22.43,0.176918194,0.09809494,0.325175583
22.44,0.26027438,0.100092888,-0.013851523
22.45,0.26102373,0.101977348,0.00038743
22.46,0.260815948,-0.021278381,-0.162394404
22.47,0.324009121,-0.040044785,0.10658443
22.48,0.477046669,0.036398888,0.993958473
22.49,0.346903086,0.103149414,0.982701957
22.5,0.284287483,0.098999023,0.582962573
22.51,0.192806959,-0.021938324,0.320965767
22.52,0.132339999,-0.202623367,0.128779411
22.53,-0.025084615,-0.333140373,0.083873034
22.54,0.023810506,-0.382572174,0.048454404
22.55,0.186509982,-0.341398239,0.178026915
22.56,0.276745915,-0.18356514,0.487610936
22.57,0.132230103,0.024352074,0.678422988
22.58,-0.125763029,0.153414726,0.561266661
22.59,-0.147255242,0.239743233,0.154479504
22.6,-0.273584992,0.206792831,-0.179986596
22.61,-0.3349244,0.109302521,-0.291054487
22.62,-0.330411613,0.109606743,-0.289649844
22.63,-0.106971681,0.05675602,0.309385896
22.64,0.059555188,0.044267654,0.623753309
22.65,0.019835666,0.106152535,0.764565408
22.66,0.022733733,0.106225014,0.764421642
22.67,-0.065764844,0.082831383,0.556823492
22.68,-0.251905531,-0.101041794,-0.060786724
22.69,-0.306027979,-0.038449287,0.031452417
22.7,-0.078528792,-0.05045414,0.327040732
22.71,-0.076014459,-0.050794601,0.324103534
22.72,0.252699405,-0.096674919,0.725522935
22.73,0.050152272,-0.048680305,0.091766
22.74,-0.248945981,-0.096362114,-0.065320849
22.75,-0.180850148,-0.110861778,0.21061945
22.76,0.010237604,-0.140304565,0.202447653
22.77,0.225006878,-0.126796722,0.246461391
22.78,0.221852213,-0.127775192,0.239934564
22.79,0.182377189,0.12468338,0.731073916
22.8,-0.026303709,0.278942108,0.711703181
22.81,-0.027901798,0.277823448,0.703419924
22.82,-0.038674831,0.348798752,0.558222771
22.83,0.029194385,0.297949791,0.159171701
22.84,-0.036995649,0.194889069,0.163487315
22.85,-0.0335778,0.058356285,0.295028091
22.86,-0.015802771,-0.032743454,0.574553251
22.87,-0.028784782,-0.054465294,0.824808121
22.88,-0.055113643,0.024616241,0.758305669
22.89,-0.225782633,0.049394608,0.455546022
22.9,-0.263273954,0.036296844,0.222833991
22.91,-0.15477702,-0.062914848,0.074370503
22.92,-0.152406216,-0.061785698,0.082314253
22.93,-0.012403697,0.003574371,0.092270017
22.94,0.014157772,0.109146118,0.280761242
22.95,0.007081896,0.190651894,0.571106136
22.96,0.007667005,0.190804482,0.572265804
22.97,-0.137177289,0.236729622,0.575120032
22.98,-0.096011162,0.049394608,0.134379506
22.99,-0.093602955,0.049080849,0.131429434
23,0.032431096,-0.166973114,0.318268418
23.01,0.114251733,-0.139139175,0.557969689
23.02,0.113352746,-0.140454292,0.548264265
23.03,0.236993522,0.013562202,0.795066059
23.04,0.019870758,0.090789795,0.616962552
23.05,-0.020906985,0.096498489,0.354661167
23.06,-0.022194684,0.095616341,0.347945631
23.07,-0.18049711,0.042573929,-0.021304011
23.08,-0.148962349,0.02560997,0.118231535
23.09,-0.053094298,0.054048538,0.295457661
23.1,0.010762572,0.094483376,0.504123688
23.11,0.078928724,0.096495628,0.592429638
23.12,0.118073359,0.112971306,0.403717458
23.13,0.116457447,0.112796783,0.402748883
23.14,0.098047689,0.103090286,0.282176495
23.15,0.029346228,0.038251877,0.218879044
23.16,0.026030213,0.038035393,0.217864335
23.17,0.029472992,0.04246521,0.005203009
23.18,-0.081527829,0.094914436,0.21482712
23.19,-0.084418267,0.094688416,0.213582099
23.2,-0.063777179,0.094314575,0.867356062
23.21,-0.146151006,-0.018920898,0.567835689
23.22,-0.148044586,-0.019433975,0.56405437
23.23,-0.083755702,-0.175178528,0.091453552
23.24,0.034050956,-0.168109894,0.004241347
23.25,-0.032409191,-0.022065163,-0.137130261
23.26,-0.028744161,0.083580971,0.013346076
23.27,-0.027166843,0.083712578,0.014275551
23.28,-0.044147491,0.148225784,0.39571929
23.29,-0.022303313,0.092999458,0.343528092
23.3,0.100928664,0.092894554,0.222278833
23.31,0.214854449,0.073880196,0.150636435
23.32,0.21888268,0.074137688,0.151820064
23.33,0.251769364,0.07191658,0.389297545
23.34,0.238241255,-0.016573906,0.276767254
23.35,0.241394162,-0.016389847,0.277386308
23.36,0.160130516,-0.054672241,0.284254074
23.37,-0.036118001,-0.078660965,0.369506776
23.38,0.226917833,-0.083559036,0.293893695
23.39,0.142897859,-0.109861374,0.193648636
23.4,-0.013486981,-0.140685082,0.057478905
23.41,-0.257237703,-0.077960968,-0.23327601
23.42,-0.255424231,-0.077297211,-0.228284717
23.43,-0.43090111,0.019042969,-0.106880665
23.44,-0.299672514,-0.047761917,0.01195097
23.45,-0.066170007,0.014490128,0.253373504
23.46,-0.039270371,0.038192749,0.423709095
23.47,-0.06199646,0.049933434,0.371303916
23.48,-0.085725635,0.080887794,0.247050166
23.49,-0.182884991,0.063913345,0.287623644
23.5,-0.083009213,0.013333321,0.260147572
23.51,0.025483906,-0.042133331,0.057381868
23.52,0.026247889,-0.018461227,0.007082343
23.53,-0.047957122,-0.033067703,-0.033310413
23.54,-0.105548024,-0.004615784,-0.07623601
23.55,-0.096183062,0.002206802,0.057317376
23.56,0.013091683,0.032874107,0.206971347
23.57,0.009198993,0.075534821,0.215790927
23.58,-0.072884411,0.09233284,0.180381298
23.59,-0.072397798,0.09252739,0.181869388
23.6,-0.249934882,0.097493172,0.316817462
23.61,-0.108773857,0.037899971,-0.040719867
23.62,-0.055198461,-0.079073906,-0.064539909
23.63,-0.055820674,-0.078972816,-0.063499451
23.64,-0.069556147,-0.14612484,0.000732183
23.65,-0.169690371,-0.040963173,0.073904753
23.66,-0.17102629,-0.041332245,0.071262121
23.67,-0.029012293,-0.063297272,0.391425192
23.68,-0.050879866,-0.116503716,0.282451391
23.69,-0.111650825,-0.136295319,0.567782342
23.7,-0.008844852,-0.182699204,0.476806462
23.71,-0.083129823,-0.145359039,0.239579976
23.72,-0.083683968,-0.146148682,0.232903063
23.73,-0.120063067,0.037618637,-0.023370147
23.74,-0.066953212,0.087524414,-0.129082322
23.75,0.00245142,0.185098648,0.683468461
23.76,0.002483428,0.18191433,0.610897303
23.77,-0.119768232,0.085372925,0.320601046
23.78,-0.093056679,-0.025328636,0.103663802
23.79,-0.063821107,-0.135858536,0.101263762
23.8,-0.067405105,-0.136196137,0.099237204
23.81,-0.032109022,-0.119700432,0.408857524
23.82,-0.099080265,-0.16071415,0.471442998
23.83,-0.100313902,-0.160957336,0.469460905
23.84,0.003960729,-0.237812042,0.455647171
23.85,0.081756562,-0.235618591,0.190839648
23.86,0.04663308,-0.194962502,-0.017544746
23.87,0.044735417,-0.19490242,-0.016534686
23.88,0.090163305,-0.041817665,0.289224029
23.89,0.024242237,0.03208828,0.229762971
23.9,-0.058827162,0.082065582,0.211202145
23.91,-0.096266806,0.084100723,0.041374087
23.92,-0.18175447,0.081389427,0.05376184
23.93,-0.139969394,0.047516823,0.087299705
23.94,-0.04058294,0.006403923,0.264058292
23.95,0.073075101,0.01079464,0.366640389
23.96,0.069352865,0.010453224,0.36442858
23.97,-0.019487455,-0.013594627,0.203539848
23.98,-0.020134509,-0.013526917,0.204311371
23.99,-0.094272286,0.005701065,0.149921119
24,-0.086749285,-0.054073334,0.045160532
24.01,-0.086719766,-0.054009438,0.0458287
24.02,0.133134425,-0.049233437,0.196662605
24.03,0.050423563,0.015527725,0.226573467
24.04,-0.008014306,-0.010620117,0.065686464
24.05,-0.008612275,-0.010275841,0.068909526
24.06,-0.053989828,-0.014678955,-0.064184427
24.07,-0.104506031,-0.045445442,-0.029818892
24.08,-0.10510692,-0.045289993,-0.02835989
24.09,-0.063112944,-0.040578842,0.119603574
24.1,0.038127035,0.021550179,0.183525264
24.11,0.058185861,0.076537132,0.312425137
24.12,-0.110062778,0.081432343,0.248883784
24.13,-0.379280508,0.072231293,-0.356264472
24.14,-0.30684644,0.008115768,-0.414464235
24.15,-0.304677308,0.008511543,-0.411387324
24.16,-0.160503209,-0.025021553,0.014558554
24.17,0.201598167,-0.137883186,0.842875361
24.18,0.073359832,-0.152712822,0.625915945
24.19,-0.027822584,-0.100260735,0.135210097
24.2,-0.241274953,-0.121871948,-0.531409502
24.21,-0.240098894,-0.12182045,-0.531220794
24.22,-0.148093462,-0.036177635,0.163390398
24.23,-0.152024657,-0.037326813,0.153966665
24.24,-0.028580487,0.040341377,0.413533032
24.25,-0.166546956,0.063446045,0.116957665
24.26,-0.245246112,0.043711662,-0.144112825
24.27,-0.23417899,0.000273705,-0.14941442
24.28,-0.203536511,-0.02862072,0.043045282
24.29,-0.074110374,-0.069429398,0.104215086
24.3,-0.002701506,-0.122151375,0.072769225
24.31,-0.046722293,-0.126860619,0.279531896
24.32,0.010022208,-0.153183937,0.272690535
24.33,-0.184358016,-0.241624832,-0.073025107
24.34,-0.217065066,-0.310687065,-0.323643088
24.35,-0.208760828,-0.355662346,-0.213879466
24.36,-0.095602721,-0.295495987,0.037983418
24.37,-0.146749064,-0.20919323,-0.030314922
24.38,-0.238464788,-0.091756821,-0.088867188
24.39,-0.238787726,-0.091612816,-0.087557793
24.4,-0.365439385,0.078602791,-0.428008914
24.41,-0.44588697,0.098157883,-0.484411955
24.42,-0.407687664,0.141642571,-0.44300437
24.43,-0.454919189,0.228363037,-0.436462879
24.44,-0.513096154,0.253074646,-0.499865174
24.45,-0.523956239,0.256573677,-0.553447843
24.46,-0.516291678,0.257950783,-0.54298079
24.47,-0.402433574,0.089328766,-0.516075254
24.48,-0.446787298,-0.282662392,-0.560232401
24.49,-0.435444951,-0.281019211,-0.548730731
24.5,-0.448660791,-0.672272682,-0.251855016
24.51,-0.437335998,-0.670991898,-0.243845344
24.52,-0.356522292,-0.767961502,-0.368376494
24.53,-0.505504608,-0.645046234,-0.27122426
24.54,-0.405079842,-0.568016052,-0.187001467
24.55,-0.390549034,-0.496129036,-0.184404969
24.56,-0.382375091,-0.496284485,-0.187966466
24.57,-0.484231949,-0.393613815,-0.2022506
24.58,-0.828976274,-0.235778809,-0.611351728
24.59,-0.882588625,-0.237843514,-0.639025569
24.6,-1.049915075,-0.251443863,-0.74582696
24.61,-1.026895285,-0.249922752,-0.740816951
24.62,-0.889084399,-0.127948761,-0.616962552
24.63,-0.722062588,-0.077514648,-0.008002281
24.64,-0.765455842,-0.121001244,0.170598388
24.65,-0.97192049,-0.229289055,-0.454810143
24.66,-0.94148618,-0.226581574,-0.446207166
24.67,-0.847985029,-0.483670235,-0.777915597
24.68,-0.845292449,-0.48511982,-0.791083694
24.69,-0.616226852,-0.640388489,-0.911675453
24.7,0.21377793,-0.916514397,0.063920856
24.71,0.116311073,-1.015931129,0.217425346
24.72,0.384493172,-1.184718132,-0.083882332
24.73,0.298766315,-1.382252693,-0.100159168
24.74,0.507477939,-1.639891624,-0.191553354
24.75,0.495496422,-1.644430161,-0.22944206
24.76,0.758590937,-1.929561138,-0.361146867
24.77,0.705730319,-2.229454041,-0.371471882
24.78,0.760547996,-3.133056641,-0.944308639
24.79,0.964657903,-3.555527687,-1.545708418
24.8,1.543181777,-3.80333662,-1.74733305
24.81,2.268312454,-3.611661911,-1.519366145
24.82,2.664725304,-3.252733707,-0.993775249
24.83,2.790651321,-2.560784817,-0.474010021
24.84,2.897503376,-1.731230736,0.016746163
24.85,2.461076975,-0.8039217,0.227390781
24.86,2.350952387,-0.805135727,0.088844478
24.87,0.122007474,0.654857636,-1.329210281
24.88,-0.711755276,0.726529121,-2.836730719
24.89,-0.806724906,0.733423233,-2.95896244
24.9,-1.910501003,0.308584213,-3.200670242
24.91,-1.988434434,0.318556786,-3.312363625
24.92,-1.648844361,-0.793162346,-1.655353069
24.93,-1.415690899,-1.339529991,-1.728524923
24.94,-1.464262486,-1.327396393,-1.830703497
24.95,-0.598106146,-1.757043839,-1.480514884
24.96,-0.285103738,-1.645977974,-0.798327208
24.97,-0.00127399,-1.386140823,-0.105909228
24.98,0.196587682,-1.046080589,0.410799503
24.99,0.430584669,-0.716535568,0.454431295
25,0.336101651,-0.50758934,0.294133663
25.01,0.186675191,-0.33485508,0.098529458
25.02,0.149906039,-0.296475411,-0.074818134
25.03,0.31242168,-0.14262867,0.362261295
25.04,1.025043368,0.13366127,0.944115162
25.05,0.995216727,0.179786682,0.778649569
25.06,0.85565114,0.416873932,0.422288418
25.07,0.636135459,0.520380974,-0.90369904
25.08,0.43335259,0.519153595,-1.156178474
25.09,0.427738667,0.551026344,-1.254454136
25.1,1.327911496,0.13113308,-0.993625641
25.11,2.403533459,0.094848633,-0.437296629
25.12,2.278795719,0.182577133,0.413508415
25.13,1.444180489,0.488301277,0.14367342
25.14,1.418903112,0.51180172,0.089395523
25.15,0.898568392,0.774816513,-0.688729286
25.16,0.399904013,1.318958282,-1.608331203
25.17,0.368656635,1.333738327,-1.63433671
25.18,0.209385991,1.543619156,-1.379832268
25.19,0.298657894,2.126502037,0.270196199
25.2,0.100717068,2.777121544,0.734177351
25.21,0.088816524,2.792190552,0.70123148
25.22,-0.551914096,3.706809044,0.180999994
25.23,-0.982720971,4.147625923,-0.362760782
25.24,-1.275841951,4.497918129,-0.657460213
25.25,-1.525002241,5.049628258,-0.421044827
25.26,-1.945821643,5.684379578,0.505274773
25.27,-1.892587781,5.681679726,0.490770102
25.28,-1.389823556,5.637357712,2.496870995
25.29,-0.862843454,4.734792709,3.260776043
25.3,-1.072683454,3.719449997,3.516987085
25.31,-1.017683506,3.717642784,3.503500938
25.32,-0.681848347,2.327360153,4.012756348
25.33,0.217901826,0.642155647,4.885365963
25.34,1.012662411,-2.980424404,6.085727692
25.35,0.980707169,-2.936355114,5.995796204
25.36,-0.312077344,-3.579210758,6.314455032
25.37,-3.120176315,-1.973721027,6.000407219
25.38,-3.116374969,-1.941586971,5.932088375
25.39,-4.426211357,2.120773315,4.597782612
25.4,-4.359741688,2.118156433,4.584822655
25.41,-4.221068382,4.95493412,2.454930305
25.42,-4.087716103,5.713785172,2.452810764
25.43,-3.46724081,6.286302567,3.717411995
25.44,-2.338619232,6.886491776,4.860181808
25.45,-0.889762819,7.773833275,5.25617981
25.46,-0.820821941,7.757558823,5.281125546
25.47,0.608790398,9.278072357,3.673401833
25.48,0.678635478,9.253370285,3.719324589
25.49,0.176838487,9.702943802,1.504706383
25.5,0.235459626,9.674998283,1.562540531
25.51,-1.918462753,8.811230659,0.196361303
25.52,-2.709620953,7.917814255,0.788631439
25.53,-1.380383968,5.450416565,0.816707134
25.54,-1.384876251,5.410243988,0.91452837
25.55,1.519521713,-0.59187603,1.159672499
25.56,1.4905864,-0.64440155,1.299278259
25.57,3.357171297,-5.294610977,2.332421541
25.58,3.311921835,-5.341112137,2.470671892
25.59,2.824039698,-7.539446831,0.623063326
25.6,0.126082987,-10.44273758,-4.09988451
25.61,-1.485907674,-11.40083218,-4.645064354
25.62,-2.877723217,-11.93358135,-5.319524765
25.63,-2.928791523,-11.94941044,-5.254088879
25.64,-2.226755857,-12.17227554,-4.795102119
25.65,-0.229874283,-12.62521935,-3.498795509
25.66,-0.29280737,-12.61937332,-3.501731873
25.67,0.171194732,-12.96000385,-1.425704241
25.68,0.953642011,-12.334795,-1.174121976
25.69,1.613453746,-11.63004303,-2.496273279
25.7,1.738951683,-10.40742302,-2.800210714
25.71,1.701466799,-10.3973341,-2.820623159
25.72,3.185741901,-5.115327358,-2.032070398
25.73,2.75964427,-1.687854767,-0.378508568
25.74,3.453120708,1.5866642,1.859777689
25.75,3.462341309,1.583626747,1.866440296
25.76,3.970441818,8.017532349,2.073247671
25.77,3.276366949,10.20596313,2.063607931
25.78,2.544106483,12.11391258,2.941965103
25.79,2.306810617,13.39399529,4.197331429
25.8,2.966136456,13.80422211,5.181879044
25.81,3.001634121,13.79840755,5.187275887
25.82,1.362846494,12.3727541,2.5052948
25.83,0.65047729,10.344841,2.15744853
25.84,-0.37809068,8.862066269,2.202609301
25.85,-1.080564737,6.991788864,2.673156023
25.86,-2.036570311,4.883573532,3.785674334
25.87,-1.95346117,4.891093254,3.738037109
25.88,-1.311767101,3.722159386,3.784199476
25.89,-2.038653851,1.024842262,4.030128479
25.9,-1.008387923,-0.67365551,4.132208824
25.91,-0.911077857,-0.698161125,4.197177887
25.92,1.447480679,-6.191080093,4.613672256
25.93,-0.563774526,-7.805634499,2.127736807
25.94,-2.443339586,-9.657302856,-2.375805616
25.95,-2.383495092,-9.672685623,-2.324714661
25.96,-3.486051798,-12.4210186,-4.038471699
25.97,-3.455343008,-13.09712029,-2.937644958
25.98,-3.182285309,-13.3243103,-1.782686234
25.99,-3.157920122,-13.33790684,-1.731077194
26,-2.864224672,-13.69670105,-1.226155758
26.01,-2.362104893,-14.0478754,-1.176985741
26.02,-1.893969655,-13.72385406,-1.247358441
26.03,-1.433015585,-12.81725025,-1.208429694
26.04,-0.588157058,-10.77554226,-1.139292121
26.05,-0.605360687,-10.77240562,-1.152203202
26.06,0.101511732,-4.333207607,-0.461931348
26.07,2.043634176,0.073600769,1.541461468
26.08,2.03875494,0.07083416,1.55217576
26.09,1.978737831,10.71505356,0.640179157
26.1,1.999321818,10.71221066,0.651932716
26.11,-1.665293574,18.93907166,6.262309074
26.12,-0.835672259,18.79594803,16.14984703
26.13,-0.834148109,18.81160736,16.08876228
26.14,-1.014627218,15.67786217,17.45538712
26.15,-3.47064662,14.80071163,5.183393478
26.16,-6.192225933,14.32063961,-3.73516798
26.17,-6.482338428,13.16318703,-7.325041771
26.18,-4.045799732,10.5275774,-3.956473112
26.19,-1.010553122,7.695239067,-0.137678385
26.2,-1.039695263,7.685196877,-0.090299964
26.21,1.254172921,2.795575142,1.3525002
26.22,1.223829865,2.784576416,1.4084723
26.23,2.149576664,-1.656863689,3.811705589
26.24,3.399593353,-3.304603577,6.229907513
26.25,3.353070021,-3.319369316,6.317428589
26.26,4.386820316,-5.336986065,5.415388584
26.27,4.441518784,-7.258378983,2.902357817
26.28,1.373979807,-11.06672764,-4.703999996
26.29,-0.128361151,-12.07497215,-5.587519646
26.3,-0.390534401,-12.6837101,-4.640313625
26.31,-0.350736588,-13.28829193,-2.552417994
26.32,0.690352917,-14.01812744,-0.142722666
26.33,1.012718201,-14.5940094,2.046947479
26.34,0.89682591,-14.55010414,2.867782116
26.35,0.424949229,-14.01916695,1.6923244
26.36,0.381838679,-14.01716232,1.699262738
26.37,0.052803755,-12.37714386,-1.937937737
26.38,0.453064382,-11.33778191,-3.319103956
26.39,0.419785798,-11.33501625,-3.32212925
26.4,1.622041225,-6.997408867,-3.925329447
26.41,1.612029552,-6.997725487,-3.91388917
26.42,3.199898005,1.276834488,1.247801304
26.43,5.667494297,3.223719597,3.97838974
26.44,5.64909935,3.222311974,4.011054993
26.45,6.793283463,7.748415947,3.498296022
26.46,6.723223209,7.750296593,3.557993889
26.47,2.237457275,12.58994579,2.847649813
26.48,2.27871418,12.57919693,2.956802368
26.49,-1.11742723,15.71432304,0.389492065
26.5,-2.125014305,16.76736641,-3.498785973
26.51,-2.296840191,15.65359592,-3.143018246
26.52,-3.361858606,14.22054672,-3.118042707
26.53,-2.745310783,11.59690475,-0.144717276
26.54,-1.269828677,8.908654213,1.970799327
26.55,0.340419769,5.491296768,5.076372147
26.56,0.346002579,3.272652626,5.548738003
26.57,0.518350899,1.470299721,6.034518719
26.58,0.416489482,-1.337939262,6.486249924
26.59,0.252669931,-4.041579723,5.112883091
26.6,-1.060200214,-6.570489883,3.584396839
26.61,-2.526870012,-8.682943344,2.73323822
26.62,-4.803824902,-10.01652813,1.73831141
26.63,-4.713005066,-10.02207661,1.751942515
26.64,-5.291481495,-11.72618103,-0.323627472
26.65,-3.889874697,-13.42254734,-2.838235855
26.66,-3.434546471,-13.82513046,-2.110641479
26.67,-3.085624695,-14.17791176,-0.791832089
26.68,-2.289378166,-14.58082199,0.357262969
26.69,-2.125830173,-14.20440674,0.541549802
26.7,-2.127391338,-14.19891739,0.501830936
26.71,-2.634100676,-12.61314678,0.405114174
26.72,-2.422744036,-10.98274326,-0.47225976
26.73,-2.905133724,-7.418689728,-1.575082183
26.74,-2.879575968,-7.415613174,-1.59513998
26.75,-1.535535932,-4.677360535,-1.511288643
26.76,2.385659218,4.690367699,3.626300335
26.77,2.405681133,4.693442345,3.607692242
26.78,1.57148385,9.341835022,3.58774066
26.79,-1.763303876,16.87943459,7.815765858
26.8,-1.370926261,17.91931725,15.65633011
26.81,-1.008544445,17.60848236,18.03715706
26.82,-3.083065987,16.05698776,10.77229595
26.83,-3.080813408,16.0469265,10.82292938
26.84,-5.693156242,14.12274742,-5.036793709
26.85,-5.661462784,14.09912014,-4.900969028
26.86,-3.314937592,11.20529366,-4.704888344
26.87,1.235619068,6.134479523,-0.468048096
26.88,2.657170296,4.565870285,0.195374608
26.89,2.62147665,4.562982559,0.21170795
26.9,2.733231068,1.95426178,0.735574842
26.91,2.694267988,1.954792976,0.730784774
26.92,1.428730845,0.353653908,2.898055553
26.93,-0.193098858,0.128078461,4.256521225
26.94,-0.145703927,-2.243635654,3.541766644
26.95,-0.478283435,-7.035927296,1.04787147
26.96,-0.070275381,-9.706413269,0.252538443
26.97,0.150570527,-12.03715515,-0.312501192
26.98,0.152743325,-13.8535881,-1.012029886
26.99,0.134899631,-13.85952091,-0.953691423
27,0.769836307,-15.80841827,-3.299012661
27.01,0.731537819,-15.81418705,-3.225460052
27.02,2.570305824,-16.50989532,-1.810695648
27.03,3.39741683,-15.67132378,-0.40424794
27.04,3.404261112,-13.48508263,0.208592713
27.05,2.658471584,-10.99604702,0.112518072
27.06,1.630286455,-8.844834328,-1.190276861
27.07,1.593335629,-8.837556839,-1.240421534
27.08,0.660142839,-3.401275158,-1.690428734
27.09,0.647921383,-3.397119999,-1.720843792
27.1,2.743714094,0.563263893,-0.516345441
27.11,7.758019924,7.489212036,-0.602524817
27.12,7.23866272,10.46732616,-1.714756846
27.13,4.746211052,14.83147621,0.91455555
27.14,2.326377392,18.20648193,6.156301498
27.15,2.326991558,18.21359634,6.0994277
27.16,1.913621426,19.18658066,8.451008797
27.17,0.942258716,16.25492096,-0.747785926
27.18,-0.367056847,14.65598965,-1.904320002
27.19,-0.321235299,14.66111851,-1.9666996
27.2,-0.650337458,11.55013657,0.810868859
27.21,0.296452642,8.791391373,3.638231993
27.22,1.40108037,5.466308594,5.795361042
27.23,1.437106371,5.475996971,5.727498531
27.24,0.66324842,2.47325325,8.429209709
27.25,-2.111856937,-2.12828207,7.835715771
27.26,-2.013856173,-2.149560452,7.922773838
27.27,-3.94584465,-8.426834106,3.740925789
27.28,-3.952017546,-11.04457188,1.107978225
27.29,-3.466866016,-12.19543362,-1.705727339
27.3,-3.693309784,-13.20065308,-4.442747593
27.31,-4.579955101,-13.25290012,-4.685201168
27.32,-4.963323593,-13.08647728,-2.008177996
27.33,-4.256561279,-13.0781002,0.839898467
27.34,-4.749998093,-13.35120869,1.884410024
27.35,-5.186849117,-13.48898315,2.019762039
27.36,-5.180539608,-13.48082733,1.968536735
27.37,-5.256291389,-13.51240826,1.290709019
27.38,-2.240746498,-11.44029999,-1.274923563
27.39,-1.996994019,-9.586519241,-1.529934168
27.4,-2.746133089,-7.260885239,-1.90322423
27.41,-2.07221961,-4.602797508,-1.290128112
27.42,1.970112801,-0.212004662,0.71412766
27.43,5.722560406,5.276895523,2.613539696
27.44,5.249009609,10.723773,-0.212219477
27.45,5.263013363,10.73186874,-0.256422281
27.46,0.892163515,20.21159744,10.8822546
27.47,-3.215518713,19.95845032,20.99163437
27.48,-3.186003208,19.98591995,20.86597443
27.49,-6.955101013,15.55658531,5.369463921
27.5,-7.06742239,13.81383801,-3.975747347
27.51,-5.329329014,12.16178608,-4.674747467
27.52,-2.623543024,10.02352715,-1.719994783
27.53,0.196174383,7.259962082,0.224768877
27.54,1.87684083,5.090894699,1.780336976
27.55,1.873624802,5.087509155,1.797765017
27.56,2.377684832,3.878184319,2.342964649
27.57,1.244917274,0.447840691,3.292768002
27.58,1.231660962,0.445839882,3.302539825
27.59,1.255179524,-0.911429405,4.412065506
27.6,1.576568484,-2.759834766,3.860933781
27.61,0.764291167,-6.807337761,0.140179634
27.62,1.105189204,-8.769703865,-1.363502026
27.63,1.282269359,-10.99403954,-2.736071587
27.64,1.247505546,-11.00747108,-2.645871162
27.65,2.251233339,-14.21364975,-3.993561745
27.66,3.020299911,-15.25581169,-3.030311584
27.67,3.506871462,-15.17942429,-0.925814271
27.68,3.460098505,-15.17991257,-0.91322279
27.69,3.145135641,-14.43217468,1.903573155
27.7,2.31153512,-13.59859848,0.417449832
27.71,1.36693728,-12.45215511,-1.562303305
27.72,0.184166133,-10.80426311,-3.418503761
27.73,0.159980089,-10.80281067,-3.420853615
27.74,-1.840919375,-8.001413345,-5.855631828
27.75,-0.794522762,-5.853466034,-3.864908218
27.76,1.373002768,-1.920607567,-0.156119824
27.77,5.880306244,2.073992729,1.818683743
27.78,8.701794624,5.751432419,2.291534662
27.79,8.559566498,5.765019417,2.260784626
27.8,5.789777756,17.37644196,1.472478509
27.81,5.697163105,17.38834763,1.447850823
27.82,4.253668785,20.07941437,7.45021534
27.83,3.954563618,20.44560814,10.395998
27.84,1.17312789,19.35189056,6.371024132
27.85,-3.837556839,13.4376173,2.183510303
27.86,-3.799633026,13.44014835,2.14898777
27.87,-1.371846676,7.135631561,1.29825747
27.88,-0.714702487,4.363753319,1.816916823
27.89,-1.867811918,2.594778061,3.686755657
27.9,-1.698589563,1.276988029,6.621200085
27.91,-0.166309625,0.845623016,6.267659664
27.92,0.47601369,-1.480942726,5.295695782
27.93,-0.556237817,-3.244193077,3.449472904
27.94,-2.180245161,-5.111714363,1.106460214
27.95,-2.424837351,-7.444868088,-1.153612018
27.96,-2.333642483,-7.454026222,-1.100771785
27.97,-1.761242151,-12.35829163,-1.445781589
27.98,-1.922011018,-13.53261566,-1.740345478
27.99,-2.001215219,-13.88579178,-1.326228738
28,-2.498116016,-13.75811958,-0.347080648
28.01,-2.471483707,-13.76312256,-0.304340422
28.02,-4.60519886,-13.77682495,-0.381335855
28.03,-4.535530567,-13.85254192,-1.166312337
28.04,-3.418092966,-13.50497246,-1.238645434
28.05,-2.249275446,-12.2075901,-0.82211709
28.06,-1.252723455,-10.59738731,-0.700113893
28.07,-1.277728319,-10.59057808,-0.750834703
28.08,-0.98267436,-8.524025917,-1.126006365
28.09,-1.38518405,-5.348571777,-0.446889639
28.1,2.69265008,6.944102287,6.550991535
