Time (s),Linear Acceleration x (m/s^2),Linear Acceleration y (m/s^2),Linear Acceleration z (m/s^2)
0,-0.13725239,0.106024742,0.063736916
0.01,0.042515874,0.080010414,0.260822654
0.02,0.10672313,0.044444084,0.308080316
0.03,0.093675971,0.042409897,0.293700516
0.04,0.037448406,0.026054382,0.298901141
0.05,0.039157391,0.026382446,0.300616145
0.06,-0.021595299,-0.026046753,0.227484286
0.07,-0.056580722,-0.174282074,0.037047625
0.08,-0.055805266,-0.174176216,0.037480176
0.09,-0.14777714,0.007863998,0.096777678
0.1,-0.147125125,0.007678032,0.094225645
0.11,-0.152058184,0.107959747,0.19235301
0.12,-0.011439145,0.107681274,0.568485677
0.13,-0.01231432,0.107330322,0.565768242
0.14,-0.005554378,0.013879776,0.306774437
0.15,-0.09831512,-0.014743805,-0.154743671
0.16,-0.053423464,0.02167511,-0.340527475
0.17,-0.021755695,0.108358383,-0.013068974
0.18,0.082516134,0.108417511,0.45078373
0.19,0.108935297,0.160801888,0.737193048
0.2,0.106404364,0.160289764,0.734446347
0.21,-0.125768423,0.073739052,0.112987101
0.22,-0.243428171,-0.033846855,0.038116336
0.23,-0.161435545,-0.165267944,0.013959527
0.24,-0.060463548,-0.184018135,0.098904788
0.25,0.078907788,-0.140475273,0.351771832
0.26,0.148696244,-0.15682888,0.326654017
0.27,0.096185088,-0.10124588,0.223703027
0.28,0.053950489,-0.047931671,0.130934
0.29,0.054481506,-0.047365189,0.135981441
0.3,0.016328216,-0.080403328,0.106904566
0.31,-0.03871268,-0.056056976,0.062807858
0.32,-0.065666676,-0.017526627,0.094334364
0.33,0.004293084,-0.022339821,0.042852819
0.34,-0.036684275,0.023038864,0.096844912
0.35,-0.103877366,0.0588274,0.126562238
0.36,-0.096310735,0.025208473,0.15122807
0.37,-0.097573161,0.02511692,0.151416898
0.38,-0.034099936,0.015439987,0.187448442
0.39,-0.008271217,-0.116224289,0.214357793
0.4,0.065215528,-0.116336823,0.230736613
0.41,0.063959599,-0.11653614,0.230005384
0.42,0.06472677,-0.114472389,0.247344613
0.43,0.01764679,-0.124556541,0.382862091
0.44,0.099107444,-0.120340347,0.31002909
0.45,0.151399434,-0.063481331,0.234744608
0.46,0.057614028,-0.032988548,0.238287628
0.47,-0.007354736,-0.028815269,0.167633712
0.48,-0.033811033,0.01131916,0.092557967
0.49,-0.088996649,0.005982399,0.189955711
0.5,-0.125048757,0.017471313,0.153784573
0.51,-0.127627015,0.017186165,0.153225243
0.52,-0.163428485,-0.011532784,-0.074561834
0.53,-0.157597542,0.105910301,0.014027417
0.54,-0.21355015,0.096505165,0.119252026
0.55,-0.214299798,0.096629143,0.121175706
0.56,0.073778987,-0.078306198,0.669347227
0.57,0.136561573,-0.148166657,0.599691153
0.58,-0.020405531,-0.222852707,0.232626021
0.59,-0.063500285,-0.172837257,-0.112337112
0.6,-0.149567723,-0.065184593,-0.309764743
0.61,-0.06624639,0.023326874,-0.017954946
0.62,0.049945712,0.080134392,0.32576859
0.63,0.014033258,0.103131294,0.507267177
0.64,0.00987798,0.102216721,0.501866758
0.65,-0.086904287,-0.018136978,0.009946883
0.66,-0.07784003,-0.059326172,0.017237306
0.67,-0.042332888,-0.083664894,0.176036954
0.68,0.064853489,-0.103248596,0.25566709
0.69,0.062091827,-0.103544235,0.255027056
0.7,0.038455963,-0.031859398,0.238509715
0.71,0.027072012,0.032711983,0.026047587
0.72,-0.053763807,0.049529076,0.004261732
0.73,-0.007573724,0.0807724,0.095434606
0.74,-0.033707082,0.100002289,0.12429446
0.75,-0.036052406,0.100117683,0.127438605
0.76,-0.165179253,0.100197792,0.165897727
0.77,-0.135651946,0.092974663,0.245845795
0.78,-0.137800932,0.092692375,0.244832218
0.79,-0.151679754,0.099580765,0.166723192
0.8,-0.138813138,0.039467812,0.22051549
0.81,-0.201828122,0.034510612,0.197861671
0.82,-0.167954087,-0.011089325,0.146211207
0.83,-0.13865453,-0.056681633,0.125654161
0.84,-0.059159637,-0.075942039,0.093021691
0.85,-0.078781307,-0.069030762,0.234379232
0.86,-0.060678542,-0.023970604,0.465585828
0.87,-0.013942897,0.052065849,0.400796831
0.88,0.08729589,0.097010612,0.245931327
0.89,-0.008258224,0.096633911,0.234416544
0.9,-0.009534597,0.096408844,0.233218253
0.91,-0.091586769,0.096382141,0.171155334
0.92,-0.10962075,0.09641552,0.134277821
0.93,0.132404327,0.094017029,0.25578022
0.94,0.073487282,0.096161842,0.474223852
0.95,0.024080634,0.095759392,0.370208561
0.96,-0.161159575,0.09544754,0.113587439
0.97,-0.162332475,0.0953722,0.11378324
0.98,-0.268532276,0.095340729,0.164510191
0.99,0.019619882,0.004270554,0.480780661
1,0.084997177,-0.166150093,0.580397368
1.01,0.161477506,-0.161941528,0.544801295
1.02,0.124056399,-0.121876717,0.541515112
1.03,-0.150724292,-0.055515289,0.117141187
1.04,-0.15062815,-0.055682182,0.115303457
1.05,-0.158234537,-0.079435349,-0.275103748
1.06,-0.159803271,-0.079415321,-0.273730695
1.07,-0.004564881,-0.072651863,0.511860371
1.08,-0.00838387,-0.073209763,0.509232402
1.09,0.019025445,-0.138249397,-0.00667125
1.1,-0.006677032,-0.119440079,-0.062075019
1.11,-0.176270604,-0.126996994,0.083485305
1.12,-0.064696074,-0.091391563,0.04216361
1.13,0.080271602,-0.010250092,0.121269941
1.14,0.075894237,-0.010566711,0.121319652
1.15,0.115148902,0.082447052,0.33367765
1.16,0.041994572,0.089349747,0.175446272
1.17,-0.104454517,0.070124626,0.169665158
1.18,-0.106151581,0.070220947,0.171907961
1.19,-0.079090655,-0.077915192,-0.180516422
1.2,-0.080488741,-0.077533722,-0.175614059
1.21,-0.184704661,-0.12988472,-0.176217973
1.22,-0.211926997,-0.16556263,-0.079914629
1.23,-0.188380837,-0.06005764,-0.092369497
1.24,-0.188292742,-0.059924126,-0.091047883
1.25,-0.089859247,0.031071663,0.117265761
1.26,-0.116019726,0.086080551,0.329560697
1.27,-0.115315676,0.085976601,0.327960849
1.28,-0.135790646,0.090685844,0.462972641
1.29,-0.103272378,0.090664864,0.330041289
1.3,-0.093121529,0.026031494,-0.077221036
1.31,0.014282405,0.00199604,-0.046962798
1.32,-0.015384436,-0.029513359,0.021888971
1.33,-0.016292989,-0.02997303,0.017657638
1.34,-0.033526003,-0.020976067,0.160574317
1.35,-0.126994312,-0.019073486,0.258584797
1.36,0.02807802,-0.007465363,0.135728657
1.37,0.012972116,0.018533707,0.175818265
1.38,0.124472618,0.027729988,0.182216167
1.39,0.065518439,0.036964417,0.249244273
1.4,-0.139207125,0.043725014,0.090199828
1.41,-0.201193512,0.086447716,-0.124640048
1.42,-0.201607823,0.086168289,-0.127193809
1.43,-0.024465203,0.00920105,0.155689538
1.44,0.198392004,-0.056123734,0.405794978
1.45,0.191817075,-0.057020187,0.401276052
1.46,0.101804555,-0.053005219,0.206093013
1.47,-0.12246412,-0.032219887,0.581795573
1.48,-0.125378668,-0.03293705,0.576079011
1.49,0.034146309,0.040785789,-0.080506384
1.5,-0.050345421,0.081131935,0.013633251
1.51,-0.111078262,0.080612183,0.33374542
1.52,-0.115177274,0.079800606,0.327973843
1.53,-0.23084408,0.079068184,0.367787063
1.54,-0.243107557,-0.141815186,0.085163355
1.55,-0.125637651,-0.204619408,0.181278765
1.56,-0.070545733,-0.131024361,0.333967149
1.57,0.013172627,-0.074228287,0.18720752
1.58,0.010052145,-0.074774742,0.18335259
1.59,0.244853884,-0.015546799,0.213099957
1.6,0.240556568,-0.016235352,0.208658755
1.61,0.045882344,0.035939217,0.051816344
1.62,0.052160323,0.025911331,0.106617034
1.63,0.019807577,0.027828217,0.348106206
1.64,-0.086521447,0.072793007,0.435210943
1.65,0.046968102,0.072283745,0.053420067
1.66,0.035976827,0.062403679,-0.143835783
1.67,-0.027803183,0.071673393,0.004024804
1.68,-0.017407715,0.071253777,0.286849141
1.69,-0.11959213,0.029984474,0.350124538
1.7,-0.26292491,-0.015849113,0.182289243
1.71,-0.161000192,-0.090312958,0.060599744
1.72,-0.161942542,-0.09058857,0.058009148
1.73,-0.152512312,-0.110121727,0.154124022
1.74,-0.123589575,0.032938004,0.503645122
1.75,-0.003321886,0.029921532,0.368751109
1.76,-0.002873302,0.029449463,0.362693727
1.77,0.11466071,0.002742767,0.084986627
1.78,0.021158755,0.021503448,0.168886304
1.79,0.02096504,0.021051407,0.163262606
1.8,0.010995448,0.01578331,0.203219652
1.81,-0.032657862,0.048872948,0.255727232
1.82,-0.086144745,0.060470581,0.261052489
1.83,-0.025786221,-0.006930351,0.145348787
1.84,-0.027665317,-0.057620049,0.055609226
1.85,-0.063049614,0.044986725,-0.002468824
1.86,-0.107618153,0.063853264,0.20558238
1.87,-0.108764589,0.063509941,0.201968908
1.88,-0.095307112,-0.013525009,0.668948531
1.89,0.013022125,-0.102546692,0.034918845
1.9,-0.046493351,-0.11465168,-0.111137211
1.91,-0.114482164,-0.035661697,0.179006696
1.92,-0.05209887,-0.019116402,0.348384172
1.93,-0.057260811,-0.002626419,0.18471843
1.94,-0.058027923,-0.002799034,0.182980061
1.95,-0.078429997,0.006496429,0.235299349
1.96,0.015332401,0.022836685,0.145031929
1.97,0.012417376,0.022297859,0.140054703
1.98,-0.164291799,0.007301331,0.183387458
1.99,-0.026467085,0.013920784,0.210098803
2,-0.072811663,0.025448799,0.355318517
2.01,-0.167968273,0.008411407,0.269455582
2.02,-0.166227758,0.008351326,0.267236739
2.03,-0.09443748,-0.025104523,0.117739558
2.04,-0.044171333,-0.029849052,0.046594083
2.05,0.014843285,-0.01066494,0.042872787
2.06,0.092027098,0.053954124,0.005779624
2.07,0.089622289,0.053869247,0.006772757
2.08,0.073168695,0.070540428,0.167424738
2.09,0.006813347,0.149522781,0.137202263
2.1,-0.039038897,0.135249138,0.117444754
2.11,-0.160787821,0.135437965,0.196233094
2.12,-0.159019649,0.135662079,0.198063195
2.13,-0.313831925,0.059305191,0.397714466
2.14,-0.052370906,-0.067222595,0.053224623
2.15,-0.005318522,-0.150483131,-0.074714363
2.16,-0.003074944,-0.149868012,-0.068202198
2.17,-0.191441596,-0.156443596,-0.165385008
2.18,-0.114484429,-0.1105299,-0.006352305
2.19,-0.111380458,-0.110368729,-0.006725848
2.2,-0.000200808,0.06205368,0.151266575
2.21,0.002388,0.062024117,0.148894012
2.22,-0.093021393,0.093119621,0.550745308
2.23,-0.027473927,0.076299667,0.604908228
2.24,0.099158704,0.061861992,0.484712362
2.25,0.109428436,0.006706238,0.274751604
2.26,0.10935995,0.006645203,0.273868382
2.27,0.139476687,-0.03649044,0.058627963
2.28,0.066018879,-0.16108036,-0.075206518
2.29,-0.055896103,-0.087006569,-0.190257907
2.3,-0.057333946,-0.087077141,-0.190145135
2.31,-0.273786604,0.09240818,0.214213133
2.32,-0.274991036,0.092240334,0.212899149
2.33,-0.043973923,0.017705917,0.477304041
2.34,-0.019381166,-0.107092857,0.0791834
2.35,-0.023487031,-0.107227325,0.080875635
2.36,0.108745754,-0.1194067,0.222746879
2.37,0.02554965,-0.007077217,0.084873259
2.38,0.024955332,-0.007185936,0.083831072
2.39,-0.05975771,0.05975914,0.193605959
2.4,-0.011168718,0.083417892,0.447168231
2.41,0.007061899,0.111616135,0.60523963
2.42,0.029571414,0.060691834,0.54677701
2.43,0.025331676,0.06005764,0.54124105
2.44,0.043246448,0.047678947,0.234363586
2.45,0.040599883,0.047427177,0.232781321
2.46,0.015152991,-0.017291069,0.06079036
2.47,0.043036342,-0.096240997,0.114919901
2.48,0.042196393,-0.096259117,0.11533314
2.49,0.065448582,-0.055630684,0.303992808
2.5,0.065809548,-0.055673599,0.303080916
2.51,-0.100227237,0.01376915,0.486195087
2.52,-0.21534574,0.028384209,0.026000857
2.53,-0.213663757,0.028768539,0.029886186
2.54,-0.18875134,0.057847023,0.010094762
2.55,-0.188397944,0.058073998,0.013189256
2.56,0.159458935,0.060599327,0.018765628
2.57,0.17354846,0.082184792,0.236922801
2.58,0.053833604,0.065361023,0.479645908
2.59,0.052813888,0.065236092,0.478631735
2.6,-0.214969695,-0.025845528,0.390746236
2.61,-0.282187641,-0.107272148,0.266545624
2.62,-0.258534968,-0.107293129,0.121127427
2.63,-0.125221193,-0.107311249,0.234447509
2.64,-0.098677993,-0.069145203,0.268266708
2.65,-0.098478436,-0.069302559,0.26586023
2.66,-0.078622103,-0.009518623,0.21164301
2.67,0.105978847,0.057528496,-0.037546277
2.68,0.105560064,0.057572365,-0.036558449
2.69,0.176459193,0.071965218,0.055504799
2.7,0.111418933,0.11991787,0.274621248
2.71,-0.078185856,0.107938767,0.483343422
2.72,-0.135126829,0.048066139,0.319789261
2.73,-0.172808886,-0.054751396,0.165551364
2.74,-0.171646118,-0.054549217,0.167293787
2.75,-0.122620225,-0.107028961,0.126187146
2.76,-0.039067507,-0.231431007,0.048736155
2.77,0.045616508,-0.257734299,0.114996672
2.78,0.073990136,-0.241109848,0.589451134
2.79,0.07144776,-0.227269173,0.61772728
2.8,0.198840559,-0.187149048,0.402620375
2.81,0.070099652,-0.041635513,0.197703123
2.82,0.069219351,-0.041996002,0.193334401
2.83,-0.089461088,0.000854492,0.154434562
2.84,-0.139025211,0.072281837,0.422851265
2.85,-0.08885318,0.059760094,0.24226895
2.86,-0.117616117,0.054555893,0.125572145
2.87,-0.145718694,0.054297447,0.068009675
2.88,-0.146087527,0.054184914,0.066775739
2.89,-0.190418899,-0.0414505,0.063010156
2.9,-0.188551784,-0.041200638,0.065244794
2.91,0.081110328,-0.160654068,0.235484302
2.92,0.196347863,-0.129370689,0.519891501
2.93,0.055289626,-0.146149635,0.550518453
2.94,0.056554377,-0.146129608,0.549808264
2.95,-0.162250161,-0.153223038,0.130979657
2.96,-0.117407262,-0.148318291,-0.043506622
2.97,-0.116491437,-0.148186684,-0.042286158
2.98,-0.018698931,-0.090657234,-0.03161484
2.99,-0.029174447,0.060073853,0.269331962
3,-0.108937204,0.069586754,0.173202694
3.01,-0.108872652,0.069659233,0.174167156
3.02,-0.070443094,0.02912426,-0.029493034
3.03,-0.070673585,0.029197693,-0.027986109
3.04,-0.068554103,-0.016326904,0.067306161
3.05,-0.076291978,-0.006958961,0.143769324
3.06,-0.146397114,0.033512115,0.339800626
3.07,-0.022518218,0.035714149,0.232133746
3.08,-0.066805124,-0.045818329,0.200162917
3.09,-0.058174491,-0.069846153,0.144708216
3.1,-0.05897969,-0.069878578,0.144613564
3.11,-0.033482313,-0.079496384,0.094677508
3.12,0.023545742,-0.060331345,0.123763561
3.13,0.022645533,-0.06029129,0.125068247
3.14,-0.004826784,-0.036288261,0.177174658
3.15,-0.080438018,-0.093711853,0.171665311
3.16,-0.063248038,-0.117645264,0.058548629
3.17,-0.065730214,-0.117591858,0.061149776
3.18,-0.0849967,0.050051689,-0.058441937
3.19,-0.075725436,0.054831505,-0.135379076
3.2,-0.079052508,0.054765701,-0.133695662
3.21,-0.133302212,0.054599762,-0.130714536
3.22,0.167835861,0.049190521,0.71911639
3.23,0.139029622,-0.044782639,0.496353716
3.24,0.135655344,-0.045164108,0.493532807
3.25,-0.040697694,-0.052469254,0.102686167
3.26,-0.194709241,0.05050087,-0.028330266
3.27,-0.022349119,0.033557892,0.317959845
3.28,-0.027262896,0.032990456,0.313460231
3.29,0.032873362,0.041973114,0.353352338
3.3,0.02875188,0.041528702,0.350100666
3.31,-0.119930387,-0.052009583,0.045321643
3.32,-0.102536917,0.007742882,0.164840758
3.33,-0.036633402,0.045956612,0.236023068
3.34,0.001223594,0.053102493,0.250313908
3.35,0.010277838,0.050768852,0.237062335
3.36,0.00968954,0.050951958,0.240348518
3.37,-0.069961429,-0.023069382,0.054598093
3.38,-0.070552528,-0.022751808,0.05979681
3.39,-0.054467857,-0.072688103,-0.049723923
3.4,0.032382786,-0.046082497,0.07037431
3.41,0.049376875,-0.005190849,0.182438672
3.42,-0.017598569,0.052391052,0.212138385
3.43,-0.115002424,0.05252552,0.224729866
3.44,-0.123266488,0.033549309,0.096306384
3.45,-0.171668828,0.043386459,-0.016980469
3.46,-0.255493403,-0.004188538,0.090298295
3.47,-0.25532946,-0.003922462,0.093788445
3.48,-0.095603704,-0.068328857,0.071199358
3.49,-0.079604238,-0.070548058,0.050439358
3.5,-0.123201847,0.006155014,0.135592699
3.51,-0.035739452,0.022911072,0.124283612
3.52,-0.037090421,0.022885323,0.12477988
3.53,-0.01488179,0.046813965,0.142560363
3.54,-0.133356422,-0.036939621,0.287686914
3.55,-0.023878962,-0.063200951,0.207591474
3.56,-0.087295234,-0.010406494,0.126271963
3.57,-0.009492785,0.016111374,0.196389794
3.58,-0.011793166,0.016236305,0.199670136
3.59,0.14054206,-0.005203247,0.167224526
3.6,0.041014194,-0.02658844,0.059224248
3.61,-0.213293046,0.009565353,-0.050709665
3.62,-0.22860536,0.055421829,-0.045400441
3.63,-0.11025402,0.053307533,-0.148404717
3.64,-0.11362657,0.053470612,-0.144389629
3.65,0.189824596,0.010214806,0.507952035
3.66,0.10217917,-0.095469475,0.629095554
3.67,0.097027779,-0.095843315,0.627381206
3.68,-0.051352441,-0.139193535,0.019677341
3.69,-0.052146822,-0.139104843,0.021132767
3.7,-0.208848447,-0.00955677,-0.357918024
3.71,-0.211599201,-0.009652138,-0.357667267
3.72,-0.170580477,0.054448128,0.48051846
3.73,0.14890492,0.053761482,0.71433866
3.74,-0.058557779,0.053339005,0.366108567
3.75,-0.060194731,0.053103447,0.363919526
3.76,-0.163935632,-0.013965607,0.021524251
3.77,-0.186023742,-0.073724747,0.025552809
3.78,-0.186859906,-0.0736866,0.026417911
3.79,-0.16133973,-0.092852592,0.268546492
3.8,0.084099591,-0.068891525,0.353201866
3.81,-0.095717788,-0.020913124,0.134499848
3.82,-0.116507709,-0.066038132,-0.088810921
3.83,-0.115401954,-0.065477371,-0.081960917
3.84,-0.102400214,-0.052855492,-0.019112587
3.85,-0.053660721,-0.040364265,0.082911074
3.86,-0.05319646,-0.039927483,0.088164151
3.87,0.003850102,0.04663372,0.11931473
3.88,0.00312382,0.046970367,0.123904944
3.89,-0.04764387,0.020934105,0.041876912
3.9,-0.330260068,-0.026694298,0.080850422
3.91,-0.306135505,-0.129540443,0.046353817
3.92,-0.222517401,-0.18454361,0.06389755
3.93,-0.299548954,-0.155795097,0.148161352
3.94,-0.347368389,-0.043269157,0.0688802
3.95,-0.10515222,-0.072012901,-0.060610592
3.96,-0.008556813,-0.045681953,-0.012007236
3.97,-0.033837706,0.049975395,-0.017520607
3.98,-0.015292108,0.066617012,0.017148435
3.99,-0.015259385,0.066562653,0.016626477
4,-0.05526647,0.076163292,0.198408961
4.01,-0.044732362,0.059534073,0.213989854
4.02,-0.050019592,0.057433128,0.168762803
4.03,-0.04859671,0.057746887,0.17185843
4.04,-0.004315823,0.022212982,0.061110795
4.05,-0.140300512,-0.006130219,-0.109355152
4.06,-0.265742362,0.058987617,-0.276697874
4.07,-0.232774973,0.033182144,-0.26403749
4.08,-0.27596283,0.059895515,0.142681003
4.09,-0.277240604,0.05999279,0.144547939
4.1,0.002172142,-0.090970993,0.757566452
4.11,-0.036658317,-0.236796379,0.189251661
4.12,-0.112906367,-0.262841225,-0.048090875
4.13,0.043544918,-0.078337669,-0.055264473
4.14,-0.063808531,0.053470612,-0.100629509
4.15,-0.051612049,0.060773849,0.114892602
4.16,-0.055049747,0.060681343,0.115303516
4.17,0.002898723,0.002942085,0.104449809
4.18,-0.069339991,0.007409096,-0.040558636
4.19,-0.320295066,-0.024000168,0.0945279
4.2,-0.389190733,-0.098615646,-0.019477665
4.21,-0.23662439,-0.130047798,-0.070593238
4.22,-0.23770532,-0.130355835,-0.073605299
4.23,-0.042207152,-0.075675011,0.364832968
4.24,-0.020942479,0.014836311,0.321347505
4.25,-0.223339111,0.057762146,0.184457123
4.26,-0.220689625,0.057754517,0.183292747
4.27,-0.091465652,0.038795471,-0.047768235
4.28,-0.090084285,0.03903389,-0.045478642
4.29,0.029787004,-0.013483047,0.152651608
4.3,0.009568274,0.029549599,0.171554506
4.31,-0.063830167,-0.001719475,0.10348773
4.32,-0.065810531,-0.001913071,0.102087259
4.33,-0.324303269,-0.083536148,0.028710008
4.34,-0.304182529,-0.114959717,0.198189199
4.35,-0.305280119,-0.115369797,0.193661511
4.36,-0.18558234,-0.125312805,0.156787157
4.37,-0.26214543,-0.125657082,0.213446617
4.38,-0.270034641,-0.092485428,0.168927074
4.39,-0.193363965,-0.143050194,-0.016677678
4.4,-0.193494618,-0.143318176,-0.019936383
4.41,-0.095355451,-0.086241722,0.094872653
4.42,0.019599229,-0.022106171,0.450157881
4.43,-0.071698248,-0.027442932,0.407459199
4.44,-0.071125001,-0.02780056,0.402775407
4.45,-0.156652689,0.01034832,0.211128891
4.46,-0.239444017,-0.023237228,0.1091308
4.47,-0.260047585,-0.121536255,0.085478604
4.48,-0.299880356,-0.251052856,0.015079141
4.49,-0.299530238,-0.251419067,0.01004523
4.5,-0.28241843,-0.30456543,0.106862724
4.51,-0.236070007,-0.276246071,0.036212504
4.52,-0.234908104,-0.276582718,0.03135103
4.53,-0.248705834,-0.228932381,0.23489961
4.54,-0.291296661,-0.234014511,-0.000356972
4.55,-0.526803732,-0.174323082,-0.277638555
4.56,-0.511085033,-0.116963387,-0.073916376
4.57,-0.319745541,-0.002365112,0.264840424
4.58,-0.315088809,-0.003070831,0.252266765
4.59,-0.371489286,-0.013319969,-0.250014424
4.6,-0.364053994,-0.02844429,-0.063841045
4.61,-0.320895433,-0.127634049,0.008195221
4.62,-0.43988958,-0.308315277,-0.049185574
4.63,-0.463065863,-0.371599197,0.163228035
4.64,-0.360312492,-0.487531662,0.03928113
4.65,-0.240965009,-0.552970886,-0.142088115
4.66,-0.235048175,-0.553742409,-0.159929514
4.67,-0.084716529,-0.614542961,0.066386223
4.68,0.162414461,-0.721132278,0.260516048
4.69,0.157610834,-0.722755432,0.232834876
4.7,0.23083055,-0.990327835,-0.139552295
4.71,0.220989674,-0.992128372,-0.17024377
4.72,-0.014570236,-1.099481583,-0.308658183
4.73,-0.039906651,-1.223621368,-0.479573548
4.74,0.348911643,-1.443476677,-0.648866832
4.75,0.620033085,-1.27776432,-0.580942154
4.76,0.596265078,-1.279521942,-0.616946936
4.77,1.140493393,-0.780694008,-0.664420545
4.78,1.572013855,-0.547475815,-0.656956136
4.79,1.506073713,-0.1154356,-0.463413596
4.8,1.472143054,-0.116587639,-0.493634552
4.81,1.001408935,0.811429024,-1.134445906
4.82,0.408198595,1.41882515,-1.511293769
4.83,-0.192725211,1.911534309,-1.713739753
4.84,-0.453636348,2.203309059,-1.873369932
4.85,-0.483258188,2.20311451,-1.89104116
4.86,-0.890730083,2.030679703,-1.695572972
4.87,-0.921158791,1.645215034,-1.448065639
4.88,-0.918525159,1.077825546,-0.972552717
4.89,-0.924877465,1.07786274,-0.977770209
4.9,-1.037993431,0.41942215,-0.798665404
4.91,-1.053288221,-0.710706711,-1.381176949
4.92,-0.569793463,-1.244654655,-1.271305799
4.93,-0.075365841,-1.536753654,-0.859833598
4.94,0.022661038,-1.639639854,-0.577593386
4.95,0.032534048,-1.639483452,-0.600025535
4.96,0.164690718,-1.495574951,-0.559346616
4.97,0.362939,-1.373096466,-0.38260138
4.98,0.616146326,-1.293588638,-0.109406427
4.99,0.534090519,-1.269137383,-0.923535049
5,0.534225404,-1.151355743,-1.401021481
5.01,0.543817699,-1.150928497,-1.417727113
5.02,0.438896775,-0.832038879,-1.437723875
5.03,0.362342358,-0.664128304,-1.655499697
5.04,0.306812704,-0.532298088,-1.539522886
5.05,0.321962118,-0.369418144,-1.426125646
5.06,0.144487307,-0.187434197,-1.282612562
5.07,0.08935973,-0.168230057,-1.160902023
5.08,0.04838372,-0.16341114,-1.228141069
5.09,0.055925511,-0.163398743,-1.224049449
5.1,-0.106879905,-0.093922615,-1.303826451
5.11,-0.216573179,0.128806114,-1.837417245
5.12,-0.206072092,0.128838539,-1.830895185
5.13,-0.136997998,0.504826546,-1.335022569
5.14,-0.124824733,0.504995346,-1.332047343
5.15,-0.066088393,0.639286995,-1.434166551
5.16,-0.020550981,0.665870667,-1.336792231
5.17,-0.00673303,0.666149139,-1.334352493
5.18,0.141729459,0.721497536,-1.374037504
5.19,0.300673068,0.865460396,-1.150054693
5.2,0.202431098,0.973549843,-0.881780088
5.21,0.212930158,0.974004746,-0.889195919
5.22,0.238700986,1.161266327,-0.897137225
5.23,0.211794704,1.245580673,-1.071702838
5.24,0.31520772,1.447238922,-0.982075155
5.25,0.317823261,1.78549099,-0.833815754
5.26,-0.004905522,2.176641464,-0.332058847
5.27,0.029198974,2.178091049,-0.337980658
5.28,-0.931222975,2.213472366,-0.40884617
5.29,-0.446952641,2.186875343,-0.682475388
5.3,-0.395965695,2.189208031,-0.669587851
5.31,-0.358598113,2.306794167,-0.532409549
5.32,-0.054923534,2.529997826,1.590253949
5.33,0.320696384,2.772280693,2.325523615
5.34,0.503832519,3.124369621,3.062531233
5.35,0.528130651,3.126356125,3.054033518
5.36,0.757891655,3.649670601,4.402248383
5.37,0.65406245,3.499673843,5.557148933
5.38,-0.278269887,3.289482117,5.048503876
5.39,-0.279060185,3.290114403,5.026699066
5.4,-1.56530726,2.98472023,4.054938316
5.41,-2.29612875,2.514486313,3.634847164
5.42,-2.675117016,1.644645691,3.199539423
5.43,-2.604492426,0.87070179,2.591653585
5.44,-2.066437006,0.271724701,2.52276659
5.45,-1.791539669,0.628204346,2.098922968
5.46,-1.64653039,1.305682182,1.905452251
5.47,-1.204139471,1.501950264,1.578945875
5.48,-1.202188611,1.504023552,1.543730736
5.49,-0.365246713,1.311880112,1.532228708
5.5,-0.370632529,1.31374836,1.494734526
5.51,-0.843835592,0.211912155,1.604011178
5.52,-0.718742192,-0.76826191,0.928603888
5.53,-0.724513054,-0.767504692,0.911317229
5.54,-0.638877392,-1.761194229,0.350394189
5.55,0.020947397,-3.809196472,-0.295582414
5.56,0.006961286,-3.810970306,-0.286456287
5.57,0.342830569,-4.636824131,-0.272749245
5.58,0.787589312,-5.853365898,-0.10297668
5.59,0.680514216,-5.908644676,0.133287251
5.6,0.665295482,-5.911225319,0.155924022
5.61,0.988139749,-5.562121868,0.294200182
5.62,0.967812419,-5.565170765,0.321668625
5.63,0.695299029,-4.919203281,0.536254168
5.64,0.675204754,-4.921913624,0.562013447
5.65,0.259399325,-4.350084305,-0.534706771
5.66,0.235696822,-4.35268116,-0.51089859
5.67,-0.012554824,-3.718176365,-0.858582854
5.68,-0.006639779,-3.478509903,-0.88546741
5.69,-0.21124053,-3.099728584,-0.743293643
5.7,-0.572578669,-2.562562943,-0.773259699
5.71,-0.880821466,-2.063468933,-0.978925049
5.72,-0.987359524,-1.444407463,-1.096920013
5.73,-0.992601097,-1.445325851,-1.079532862
5.74,-1.002530336,-0.866732597,-1.323799849
5.75,-0.995805502,-0.216093063,-1.130820632
5.76,-1.195493698,0.492259979,-0.451754481
5.77,-1.170883775,0.693246841,-0.425241053
5.78,-1.156342149,0.69312954,-0.395420551
5.79,-1.105610132,0.872513771,-0.781564355
5.8,-0.553019345,1.365420341,-1.111248732
5.81,-0.351825953,1.944286346,-0.435745955
5.82,-0.556655526,2.575603485,-0.080532059
5.83,-1.18659997,3.173316002,-0.182019323
5.84,-1.996079206,3.696861267,-0.43851009
5.85,-2.008966446,3.696252823,-0.437678337
5.86,-2.987576962,5.254638672,-0.976333618
5.87,-2.986832142,5.254405022,-0.956580877
5.88,-1.806869268,5.637015343,-0.553759754
5.89,1.357314825,5.621796608,1.442385674
5.9,2.087510824,5.393404961,2.822581768
5.91,2.748568058,4.587958336,3.905770063
5.92,3.261571884,3.602866173,4.653954983
5.93,3.226499081,3.601685524,4.654331207
5.94,3.358029604,2.393774986,5.10852766
5.95,3.159849167,0.494251251,4.453792572
5.96,2.466320276,0.045985222,2.760555267
5.97,1.670450687,0.428839684,0.731361985
5.98,1.660064578,0.428746223,0.719499707
5.99,0.772066176,1.733751297,0.287089676
6,0.571245372,2.074057579,0.87661016
6.01,0.733048141,2.124763489,1.240622997
6.02,1.151016712,1.84269619,1.148298621
6.03,1.398698092,1.43129158,0.940695345
6.04,1.540867448,0.986343384,0.708932519
6.05,1.655805469,0.548640251,0.742609799
6.06,1.327769518,0.02244091,0.728094697
6.07,0.817785263,-0.621044159,0.341247618
6.08,0.44915694,-1.46090126,-0.050167322
6.09,0.195611507,-2.231445789,-0.349883974
6.1,0.212360829,-2.231070995,-0.351469785
6.11,0.262274176,-4.023972511,-0.52016747
6.12,0.285971493,-4.669988155,-0.370411903
6.13,0.305054754,-5.200917244,-0.10338299
6.14,0.444338262,-5.564199448,0.443881333
6.15,1.0006423,-5.913141251,0.598647177
6.16,1.554690719,-6.015655041,0.590604067
6.17,1.555851221,-6.015435696,0.585526943
6.18,1.615410089,-5.72078371,0.461072803
6.19,0.418809056,-4.942218781,0.293391287
6.2,0.431135178,-4.592231274,-0.325125992
6.21,0.277884185,-4.18726778,-0.878875256
6.22,0.007546782,-3.734330654,-1.266467929
6.23,-0.175004005,-3.302841187,-1.683322668
6.24,-0.279060036,-2.844944477,-1.770962238
6.25,-0.171698421,-2.444546223,-1.516362548
6.26,-0.15594542,-2.443959713,-1.513735771
6.27,-0.358988702,-1.459275246,-1.127624512
6.28,-0.39438355,-0.993886948,-0.725126743
6.29,-0.373855412,-0.992762566,-0.729369164
6.3,-0.051925272,-0.13914299,0.360084534
6.31,0.125023097,0.070423126,-0.208121777
6.32,0.062015444,0.435428619,-0.878594101
6.33,-0.084746122,1.015779495,-1.472247362
6.34,-0.061745167,1.665457726,-1.947473764
6.35,0.099593461,2.298256874,-1.675657034
6.36,0.369345814,3.012418747,-0.519198418
6.37,0.355593979,3.659626007,-0.160773024
6.38,0.362797618,3.660359383,-0.168712601
6.39,-0.021674991,5.29155159,-0.290529966
6.4,0.48319751,5.904830933,-0.352063835
6.41,0.682222784,6.357428551,0.364311904
6.42,0.68174696,6.357652664,0.35758698
6.43,0.055619121,6.437225342,3.56251955
6.44,-1.127302051,5.96391964,4.636176586
6.45,-0.948374927,4.97772789,6.015235424
6.46,-0.352713049,3.619680405,6.793589592
6.47,-0.377726793,3.618483543,6.78619957
6.48,-0.750522077,1.531831741,5.193712234
6.49,-1.963997722,1.418522835,3.777973652
6.5,-1.969688654,1.418507576,3.771355629
6.51,-2.696623087,1.358456612,2.401605606
6.52,-2.929741621,1.746212959,1.149746656
6.53,-2.879094839,1.985890388,1.112667918
6.54,-2.886642456,1.986577034,1.090266228
6.55,-2.950490952,2.346963882,1.468549728
6.56,-2.320840359,2.432540894,2.108969212
6.57,-1.814002514,1.960517883,2.099727869
6.58,-1.352131486,1.189252853,1.702112198
6.59,-0.966715872,0.120901108,1.050049067
6.6,-0.572411358,-0.971632004,0.616878808
6.61,-0.36985147,-2.00697279,0.341264784
6.62,-0.367035091,-2.005822659,0.327142716
6.63,0.53787005,-4.116931438,-0.147995353
6.64,1.017764568,-4.686471939,-0.410206825
6.65,1.006734371,-4.686544418,-0.41681543
6.66,1.059222937,-5.288170338,-0.774280131
6.67,1.306957126,-6.167767525,-0.487403899
6.68,1.629100561,-6.362826347,-0.348302811
6.69,1.605606914,-6.364171982,-0.344180733
6.7,1.211993456,-5.917849541,-0.157192469
6.71,0.94930923,-5.577289581,-0.222449631
6.72,0.925486505,-5.57920742,-0.207588762
6.73,0.368820339,-4.913142681,-0.116657078
6.74,-0.218052059,-4.601762295,-0.95657897
6.75,-0.572963238,-4.263971329,-1.162854433
6.76,-0.405106098,-3.911571026,-1.181047797
6.77,-0.307074368,-3.590071201,-1.47274065
6.78,-0.328668475,-3.591779232,-1.45225966
6.79,-0.422299147,-2.870333195,-1.227071524
6.8,-0.288112402,-2.234943867,-1.25981009
6.81,-0.255595565,-1.491839409,-1.184072018
6.82,-0.559902132,-0.585805893,-0.716704071
6.83,-1.033535838,0.387524605,-0.278769463
6.84,-1.022746921,0.38658905,-0.252495199
6.85,-1.64146018,1.891541481,-0.652088165
6.86,-1.627115488,1.890395164,-0.611963093
6.87,-1.704749942,3.100759506,-1.572301269
6.88,-1.468928218,3.288949966,-1.528359175
6.89,-1.472178578,3.288094521,-1.496045589
6.9,-0.990470946,3.442895889,-1.393775821
6.91,-2.054582119,3.509310722,-1.75432837
6.92,-2.940287113,3.494421959,-2.182293653
6.93,-3.516962528,3.261814117,-1.883081913
6.94,-3.520265579,3.261538506,-1.870095611
6.95,-3.469646931,3.359489441,-0.808064699
6.96,-0.273760557,4.735917091,1.903601766
6.97,-0.274232984,4.735466003,1.964844465
6.98,2.398884773,4.598720551,2.456795692
6.99,3.177466154,4.103165627,3.639150381
7,3.459492683,3.179253578,4.524665833
7.01,3.772653103,2.494700432,5.041318893
7.02,3.992116213,1.158657074,4.440755367
7.03,4.202599525,0.289319038,2.89635396
7.04,3.663609505,-0.017377853,1.348277092
7.05,3.628329277,-0.017605782,1.31383121
7.06,0.76585722,1.085969925,0.193144679
7.07,0.561731756,1.818570137,0.412806183
7.08,0.626539826,2.180239677,0.650387824
7.09,0.616313934,2.180502892,0.614775837
7.1,0.849866271,2.583073616,0.682477593
7.11,0.239632875,3.198859215,1.334460258
7.12,-0.236239135,2.821188927,1.205775619
7.13,-0.242007643,2.821930885,1.168104887
7.14,-0.981654048,0.696599007,1.568652511
7.15,-1.397431493,-0.622111321,1.247511387
7.16,-1.382763267,-0.622018814,1.233945727
7.17,-1.077025771,-3.569601536,0.073615134
7.18,-1.04981029,-3.570149899,0.07988295
7.19,-0.962401807,-5.162931919,-0.800670922
7.2,-0.92933774,-5.163037777,-0.806551218
7.21,-0.545172036,-5.687089443,-0.1879154
7.22,0.01288184,-5.724822998,0.438132554
7.23,0.302634746,-5.29786253,1.116738796
7.24,0.332780004,-5.296864986,1.091934085
7.25,0.148271292,-4.941444397,0.312764972
7.26,-0.081455991,-4.689036369,-0.38621372
7.27,-0.127792344,-4.439060211,-0.818617821
7.28,-0.193264574,-4.299252033,-1.157419682
7.29,-0.181997329,-4.046928883,-1.265036106
7.3,0.148703963,-3.770663261,-1.294968367
7.31,0.305543393,-3.420422077,-1.26746273
7.32,0.410989702,-2.955505371,-1.095036983
7.33,0.429034174,-2.955329895,-1.086723924
7.34,0.460420966,-2.320849895,-0.925675392
7.35,0.374711335,-1.212409019,-0.991842866
7.36,0.282081872,-0.611626625,-1.179602742
7.37,0.280207574,-0.065968513,-1.130041838
7.38,0.283924282,-0.066221237,-1.119524479
7.39,0.366637349,1.032533646,-0.668765664
7.4,-0.093393028,1.712240219,-1.084824443
7.41,-0.258411527,2.411000252,-1.90570116
7.42,-0.491258144,3.169430733,-2.585819721
7.43,-0.484457225,3.492115974,-2.657918215
7.44,-0.411394656,3.491784096,-2.338447571
7.45,-0.644449115,3.458210945,-1.650042057
7.46,-1.03503418,4.047450066,-0.796979487
7.47,-1.011891365,4.047027588,-0.720268011
7.48,-0.639975548,4.863907814,-0.014020339
7.49,0.522179723,5.724036217,0.552498937
7.5,0.112519503,5.961895943,1.712893486
7.51,0.138672024,5.963205338,1.712632179
7.52,-0.688287437,5.428577423,3.795498133
7.53,-0.567834914,2.600331306,6.986496925
7.54,-0.557237089,2.602876663,6.871276855
7.55,0.404950261,0.269728661,5.896249771
7.56,0.288535893,0.052428246,4.780724525
7.57,-0.392079771,0.452937126,3.292122364
7.58,-1.553278685,1.434911728,0.77108711
7.59,-2.179469347,2.342010498,-1.057137489
7.6,-1.802438259,2.96865654,-0.646197259
7.61,-1.906348467,3.209814072,0.431180239
7.62,-2.532622337,3.202466965,0.945118249
7.63,-2.926064014,2.901269913,1.537549019
7.64,-2.927993059,2.902517319,1.518470883
7.65,-2.166656733,2.135315895,1.754961133
7.66,-1.181929708,1.024835587,0.833115935
7.67,-0.581882,-0.028600693,-0.141135633
7.68,-0.240899682,-0.959960938,-0.082257628
7.69,0.814350128,-2.92576313,0.289715111
7.7,0.84430027,-3.608458519,0.254264653
7.71,1.090326548,-3.965484142,0.02146256
7.72,1.115243077,-4.593255997,-0.139296889
7.73,0.856384754,-4.974708557,0.317461848
7.74,0.62195313,-5.071222305,0.739638507
7.75,0.608411372,-5.072022438,0.744012475
7.76,0.95112145,-5.233456612,-0.096996546
7.77,0.932260633,-5.234954834,-0.084964156
7.78,0.748613238,-5.250974178,-0.462353468
7.79,0.521215558,-5.116331577,-0.665974975
7.8,0.327287614,-4.965180874,-1.060734034
7.81,0.022567287,-4.533842564,-1.535752296
7.82,-0.045445696,-4.114230633,-1.661542416
7.83,-0.059267744,-4.115628719,-1.644123077
7.84,-0.332240999,-3.566233158,-1.617672682
7.85,-1.124568105,-2.499666214,-1.471649885
7.86,-1.074843407,-1.959979534,-1.603075147
7.87,-1.3019104,-1.387063026,-1.632625103
7.88,-1.193196416,-0.603564262,-1.494226098
7.89,-1.103844523,-0.001963615,-1.385851383
7.9,-1.080996752,-0.00343895,-1.338561893
7.91,-0.805312634,1.084884644,-0.725658059
7.92,-0.788528681,1.084042549,-0.686918855
7.93,-0.484348774,1.95243454,-0.916657567
7.94,-0.478167892,1.951787949,-0.884452701
7.95,-1.002734661,2.729389191,-0.879018009
7.96,-1.606719017,3.018655777,-1.502470255
7.97,-2.010150909,3.190668106,-2.354543686
7.98,-2.815724611,3.343582153,-2.559146404
7.99,-3.226569176,3.733786583,-1.860314131
8,-2.8357687,4.418813705,-0.575930297
8.01,-2.816905499,4.419305801,-0.541922808
8.02,0.282470077,5.578724861,-0.04102752
8.03,2.246010303,5.62257576,1.129939914
8.04,3.13290143,5.245141029,3.299870014
8.05,3.235776901,4.29825592,4.387236595
8.06,3.24448514,4.299840927,4.441943645
8.07,3.14846921,2.85976696,3.831908226
8.08,2.990002871,1.706310272,3.136676311
8.09,2.303826809,0.533138275,0.511776805
8.1,2.293077946,0.532831192,0.515164077
8.11,2.235965729,0.749916077,0.120007813
8.12,1.908722043,1.88834095,0.527367234
8.13,1.62142396,2.394697189,0.36924988
8.14,1.605338573,2.393594742,0.348325759
8.15,1.806256652,2.390130997,0.518948257
8.16,1.84164989,1.898146629,0.609992743
8.17,1.814870715,1.896912575,0.585601211
8.18,1.197811246,0.516651154,0.511005402
8.19,0.42590341,-0.207445145,0.162380919
8.2,0.146354556,-1.089326859,-0.14001821
8.21,-0.067201316,-2.030849934,-0.100338891
8.22,-0.25184238,-2.897967815,0.013056684
8.23,-0.255482793,-2.898110867,-0.002142638
8.24,-0.804398835,-4.200530529,-0.01239815
8.25,-0.924962103,-4.789298058,0.151301161
8.26,-0.909593225,-5.330033779,0.121814653
8.27,-0.88327682,-5.329499722,0.122779697
8.28,-0.360751748,-5.949027061,0.100092575
8.29,-0.335754067,-5.948424339,0.090657227
8.3,0.001210481,-5.928653717,0.315718323
8.31,0.348436058,-5.377339363,0.064096116
8.32,0.475064814,-4.900160313,-0.251391113
8.33,0.495806873,-4.899376392,-0.270828217
8.34,0.334016502,-3.773230076,-0.800599456
8.35,0.342207402,-3.327021122,-1.142960668
8.36,0.355697572,-3.326234341,-1.166727901
8.37,0.491174638,-2.408602715,-1.234173775
8.38,0.457529575,-1.900544167,-1.20537293
8.39,0.460072219,-1.900190353,-1.220107079
8.4,0.18321012,-0.753073692,-1.162558198
8.41,0.154155433,-0.269195557,-0.860513091
8.42,0.118768424,0.171580315,-0.458399981
8.43,0.182078123,0.504648209,-0.401662767
8.44,0.272900552,0.864009857,-0.642299652
8.45,0.275445133,0.864144325,-0.642479658
8.46,-0.112945467,1.841002464,-1.7991606
8.47,-0.213972747,2.422776222,-2.100609303
8.48,-0.186282396,3.097905159,-1.694016337
8.49,-0.185919702,3.097884178,-1.69175601
8.5,-0.393535674,3.928717613,-1.310634971
8.51,-0.391856343,3.928833961,-1.31350553
8.52,-0.103050053,5.851643562,0.218200415
8.53,-0.100822717,5.85176754,0.216918573
8.54,0.066445827,6.234969139,0.065955192
8.55,0.650081813,5.627082825,3.119968891
8.56,0.37006703,4.574076653,3.520992279
8.57,-0.524519086,3.377484322,4.056651592
8.58,-0.512488604,3.377977371,4.063777447
8.59,-1.109724283,1.903528214,4.752682686
8.6,-1.044249177,0.519918442,4.761456966
8.61,-0.572846532,-0.411006928,4.26320076
8.62,-0.827220798,0.058318138,2.798451424
8.63,-1.258095384,1.009254456,1.100908399
8.64,-1.476698637,1.880809784,-0.123824745
8.65,-1.707472444,2.668274879,-0.14365387
8.66,-1.722076297,2.668045044,-0.150679827
8.67,-2.101548195,3.604297638,0.096129537
8.68,-1.876799345,3.772398949,1.613229752
8.69,-1.598273993,2.999940872,2.087789536
8.7,-1.110510349,2.033346176,1.416066408
8.71,-1.110988975,2.033336639,1.416035414
8.72,-0.157847643,-0.581922531,-0.159878641
8.73,-0.163796485,-0.582984924,-0.147453457
8.74,0.559680641,-2.971346378,-0.652524233
8.75,0.853883565,-4.018846989,-0.668454945
8.76,1.170242906,-4.671208382,-0.503343046
8.77,1.146926165,-4.672152519,-0.501653194
8.78,1.146706223,-5.134984016,0.240389049
8.79,0.647661507,-5.576326847,0.277641058
8.8,0.472685933,-5.654508591,-0.421096712
8.81,0.291288734,-5.608500004,-1.078495502
8.82,-0.082491606,-5.464402199,-1.495074034
8.83,-0.254071236,-5.418293476,-1.734902859
8.84,-0.161659926,-5.381540775,-1.97374773
8.85,0.169893697,-5.179416656,-1.933581829
8.86,0.278156221,-4.883719921,-1.719599843
8.87,0.153084666,-4.415610313,-1.838032961
8.88,-0.205387637,-3.863807678,-1.913622618
8.89,-0.218896225,-3.865115166,-1.886241317
8.9,-1.036705732,-2.190534115,-1.992297888
8.91,-0.738206506,-1.160015106,-1.129975557
8.92,-0.741733551,-1.161079407,-1.09339273
8.93,-0.869651914,-0.431551933,-0.124907725
8.94,-1.018328071,0.216678619,-0.432797968
8.95,-0.661939979,0.582507134,-0.09178476
8.96,-0.664747179,0.582118034,-0.068688557
8.97,-0.40152818,0.799556732,-0.720875025
8.98,-0.209476292,1.953190804,-1.068904519
8.99,-0.494033098,2.673558235,-0.837569416
9,-0.51021564,2.673257828,-0.82597363
9.01,-1.227265835,3.317098618,-1.073742628
9.02,-3.430218458,4.092713356,-1.620568275
9.03,-4.517318249,4.205203056,-1.797783732
9.04,-4.539808273,4.913970947,-0.88512516
9.05,-4.518239975,4.914146423,-0.859559357
9.06,-1.973219872,5.364539146,0.695839346
9.07,0.337072015,5.317162514,1.178406596
9.08,2.722225189,4.853666306,1.647071958
9.09,3.49499774,3.681985855,3.258463621
9.1,3.500621557,3.683840752,3.323077202
9.11,2.643313408,2.177112579,3.083745718
9.12,2.635309219,2.178153992,3.115072012
9.13,2.636990547,1.033988953,2.552426815
9.14,2.650981426,0.149945259,1.523493409
9.15,2.347303629,-0.241364479,0.599010468
9.16,1.879558325,0.413433075,0.144508287
9.17,1.552666068,1.022696495,0.150896594
9.18,1.117336392,2.108662605,0.145014256
9.19,0.487570584,3.790922165,0.494305909
9.2,0.275454789,3.677638054,0.599146605
9.21,0.224931791,2.839000702,0.582896411
9.22,0.011871055,1.861626625,0.716145396
9.23,-0.344881594,0.712061882,0.67274642
9.24,-0.77994144,-0.396606445,0.369493187
9.25,-1.070103168,-1.526760101,-0.049474739
9.26,-1.274980903,-2.424685955,-0.179919928
9.27,-1.240341544,-3.389642715,-0.323696315
9.28,-0.958224416,-4.292372227,-0.567493498
9.29,-0.746877313,-4.898153305,-0.521003008
9.3,-0.594463289,-5.384140491,-0.123300582
9.31,-0.355084479,-5.570663929,0.270231843
9.32,-0.319874942,-5.570302486,0.256797791
9.33,0.046973489,-5.5147295,0.402354419
9.34,-0.019611448,-5.408707619,0.191241771
9.35,0.194019631,-5.345631123,-0.305972219
9.36,0.615731657,-5.062180042,-0.110005848
9.37,0.422693789,-4.951021671,-0.593021035
9.38,0.362417251,-4.712871075,-1.521571875
9.39,0.450597554,-4.489096165,-1.437276602
9.4,0.895809174,-3.930159092,-1.398190498
9.41,0.913466692,-3.929337978,-1.407339454
9.42,0.589123368,-2.693361282,-1.441413164
9.43,0.457699567,-1.819195271,-1.297908306
9.44,0.465285778,-1.818921566,-1.294322729
9.45,-0.264562964,-0.38912487,-0.713092208
9.46,-0.253500283,-0.388607025,-0.715338528
9.47,-0.186205357,0.210389137,-0.558461845
9.48,0.164163649,1.393315315,-0.750209391
9.49,0.163847715,1.393416405,-0.757606506
9.5,-0.013393819,1.960968971,-0.86249435
9.51,-0.207655966,3.172561646,-1.229997873
9.52,-0.314067841,3.572464943,-1.547343016
9.53,-0.401835293,3.876586914,-1.989194274
9.54,-0.404809624,3.876574516,-1.995915055
9.55,-0.555297554,4.046607018,-1.853551865
9.56,-0.808275223,5.277344704,-0.311662257
9.57,-0.126814216,5.916687012,1.610505581
9.58,0.3137303,6.144189835,2.429494381
9.59,0.391796202,5.842628479,2.536787748
9.6,0.408660531,5.842992783,2.560912132
9.61,-0.646542311,3.863588333,3.6117661
9.62,-1.009943366,2.640978813,4.082859039
9.63,-0.941595733,1.406391144,4.181810856
9.64,-0.798694193,0.514018059,4.244957924
9.65,-0.69197607,0.040215492,4.123207569
9.66,-0.88143611,0.26772213,3.552543163
9.67,-0.885049641,0.26775074,3.538311243
9.68,-1.505213857,1.036390305,2.736518145
9.69,-1.869158506,1.699605942,1.757096887
9.7,-2.262179852,2.982898712,0.922688842
9.71,-2.056073666,3.200773239,1.06798768
9.72,-2.062568903,3.200803757,1.050483584
9.73,-1.52740562,2.880011559,1.376521826
9.74,-0.551431775,1.764380455,1.205639839
9.75,-0.558979154,1.76429081,1.194595337
9.76,-0.367277414,1.12473011,0.449878842
9.77,0.063322872,-0.810201645,-0.120079562
9.78,0.053137869,-0.810729027,-0.118968979
9.79,0.462841034,-2.932776451,-0.370960027
9.8,0.734027982,-4.025434494,-0.351189733
9.81,1.001601696,-4.871524334,0.655629158
9.82,0.931842923,-5.535651207,1.118709922
9.83,1.1048491,-5.898189545,0.51578337
9.84,0.8833462,-6.153202534,0.115353495
9.85,0.858253837,-6.154463291,0.131530732
9.86,0.272502661,-6.241760731,-0.160534546
9.87,0.2543661,-6.242837429,-0.135405377
9.88,0.084299952,-6.219929695,-0.410583735
9.89,-0.123203054,-5.883229256,-1.244544744
9.9,-0.256246507,-5.596601009,-1.663891077
9.91,-0.272007853,-5.59719038,-1.640024424
9.92,-0.205026612,-5.058988571,-1.651615739
9.93,-0.317421556,-4.362710476,-1.310656905
9.94,-0.811174631,-2.363864899,-1.285598993
9.95,-1.24485743,-1.631468773,-1.462103605
9.96,-1.191904187,-0.855808258,-1.722396493
9.97,-1.088023663,-0.044100761,-1.474104881
9.98,-1.041693449,0.712673187,-0.810296536
9.99,-0.950851142,1.500608444,0.022436872
10,-0.850405753,2.219202042,0.040201589
10.01,-1.098674417,2.672109604,-0.61844039
10.02,-1.267694712,2.859480858,-1.366150737
10.03,-1.307882428,2.927311897,-1.554078937
10.04,-1.301319957,2.928166389,-1.520080805
10.05,-1.246803403,3.333343506,-1.497086287
10.06,-1.253054261,3.333693504,-1.478763342
10.07,-2.321558475,3.362615585,-2.02714324
10.08,-3.137294769,3.245499611,-1.926669359
10.09,-3.89370513,3.222019196,-1.540801644
10.1,-3.41971612,3.797572136,-0.549318075
10.11,-3.392852306,3.799464226,-0.511153519
10.12,-0.252301693,4.951458931,0.532800674
10.13,1.606876373,4.980978966,1.374702096
10.14,2.85484457,4.701843262,2.65903163
10.15,2.861646175,4.705449104,2.718555212
10.16,3.165790081,3.3994627,4.231678486
10.17,3.172123432,3.402704239,4.276388168
10.18,2.951241493,0.660916328,2.942768097
10.19,2.798772335,-0.30994606,1.673597217
10.2,2.682869434,-0.968033791,0.695701063
10.21,2.251687765,-0.549629211,0.147098362
10.22,1.59885323,-0.027106285,-0.254557669
10.23,1.580906272,-0.02930069,-0.278507829
10.24,0.768472433,1.943532944,-0.366623461
10.25,0.997331679,2.925086021,0.276990861
10.26,0.978147626,2.922329903,0.239061862
10.27,1.159520745,3.49879837,1.404537201
10.28,0.512317658,2.431008339,0.473773986
10.29,0.083532706,1.088480949,-0.152643561
10.3,-0.225008771,-0.131770134,-0.01536119
10.31,-0.227549404,-0.133217812,-0.046801448
10.32,-0.294473171,-2.418453217,-0.305464178
10.33,0.048901692,-3.295580864,0.407541156
10.34,0.102179766,-4.019079208,0.784245968
10.35,-0.044059798,-4.574566364,0.680134416
10.36,-0.018766373,-4.574178219,0.678730369
10.37,-0.196855217,-5.059519768,0.551903307
10.38,-0.344807088,-5.159144878,0.54388392
10.39,-0.307008117,-5.157932758,0.548851192
10.4,0.167659208,-5.206763744,0.23471871
10.41,0.204361633,-5.205196857,0.241850466
10.42,0.436053395,-5.105374813,0.129488856
10.43,0.47145468,-5.103576183,0.137279362
10.44,0.433314979,-4.888421059,-0.173573345
10.45,0.190481514,-4.222980976,-1.148169875
10.46,0.017506123,-3.641321659,-1.751974583
10.47,0.046717346,-3.639061451,-1.738115549
10.48,-0.277389109,-2.396445751,-1.656872749
10.49,-0.420390189,-1.48898983,-1.515396595
10.5,-0.276555121,-0.641425133,-1.291271329
10.51,-0.185009301,0.052552223,-0.823541999
10.52,-0.187878072,0.478085518,-0.576625288
10.53,-0.32939148,0.678401947,-0.627394021
10.54,-0.497891724,0.8094244,-0.963864863
10.55,-0.480423868,0.811361313,-0.951792717
10.56,-0.694662571,1.464630127,-1.102851629
10.57,-0.658248007,2.151263237,-1.299391627
10.58,-0.628476977,2.847247124,-1.682092905
10.59,-0.523770273,3.222060204,-1.764678121
10.6,-0.46683526,3.438216209,-1.25607574
10.61,-0.488800764,4.005345345,-0.235686958
10.62,-0.183657348,5.022116661,0.533880711
10.63,-0.18431437,5.020839691,0.512543321
10.64,0.648416638,6.542199135,1.267190576
10.65,1.160612345,6.387742043,2.804310799
10.66,0.68167001,5.50099659,4.114082336
10.67,0.326179773,4.076929092,4.492626667
10.68,0.335226148,4.077641487,4.491960049
10.69,0.114218295,0.852733612,3.645931482
10.7,0.010660052,0.488319397,3.622973919
10.71,0.004518151,0.487132072,3.60870409
10.72,-0.007821381,0.492399216,3.816734791
10.73,-0.856294096,0.665234566,2.358744621
10.74,-2.406687975,2.119041443,1.794866681
10.75,-2.440287113,2.821052551,1.450046778
10.76,-2.451432943,2.819371223,1.427865982
10.77,-2.385865688,3.205826759,0.994499922
10.78,-1.453124523,2.292097092,1.656863809
10.79,-0.685337365,1.157809258,0.88914144
10.8,-0.700385332,1.155835152,0.855312228
10.81,0.258762091,-0.594163895,0.304509103
10.82,0.82945925,-1.34125042,0.757164955
10.83,1.425750971,-2.112486839,0.855436206
10.84,1.390937686,-2.115065575,0.815399349
10.85,1.556852818,-2.780563831,1.035994053
10.86,0.864253402,-3.847980499,0.742115796
10.87,0.695332289,-4.290091038,0.087986544
10.88,0.34157455,-4.693575859,-0.260768443
10.89,-0.496038139,-5.04638958,-0.255300313
10.9,-1.017324567,-5.214364529,-0.325808048
10.91,-0.4748317,-5.463641167,-0.719261885
10.92,-0.219605476,-5.605286598,-0.590768576
10.93,-0.298703462,-5.584150314,-0.303051174
10.94,-0.133281499,-5.395388603,-0.195343226
10.95,-0.148017287,-5.39577961,-0.180972755
10.96,-0.6579777,-4.610569954,-0.802965045
10.97,-0.896932125,-4.177035809,-1.229857445
10.98,-0.895869494,-4.176531315,-1.204648733
10.99,-1.045657516,-2.669510841,-1.958782673
11,-0.890298367,-1.834661007,-1.551348448
11.01,-0.874429524,-1.833051205,-1.517637968
11.02,-1.040660501,-0.148321152,-0.127060324
11.03,-0.835191071,0.293593407,-0.00650084
11.04,-0.756989121,0.694694519,-0.15343371
11.05,-0.696848154,1.296914101,-0.824288964
11.06,-0.889569521,1.925583839,-1.265209794
11.07,-0.844669461,2.436920166,-1.253202319
11.08,-0.707506895,2.995951653,-0.644791782
11.09,-0.897000969,3.343956947,-0.160009027
11.1,-1.313517332,3.488212585,-0.684138179
11.11,-1.986696482,3.27091217,-1.819687843
11.12,-3.038813114,2.840519905,-2.308271646
11.13,-3.706768036,2.409986496,-2.141570807
11.14,-3.546204329,2.470920563,-1.315651536
11.15,-2.215583801,3.490488052,0.549980938
11.16,-0.323782444,4.345773697,1.770169258
11.17,1.026771069,4.710743904,1.113713503
11.18,2.490850449,5.005177498,1.431766272
11.19,3.154280901,4.692602158,2.682502747
11.2,2.904104948,4.021108627,2.681807041
11.21,2.911797047,4.026863098,2.74000597
11.22,2.843100071,2.134785652,2.574766397
11.23,2.828645706,1.348736763,2.2506845
11.24,2.80785799,1.347434044,2.252121925
11.25,2.124685287,0.142279625,0.656001449
11.26,1.630514383,0.168518066,0.209288418
11.27,1.600467324,0.162662506,0.165925682
11.28,1.614556313,0.800421715,0.782036126
11.29,1.640146852,1.48850441,1.218803525
11.3,1.602650404,1.482678413,1.167924404
11.31,1.66653049,1.987473488,1.29910779
11.32,1.397360563,2.370956421,0.94558239
11.33,-0.492541283,1.854858398,0.543337822
11.34,-0.643903136,0.532310486,0.504107833
11.35,-0.709877551,-1.058094025,0.314348877
11.36,-0.993806124,-2.606904507,0.003724873
11.37,-0.997305691,-2.60806036,-0.018349618
11.38,-1.295253754,-4.610060692,-0.194103956
11.39,-0.975632191,-5.457470894,-0.116644055
11.4,-0.958481193,-5.457023621,-0.120601296
11.41,-0.320266962,-6.620147705,0.770312905
11.42,0.310227454,-6.801829338,1.081984043
11.43,0.690009952,-6.763427734,1.416866302
11.44,0.707638383,-6.433091164,1.441891789
11.45,0.590329707,-5.867963314,1.018495321
11.46,0.485203296,-5.257066727,0.321447581
11.47,0.396623671,-4.679355621,-0.701265395
11.48,0.310334563,-4.056046009,-1.297293067
11.49,0.265664786,-3.420777321,-1.158257842
11.5,0.287379772,-3.420086861,-1.183831215
11.51,0.650727987,-1.975840569,-0.809194326
11.52,0.710029185,-1.21646595,-0.92610991
11.53,0.671378553,-0.366046906,-1.291060686
11.54,0.466703743,0.517957687,-1.440555573
11.55,0.209402859,1.210511208,-0.989640534
11.56,0.160904497,1.498484612,-0.612373948
11.57,0.168934077,1.499103546,-0.608325601
11.58,0.142653287,1.592909813,-1.433307648
11.59,0.142335296,1.593011856,-1.427019954
11.6,0.073161602,2.531351089,-1.474974036
11.61,0.065304458,2.530863762,-1.473302245
11.62,-0.274732292,3.813537598,-1.744449258
11.63,-0.105316281,4.18637085,-1.429156065
11.64,-0.197510421,4.305260658,-1.352418661
11.65,-0.851060212,4.062936783,-2.180079222
11.66,-1.493626952,3.840403557,-1.745072842
11.67,-1.313732862,4.343960762,0.443690181
11.68,-0.063469529,5.089468956,1.780618072
11.69,0.350585908,5.367983818,1.231368184
11.7,0.803559542,5.156331062,1.401666403
11.71,0.359061062,4.279684067,2.792095423
11.72,-0.377838552,3.066236496,4.002355099
11.73,-0.433345556,1.67600441,3.940010071
11.74,-0.316324651,0.20169735,3.821975946
11.75,-0.292416275,0.203669548,3.820883989
11.76,0.821042955,-0.976784706,3.978381395
11.77,0.814499557,-0.977996826,3.947205305
11.78,-0.050607741,0.248548508,2.688668013
11.79,-0.065841019,0.24678421,2.649869204
11.8,-0.66253686,1.332056999,1.189955711
11.81,-1.106883883,2.355187416,0.3335585
11.82,-1.846420884,3.967384338,1.056418061
11.83,-1.990772724,3.985198975,1.847655535
11.84,-1.631880283,3.371051788,2.034611464
11.85,-1.055658579,2.642021179,1.224621058
11.86,-0.615341902,1.498662949,0.462564558
11.87,-0.176467955,0.039151192,0.170082569
11.88,-0.019172907,-1.269592285,0.036775999
11.89,-0.043764293,-1.271132469,0.0360962
11.9,0.342941761,-2.565860748,-0.260366589
11.91,1.271293998,-4.691645145,-0.119230554
11.92,1.643194914,-5.414504051,0.495415539
11.93,1.792993426,-5.897817612,0.690676689
11.94,1.546951056,-6.05286026,0.692874193
11.95,1.507842541,-6.05439949,0.689519644
11.96,0.834275186,-5.933533669,0.564321816
11.97,0.078382641,-5.778913498,-0.093264416
11.98,0.04911679,-5.779848099,-0.088014238
11.99,0.294230342,-5.292257309,-0.436239541
12,0.269054413,-5.292977333,-0.423395246
12.01,-0.463845313,-4.338199615,-0.776940584
12.02,-0.73121345,-3.823803425,-1.329793215
12.03,-0.741088331,-3.824016094,-1.301015973
12.04,-1.375335217,-2.689153671,-1.972304702
12.05,-1.393081546,-1.937046051,-1.999172688
12.06,-1.383794308,-1.936386108,-1.95143652
12.07,-1.200789928,-1.286698341,-0.795995653
12.08,-1.333046794,-0.148302078,-0.92299813
12.09,-1.254382372,0.214653015,-0.730576634
12.1,-1.342977524,0.589769363,-0.390591443
12.11,-1.12739408,0.996149063,-1.218799472
12.12,-0.890925646,1.479309082,-1.652472615
12.13,-0.838774324,1.955202103,-1.282779694
12.14,-0.716285586,2.492840767,-0.862943709
12.15,-0.754368842,3.025115967,-0.505496383
12.16,-1.347817183,3.341165543,-0.60913372
12.17,-1.356508493,3.341002464,-0.607154548
12.18,-3.338347197,3.350494385,-2.052858829
12.19,-4.007538795,2.998805046,-2.113017321
12.2,-3.989741325,2.999728203,-2.104846239
12.21,-3.288337231,3.302906036,-1.209754467
12.22,1.079806924,4.416124344,1.601587296
12.23,1.081322074,4.41865921,1.645814538
12.24,2.486088037,4.421582222,1.683857799
12.25,3.091398239,4.197260857,2.861918926
12.26,3.050403118,3.769126892,3.0701437
12.27,2.85862422,3.32105732,3.296540737
12.28,2.788391829,2.665234566,2.718261242
12.29,2.823508739,2.151869774,1.748838425
12.3,2.437493086,1.860386848,0.899103999
12.31,1.700172067,1.750283241,0.724727154
12.32,1.197890282,1.749847412,0.850042343
12.33,1.178871393,1.746695518,0.808741212
12.34,1.353865623,1.935303688,0.995476008
12.35,1.495066762,1.968600273,0.975773573
12.36,1.475853801,1.966173172,0.936883569
12.37,0.904640079,1.654986382,1.240662575
12.38,0.237966538,1.128430367,1.105557919
12.39,0.227684498,1.126405716,1.059554338
12.4,-0.905626357,-0.7739048,0.584286332
12.41,-1.21393764,-1.945950508,0.478915542
12.42,-1.523590088,-2.91885376,0.448809862
12.43,-1.501821518,-2.919234276,0.42124325
12.44,-1.4158113,-3.97270298,0.16090858
12.45,-1.27204299,-4.736132145,-0.004760563
12.46,-0.733414531,-5.640548229,0.060267136
12.47,-0.311895162,-5.802485466,0.212656081
12.48,-0.128326237,-5.686435699,0.460439086
12.49,0.173240528,-5.567733288,0.295397341
12.5,0.21723105,-5.566118717,0.273456752
12.51,0.674463272,-4.932329178,-0.371848226
12.52,1.053067923,-4.605013847,0.02338146
12.53,1.106449842,-4.42382288,-0.241004452
12.54,1.157754302,-4.034423828,-0.485899568
12.55,1.208775759,-3.582930565,-0.22172311
12.56,1.244114161,-3.095961094,-0.561457515
12.57,1.250805259,-3.095477581,-0.574507594
12.58,0.706128359,-1.866945744,-1.416110277
12.59,0.707606912,-1.866875172,-1.414069176
12.6,0.328995913,-0.700924873,-0.757888913
12.61,-0.028515399,-0.083124161,-0.419375092
12.62,-0.111728787,0.398269653,-0.315531284
12.63,-0.269271433,0.824583054,-0.415338248
12.64,-0.459996343,1.265289307,-0.810736001
12.65,-0.533625066,1.69880867,-1.269921064
12.66,-0.642290413,2.115514755,-1.593817472
12.67,-0.456311524,2.764342308,-1.757414222
12.68,-0.25686574,3.214072227,-1.787772536
12.69,-0.251597345,3.51757431,-1.788684964
12.7,-0.260631681,3.516990662,-1.792744517
12.71,-0.402980149,3.351408958,-1.787491083
12.72,-0.917430341,3.385106087,-1.26587069
12.73,-0.216831625,4.932215691,1.530234694
12.74,0.684259653,5.581331253,2.03102684
12.75,0.80137825,5.713472366,1.852570176
12.76,0.489929259,5.353082657,2.51499033
12.77,-0.207189083,4.107455254,3.148024559
12.78,-0.843410194,2.579848289,3.561414242
12.79,-0.948384762,0.903496742,4.136274815
12.8,-0.792153895,-0.306800842,4.259375095
12.81,-0.552631974,-0.766186714,4.015273094
12.82,-0.604791343,-0.452847481,3.574721575
12.83,-0.607493043,-0.453436852,3.554638624
12.84,-1.070893049,0.336277962,2.613166094
12.85,-1.802746534,1.464024544,1.607797146
12.86,-1.510876656,3.734219551,0.909455895
12.87,-2.063499212,4.654348373,1.129329324
12.88,-2.753782988,4.947654724,1.69432497
12.89,-2.952979326,4.718935966,1.950088263
12.9,-1.882028818,3.335651398,1.49961853
12.91,-0.697352409,1.470303535,0.804315984
12.92,-0.394307077,0.083244324,0.395944625
12.93,-0.314242601,-1.131607056,0.224887058
12.94,0.067297041,-2.286784172,0.086575434
12.95,0.384109497,-3.291628361,-0.048432246
12.96,0.664193392,-4.112435818,-0.375635386
12.97,1.094531298,-4.768314362,0.015364962
12.98,1.62866044,-5.14192152,1.042250991
12.99,1.724008322,-5.455677986,0.880469739
13,1.683754325,-5.45796299,0.872875035
13.01,1.219908118,-5.392691135,0.472434789
13.02,0.959092379,-5.418218136,-0.074781761
13.03,0.525377035,-5.247227192,-0.63143301
13.04,0.384796917,-5.231608868,-0.744472563
13.05,0.360678375,-5.232546329,-0.719217181
13.06,0.428690046,-4.991609573,-0.848573625
13.07,0.399807632,-4.992517471,-0.828356743
13.08,0.218677819,-4.639017582,-0.895390511
13.09,-0.411024272,-3.842512608,-0.864671111
13.1,-0.907306075,-3.385860443,-0.99315387
13.11,-0.931898952,-3.386250496,-0.977016389
13.12,-1.473465562,-2.277622223,-1.406032443
13.13,-1.477777839,-2.277053833,-1.371464491
13.14,-1.594380498,-0.738892555,-1.165948033
13.15,-1.579167128,-0.737374306,-1.123421192
13.16,-1.179226637,0.873438835,-0.52997601
13.17,-0.903526783,1.71599865,-0.871167958
13.18,-1.00705862,2.439432144,-1.11495471
13.19,-0.985438824,2.442351341,-1.066172361
13.2,-0.73109293,3.156035423,-0.567565799
13.21,-0.836800695,3.256015778,-0.555228174
13.22,-1.253549099,3.338423729,-1.047383189
13.23,-1.257591724,3.3387537,-1.039306879
13.24,-2.081377268,3.352731705,-1.760336995
13.25,-3.456772804,3.010294914,-2.302652836
13.26,-3.79607439,3.686430931,-1.052943945
13.27,-2.53589797,4.909486771,-0.471098781
13.28,-0.241935313,5.779744148,-0.74833411
13.29,1.881817818,6.332564354,0.138831139
13.3,3.048620462,6.440130234,2.171122074
13.31,3.600046158,6.123719215,3.788592815
13.32,3.253570557,5.034535408,4.727846622
13.33,3.261960983,5.039960861,4.784369469
13.34,2.186598778,1.651725769,3.218137264
13.35,1.992882729,0.096524239,1.868040562
13.36,2.133481741,-1.149067879,0.817248046
13.37,2.346452236,-1.488653183,0.256477833
13.38,1.792548895,-0.89071846,-0.048447788
13.39,1.273943424,0.066087723,0.04635191
13.4,1.137547493,0.948631287,0.14123708
13.41,0.995618224,1.883817673,0.101993203
13.42,0.583547294,2.639674187,0.103512228
13.43,0.400203496,2.969347,0.809167922
13.44,0.411687791,2.518044472,1.914902687
13.45,0.369053394,1.384025574,1.755023122
13.46,0.350449532,1.380455971,1.710460305
13.47,-0.368400991,-1.48339653,0.5432899
13.48,-0.745016933,-2.627478123,-0.248241961
13.49,-0.958965421,-3.737137318,-0.920139253
13.5,-0.945864797,-3.737653255,-0.936889887
13.51,-0.65925318,-5.41404438,0.256989241
13.52,-0.127221137,-6.034580231,0.495742738
13.53,0.094016105,-6.372386456,0.90460372
13.54,0.113321722,-6.372437,0.887887538
13.55,0.442966998,-6.405887604,1.163476944
13.56,0.749576092,-6.274032593,1.227920532
13.57,0.643855572,-5.375758648,0.727157474
13.58,0.591667056,-4.898554325,0.41058287
13.59,0.582897902,-4.550631046,0.008136958
13.6,0.740793407,-4.032838345,-0.483474016
13.61,0.756935537,-4.032492161,-0.497305542
13.62,0.889984012,-2.875996113,-0.761999309
13.63,0.722802281,-2.150776863,-1.002836108
13.64,0.497037828,-1.569350243,-1.109041929
13.65,0.216004491,-0.942399979,-0.998612523
13.66,0.28739664,-0.415915489,-0.910609126
13.67,0.42734915,0.065141678,-0.328836888
13.68,0.13910085,0.519918442,-0.250192732
13.69,-0.029801965,0.874412537,-0.724112332
13.7,0.026042759,1.217191696,-1.192634583
13.71,-0.152457237,1.547954559,-1.54613018
13.72,-0.100124598,2.118083,-1.295801282
13.73,-0.025812864,2.877149582,-1.207199335
13.74,-0.031948566,2.876934052,-1.202506781
13.75,0.093782961,3.750469208,-1.434213161
13.76,-0.112961471,3.738102913,-1.669850469
13.77,-0.753110409,3.769095421,-1.431069613
13.78,-1.25344038,4.111867905,-0.397751302
13.79,-1.241763115,4.112714767,-0.391294658
13.8,-1.048267841,4.858670235,0.467501283
13.81,-0.23001653,5.291258812,0.009670913
13.82,-0.307607055,5.068128586,0.581786633
13.83,-0.334490359,4.687234879,1.870560527
13.84,-0.605681121,3.767949104,3.300854206
13.85,-0.591760516,2.444267273,4.239746094
13.86,-0.266308785,0.959887505,4.339581966
13.87,0.126651764,-0.147100449,3.812603951
13.88,0.770392776,-0.72129631,3.483076334
13.89,0.740309417,-0.44438839,3.600944996
13.9,0.344609171,0.02309227,2.817290306
13.91,-0.20380652,0.820349693,1.487070799
13.92,-0.227460682,0.817733765,1.463393569
13.93,-1.378421307,2.720873833,1.505816817
13.94,-2.155617952,3.355136871,1.554702401
13.95,-2.743192196,3.719307899,1.516418457
13.96,-2.887014627,3.506958008,1.818820715
13.97,-2.893402576,3.505642891,1.783507347
13.98,-1.701682806,1.17736721,1.116581202
13.99,-1.173286319,-0.037203789,0.607122123
14,-0.811274409,-1.031265259,0.285362214
14.01,-0.440936863,-1.95827198,0.22571677
14.02,-0.446656942,-1.95882225,0.211302459
14.03,0.153049976,-2.821762085,0.364993751
14.04,1.06133759,-4.235580444,0.836570561
14.05,1.040161252,-4.23684597,0.819184542
14.06,1.500370026,-4.721745491,0.440590262
14.07,0.992078126,-4.866491795,0.81540674
14.08,0.970661283,-4.86749506,0.809109092
14.09,0.651232302,-4.504485607,0.120121375
14.1,0.6623559,-4.541216373,-0.056345657
14.11,0.431482971,-4.441354752,-0.155916631
14.12,0.166841686,-4.223979473,-0.281535417
14.13,-0.13471511,-4.054200172,-0.564811707
14.14,-0.507385969,-3.95119524,-0.934452176
14.15,-0.785778523,-3.80734396,-1.203330874
14.16,-0.920615077,-3.601138592,-1.271807075
14.17,-0.931933761,-3.600719929,-1.242568731
14.18,-0.99576962,-3.324826241,-1.039471865
14.19,-1.338801384,-2.366320133,-0.822523832
14.2,-1.558535576,-1.871940613,-0.558783412
14.21,-1.51613152,-1.238333702,-0.572691798
14.22,-1.363626003,-0.678559303,-0.573707104
14.23,-1.347027659,-0.676329613,-0.535157263
14.24,-0.879546046,0.197604179,-0.709992588
14.25,-0.842349708,0.820325851,-0.767541647
14.26,-0.796343505,1.373823166,-0.986335456
14.27,-0.788005054,1.915343285,-0.955625415
14.28,-0.747024596,2.593021393,-0.947073937
14.29,-0.694165766,3.277347565,-1.088827848
14.3,-1.355400562,3.613840103,-1.206400394
14.31,-2.443941355,3.53799057,-1.156598449
14.32,-3.60874033,3.03303051,-1.504037738
14.33,-3.966411352,2.66762352,-1.986591101
14.34,-3.93858242,2.670007706,-1.970636606
14.35,-1.323613286,3.978824615,-0.024098635
14.36,0.907312274,4.656237602,-0.458076835
14.37,1.772758961,5.439811707,-0.694187105
14.38,2.164286852,6.011640549,0.895269752
14.39,2.703505516,6.174572945,3.415999413
14.4,2.673130035,5.866788864,4.386182785
14.41,2.602727175,4.828224182,3.969281912
14.42,1.905716658,3.126351357,3.488170862
14.43,1.58594656,1.168762207,2.54132843
14.44,0.91146487,-0.831301689,1.011998296
14.45,0.481968612,-2.084561825,0.446189821
14.46,0.47423628,-2.088046551,0.411326587
14.47,1.18708396,-2.199220181,1.235076904
14.48,2.058369637,-1.27082634,1.233822465
14.49,1.84334147,0.039304733,1.406986594
14.5,1.58856225,1.153253555,1.666882992
14.51,1.546469688,2.161402702,1.742114067
14.52,1.536210775,2.158506393,1.70776403
14.53,0.850705862,2.775147438,2.019425631
14.54,0.833696008,2.771337509,1.969231606
14.55,0.819272876,0.993322372,1.691147208
14.56,0.655652046,-0.30506897,0.93904525
14.57,0.426836431,-1.353610992,0.376775205
14.58,0.350852191,-2.346469879,0.317049563
14.59,0.36184907,-3.042144775,0.331927478
14.6,0.466081768,-3.493432999,0.31175518
14.61,0.491839647,-3.683595181,0.540105224
14.62,0.255202323,-3.593549252,0.938147068
14.63,0.281242222,-3.374100208,0.965425849
14.64,0.278988302,-3.374797344,0.944163322
14.65,0.097073942,-2.973067284,0.81834054
14.66,-0.449728012,-2.319623947,0.363937199
14.67,-0.44490397,-2.336447716,0.121214941
14.68,-0.468632907,-2.432216644,0.129522011
14.69,-0.296254367,-2.556735039,0.070107847
14.7,0.013627321,-2.662147999,-0.0087744
14.71,0.015336454,-2.662256718,-0.01569514
14.72,0.487883031,-2.576242447,0.238509774
14.73,0.711783052,-2.418390751,0.336068034
14.74,0.730853021,-2.140758991,0.245469898
14.75,0.552743316,-1.870566368,0.176405206
14.76,0.348507822,-1.633822441,0.263993532
14.77,0.532145739,-1.286828041,0.256483525
14.78,0.497473061,-0.767443657,0.201576546
14.79,0.579372883,-0.216872215,0.058565795
14.8,0.570737124,-0.216907501,0.069973335
14.81,0.689003587,1.066435814,0.225688368
14.82,0.636715472,1.710458755,0.105004385
14.83,0.619233012,1.710467339,0.124465451
14.84,0.375820696,2.227804184,-1.091889501
14.85,0.239847377,2.103462219,-0.997342467
14.86,0.221965104,2.10357666,-0.981389165
14.87,-0.940677643,1.122217178,-1.646653175
14.88,-1.213749051,0.665602684,-1.194526434
14.89,-1.341616988,0.812767983,-0.64825207
14.9,-1.020009041,1.151062012,-0.130329311
14.91,-0.498888969,1.860836029,0.197669894
14.92,-0.611081839,2.472793579,0.543416143
14.93,-0.71254164,2.95115757,0.851127386
14.94,-0.685786307,2.953587532,0.888290167
14.95,-1.185083985,2.724405289,1.163722754
14.96,-1.03579545,2.366195679,1.384416342
14.97,-0.313006967,2.185072899,1.518495321
14.98,-0.282393217,2.188053131,1.547391772
14.99,0.571265876,2.111626625,1.323544979
15,0.459048152,1.512274742,0.918979347
15.01,0.47023499,1.512888908,0.920910597
15.02,-0.23105371,1.01456356,1.369566798
15.03,-1.104751468,-0.003771782,1.511875868
15.04,-1.094491959,-0.004619598,1.491546869
15.05,-0.754281402,-0.694913864,0.967188358
15.06,-0.745544255,-0.695328713,0.953542709
15.07,-0.387438208,-0.659570694,1.080229163
15.08,-0.218729168,-0.628488541,1.328563452
15.09,-0.212768495,-0.6286726,1.320249796
15.1,0.363484681,-0.693792343,1.277155519
15.11,0.527621269,-0.601389885,1.284612417
15.12,0.502294958,-0.512281418,1.262872219
15.13,0.271792084,-0.445066452,1.114539146
15.14,-0.087697893,-0.344463348,0.94897747
15.15,-0.105680704,-0.346852303,0.914763629
15.16,-0.441821784,-0.339552879,0.87345469
15.17,-0.76132673,-0.407370567,0.882244706
15.18,-1.053686738,-0.605613709,0.732647002
15.19,-1.084387183,-0.793189049,0.569688201
15.2,-1.065559387,-0.793146133,0.508036315
15.21,-0.991621733,-0.86662674,0.422076166
15.22,-0.92437619,-0.762413025,-0.054913275
15.23,-0.883728504,-0.602777481,-0.034076165
15.24,-0.787367404,-0.421348572,0.174919486
15.25,-0.616110921,-0.301474571,0.232659295
15.26,-0.617062509,-0.301264763,0.210218325
15.27,-0.272980511,0.034191132,0.815883458
15.28,-0.274645209,0.03444767,0.793901324
15.29,-0.128093779,-0.085020065,0.558690727
15.3,-0.197004199,-0.407989502,0.698874414
15.31,-0.199523449,-0.407625198,0.675913811
15.32,0.07641682,-0.8285923,0.704717279
15.33,-0.003765881,-0.84496212,0.328335077
15.34,0.174884468,-0.801465988,0.759038568
15.35,0.280135125,-0.61681366,0.972829223
15.36,0.405745566,-0.417878151,0.827463508
15.37,0.295651257,-0.010795593,0.915031552
15.38,0.072890103,0.274142265,0.585398793
15.39,0.065917075,0.274003029,0.579194069
15.4,-0.273598373,0.884257317,0.125321209
15.41,-0.277837008,0.884467125,0.113619655
15.42,-0.483943611,0.85340786,-0.190539599
15.43,-0.476856887,0.685711861,-0.186492235
15.44,-0.522834361,0.443758965,-0.187117666
15.45,-0.671427131,0.261734009,-0.028192341
15.46,-0.779110789,0.111106873,-0.131717682
15.47,-0.77505362,0.111537933,-0.137416184
15.48,-0.690821767,0.033084869,-0.259117246
15.49,-0.66173476,0.038673401,0.086653322
15.5,-0.592562556,0.168925285,0.15415898
15.51,-0.119250536,0.229721069,0.021553755
15.52,-0.104560018,0.230100632,0.032479048
15.53,0.554572225,0.103137016,-0.134850085
15.54,0.503239751,-0.05514431,-0.104987741
15.55,0.51587373,-0.160780907,-0.343758285
15.56,0.507255316,-0.223340035,-0.39401716
15.57,0.432819843,-0.31462574,-0.489602983
15.58,0.272710145,-0.350884438,-0.611679018
15.59,0.190636814,-0.372775078,-0.595274031
15.6,-0.007103682,-0.452086449,-0.40038684
15.61,-0.003550112,-0.452298164,-0.379262209
15.62,-0.177276909,-0.62484169,-0.504916668
15.63,-0.097191513,-0.715898514,-0.477393001
15.64,0.001089096,-0.658520699,-0.437897265
15.65,0.111178577,-0.48617363,-0.266378552
15.66,0.195221931,-0.299384117,-0.163897961
15.67,0.091002703,-0.107726097,-0.203473389
15.68,0.031401753,0.012194633,-0.325338006
15.69,0.037742317,0.012495041,-0.311615199
15.7,-0.018867612,0.01756382,-0.515704155
15.71,0.112039387,-0.022958755,-0.898852885
15.72,0.113526106,-0.022911072,-0.884596944
15.73,0.450614452,0.182911873,-0.686697364
15.74,0.775641084,0.297622681,0.041437123
15.75,0.77058059,0.297281265,0.055456296
15.76,0.81280911,0.21312809,-0.008391177
15.77,0.673567593,0.037326813,-0.184597939
15.78,0.654058874,0.014657021,-0.397640467
15.79,0.475082338,0.03493309,-0.804739118
15.8,0.366160542,0.086345673,-0.422371239
15.81,0.338261575,0.084952354,-0.408721477
15.82,0.301596254,0.31586647,0.071377717
15.83,0.214287549,0.348210335,0.037971057
15.84,-0.017985106,0.196440697,-0.276042759
15.85,0.016210765,-0.232919693,-0.324144065
15.86,0.000291884,-0.23353672,-0.319398344
15.87,0.047373146,-0.442300797,-0.320512652
15.88,0.196422368,-0.51687336,-0.114966467
15.89,0.37497738,-0.47648716,0.037324637
15.9,0.36223501,-0.412149429,0.043396071
15.91,0.352786511,-0.412362099,0.051031083
15.92,0.359153479,-0.149026871,0.143912435
15.93,0.250982225,0.025832176,-0.461105287
15.94,0.085547686,0.047502518,-0.485150755
15.95,0.039838284,0.076383591,-0.447566479
15.96,-0.029951215,0.119597435,-0.387073398
15.97,0.067786932,0.213106155,-0.329467952
15.98,0.128400385,0.265869141,-0.195656091
15.99,-0.016717553,0.206130981,-0.303833097
16,-0.158238858,0.158413887,-0.361815721
16.01,-0.312693745,0.026919365,-0.342589349
16.02,-0.410627723,-0.0782547,-0.363806009
16.03,-0.427015901,-0.111456871,-0.418551952
16.04,-0.312996507,-0.127916336,-0.372582257
16.05,-0.181554079,-0.132401466,-0.205478311
16.06,-0.189098507,-0.1489048,-0.199956924
16.07,-0.198521346,-0.167798042,-0.170684487
16.08,-0.116556078,-0.114816666,-0.222666055
16.09,-0.037095577,-0.162368774,-0.323641986
16.1,-0.034525454,-0.162010193,-0.316417873
16.11,-0.044024885,-0.14013195,-0.34540543
16.12,0.044271827,-0.125449181,-0.061577648
16.13,0.045162052,-0.12521553,-0.056306422
16.14,-0.08597067,0.030691147,-0.119363874
16.15,-0.084961206,0.030988693,-0.112741232
16.16,-0.255500734,0.04573822,-0.085840911
16.17,-0.308139473,0.031814575,-0.512822926
16.18,-0.304896861,0.032352448,-0.502888441
16.19,-0.411914885,0.097667694,-0.415769488
16.2,-0.237600923,0.167744637,0.000130862
16.21,-0.002781808,0.089213371,0.157804966
16.22,-0.072299153,-0.001336098,-0.210760415
16.23,-0.080151021,-0.123035431,0.230064154
16.24,-0.079423577,-0.122908592,0.232106477
16.25,-0.023563534,-0.158788681,0.337332428
16.26,-0.253509253,-0.122610092,-0.729080379
16.27,-0.205444694,-0.016996384,-0.246692002
16.28,-0.225265652,0.035816193,0.025476664
16.29,-0.360723406,0.002373695,0.112177342
16.3,-0.359535068,0.002414703,0.112141103
16.31,-0.212330759,-0.148351669,-0.258445442
16.32,-0.211223662,-0.148226738,-0.256538749
16.33,-0.108727008,-0.148001671,-0.090782017
16.34,0.066129804,-0.047169685,-0.041854382
16.35,0.00312981,-0.039701462,-0.030146241
16.36,0.000240684,-0.008250237,0.029935539
16.37,0.006332129,-0.015144348,0.144936562
16.38,-0.005465955,-0.046031952,0.096689701
16.39,0.026752472,-0.110464096,-0.22398603
16.4,0.02444917,-0.110230446,-0.217648625
16.41,-0.157741576,-0.081317902,0.051007986
16.42,-0.159752607,-0.081123352,0.056085169
16.43,-0.037271887,-0.052081108,-0.075636983
16.44,-0.10547331,0.017769814,-0.210762978
16.45,-0.368919551,0.04701519,-0.256730318
16.46,-0.39845112,0.04047966,-0.241415083
16.47,-0.355130971,-0.018633842,-0.227955222
16.48,-0.390818059,-0.013167381,0.011782944
16.49,-0.270362645,-0.048455238,0.015232623
16.5,-0.255878449,-0.083803177,-0.046421349
16.51,-0.195909083,-0.066469193,-0.125179529
16.52,-0.177029073,-0.02045536,-0.144447923
16.53,-0.05045557,0.044641495,0.05792892
16.54,-0.216445029,0.05698204,0.215929866
16.55,-0.137052357,0.052631378,0.110766351
16.56,-0.221321404,0.024365425,-0.148901045
16.57,-0.219442457,0.02493,-0.141616166
16.58,-0.153460234,-0.072740555,-0.185142338
16.59,-0.177108705,-0.081882477,-0.044943631
16.6,0.007330269,-0.052803993,-0.018125057
16.61,0.028017432,-0.023694992,-0.033496916
16.62,0.027283877,-0.023255348,-0.026658595
16.63,-0.060756922,-0.080249786,0.123421192
16.64,-0.16783613,-0.113219261,0.032594562
16.65,-0.267287403,-0.139027596,-0.345835507
16.66,-0.265786648,-0.138502121,-0.339370132
16.67,-0.132874012,0.051054001,0.024687588
16.68,-0.133574873,0.051103592,0.025657296
16.69,0.227361828,0.043765068,0.116553247
16.7,0.223590791,0.043673515,0.117296755
16.71,0.044721693,-0.102506638,0.147606313
16.72,-0.247205943,-0.095538139,0.142181873
16.73,-0.246359557,-0.09564209,0.140187502
16.74,0.016732723,0.050251007,-0.062994957
16.75,-0.026313007,0.049883842,0.079184532
16.76,-0.132319778,0.049489021,-0.037087917
16.77,-0.14071539,0.049158096,-0.200156331
16.78,-0.223881543,0.048727036,-0.239737749
16.79,-0.227891356,0.048199654,-0.245056331
16.8,-0.211862624,0.047611237,-0.093827486
16.81,0.171984896,-0.056040764,0.08509922
16.82,0.12971352,-0.044903755,0.200784594
16.83,0.12659131,-0.045536995,0.192915767
16.84,-0.013312697,0.04494381,0.308202982
16.85,-0.185256839,0.118865013,0.422878087
16.86,0.092604429,0.044606209,-0.202541411
16.87,0.149931386,0.044707298,-0.045242965
16.88,0.112173319,-0.050901413,0.047923207
16.89,0.09419781,-0.172797203,0.217972219
16.9,0.095019668,-0.172706604,0.218941927
16.91,0.303490788,-0.261258125,0.513890803
16.92,0.219770655,-0.148767471,0.532409012
16.93,0.136668086,-0.07215786,0.436132371
16.94,-0.093883514,-0.067257881,0.348189563
16.95,-0.382644773,0.043119431,0.342764348
16.96,-0.385941118,0.04586792,0.132683635
16.97,-0.270316929,0.003178596,-0.063838184
16.98,-0.268203318,0.003635406,-0.05846411
16.99,-0.19474718,0.039946556,0.00409025
17,-0.258520186,0.037887573,0.099458337
17.01,-0.164351702,0.045383453,0.151345491
17.02,-0.190466315,0.048053741,0.138327658
17.03,-0.132618249,0.105817795,0.26699236
17.04,-0.180577964,0.101323128,0.228133172
17.05,-0.305079371,0.049068451,0.212509394
17.06,-0.340233922,-0.022212029,0.184209287
17.07,-0.234464079,-0.057531357,0.098762214
17.08,-0.151285529,-0.090509415,-0.015662849
17.09,-0.093090177,-0.046994209,0.03428936
17.1,-0.17444253,-0.015529633,0.130939305
17.11,-0.163040429,0.04699707,0.081171453
17.12,-0.283709496,0.052078247,-0.025779009
17.13,-0.463880301,0.083450317,-0.33208102
17.14,-0.466065258,0.083733559,-0.327347517
17.15,-0.078900248,-0.038230896,0.590610147
17.16,-0.083896428,-0.03821373,0.593539715
17.17,-0.217862546,-0.159864426,0.057953179
17.18,-0.309956104,-0.16396904,-0.084708691
17.19,-0.265284032,-0.005421638,0.282458603
17.2,-0.181650639,-0.069725037,0.156300664
17.21,-0.079137772,-0.107604027,-0.198672354
17.22,-0.08207354,-0.107121468,-0.191652298
17.23,-0.198219121,-0.00409317,0.299400747
17.24,-0.382251233,-0.011446953,0.354735136
17.25,-0.3925699,-0.028389931,0.19131428
17.26,-0.371531516,-0.002189636,0.100194573
17.27,-0.369224399,-0.002182961,0.099193275
17.28,-0.147515506,-0.002024651,-0.122133374
17.29,-0.146329492,-0.001758575,-0.119464457
17.3,-0.035020322,0.01529026,0.10871172
17.31,0.0297952,-0.017951965,0.243739128
17.32,0.027059555,0.003878593,0.326345027
17.33,0.026762933,0.004130363,0.329339504
17.34,-0.042571127,-0.065009117,0.079166889
17.35,-0.0431647,-0.064778328,0.082208157
17.36,-0.010578901,-0.03349781,0.206608653
17.37,0.03624627,-0.030968666,0.163235724
17.38,0.027413338,-0.059502602,0.211736083
17.39,0.025862306,-0.059318542,0.214519024
17.4,-0.223344505,0.058274269,0.129219353
17.41,-0.422965795,0.058627129,0.00818038
17.42,-0.429797381,0.018284798,-0.081950486
17.43,-0.426363915,0.018699646,-0.07866317
17.44,-0.222057968,0.059794426,0.259695828
17.45,-0.11336261,0.0601511,0.336732268
17.46,-0.109767526,0.060774803,0.342253685
17.47,-0.050600827,0.063879967,0.252901256
17.48,-0.119942874,0.062187195,0.167871594
17.49,-0.090952784,-0.013662338,0.021123886
17.5,-0.003055096,-0.034435272,-0.036670923
17.51,-0.076348305,0.021289825,0.304302573
17.52,-0.046684772,0.016958237,0.312688887
17.53,-0.04341495,0.017495155,0.317162275
17.54,-0.413423747,0.066150665,0.015122712
17.55,-0.383768141,0.066958427,0.030971706
17.56,-0.260713369,0.067659378,-0.038135052
17.57,-0.299090594,0.068189621,0.147407115
17.58,-0.29345727,0.068583488,0.148973048
17.59,-0.036152989,0.001833916,0.321705699
17.6,0.041485995,-0.055350304,0.298156381
17.61,-0.00816527,-0.016732216,-0.021981478
17.62,-0.227196276,0.065304756,-0.178682089
17.63,-0.100048035,-0.01289463,0.077822566
17.64,0.204814434,-0.134414673,0.562588811
17.65,0.207910657,-0.134101868,0.564250112
17.66,0.200090617,-0.236902237,0.500304341
17.67,0.041702181,-0.133851051,0.296803236
17.68,0.006807178,0.019041061,0.333472729
17.69,0.008445591,0.018788338,0.329942763
17.7,-0.207841486,0.260689735,-0.194299936
17.71,-0.206791401,0.260694504,-0.194713771
17.72,-0.038011909,0.234078407,0.174089372
17.73,0.058012843,0.087636948,0.46301347
17.74,0.058174551,0.070498466,0.44100675
17.75,0.04702273,0.012731552,0.443387687
17.76,0.045975864,0.012591362,0.442324996
17.77,-0.099948376,-0.063865662,0.154323399
17.78,-0.099103153,-0.063387871,0.15887332
17.79,-0.083450645,-0.134682655,0.264525771
17.8,2.5034E-05,-0.057598114,0.184752405
17.81,0.000250906,0.069923401,0.141993165
17.82,-0.096841574,0.015675545,0.098560452
17.83,-0.092142314,0.016756058,0.107318342
17.84,-0.06108585,-0.01553154,-0.006758392
17.85,-0.054290712,-0.016684532,-0.082542539
17.86,-0.041190356,-0.013320923,-0.02912575
17.87,-0.06707859,0.047245026,0.220834911
17.88,-0.064807445,0.04783535,0.225318193
17.89,0.020753652,0.017360687,0.166251481
17.9,-0.316851139,-0.077658653,-0.076433897
17.91,-0.31314528,-0.076861382,-0.070512652
17.92,-0.225818098,-0.169659615,-0.172124982
17.93,-0.222212195,-0.169126511,-0.168764591
17.94,-0.184743583,-0.142379761,0.005810976
17.95,-0.151691198,-0.058131218,0.113069296
17.96,-0.200290859,-0.03845787,0.154350519
17.97,-0.195609391,-0.037793159,0.158292532
17.98,-0.154746711,0.073068619,-0.007312894
17.99,-0.097999454,-0.002893448,-0.15884912
18,-0.070856988,-0.074058533,-0.113532186
18.01,-0.068941236,-0.073602676,-0.110151887
18.02,-0.024559498,-0.104512215,-0.025066972
18.03,0.061975479,-0.042252541,0.262146115
18.04,-0.040117621,0.070366859,0.229213119
18.05,-0.03888315,0.070605278,0.23056221
18.06,-0.03995496,0.087758064,-0.032171607
18.07,-0.071671486,0.090556145,0.171815157
18.08,-0.06942606,0.090870857,0.173654079
18.09,-0.162276208,0.005141258,-0.060725451
18.1,-0.093903303,0.048781395,0.126730561
18.11,-0.089842081,0.049192429,0.128408074
18.12,0.018623292,-0.015084267,0.099086404
18.13,0.157232523,-0.098837852,0.569981158
18.14,0.15911907,-0.099304199,0.564775884
18.15,0.184545934,-0.162251473,0.545361221
18.16,0.202351242,-0.136839867,0.464495122
18.17,0.176862627,0.036988258,-0.024014354
18.18,0.178012997,0.036478996,-0.02946794
18.19,0.240333408,0.086056709,0.073948979
18.2,0.217388809,0.106498718,0.463867724
18.21,0.228749454,0.126776695,0.591938376
18.22,0.150475591,0.075292587,0.230535328
18.23,0.048268676,0.081364632,0.281647682
18.24,0.123808831,0.075487137,0.248741329
18.25,-0.054033518,0.084238052,0.254095912
18.26,-0.101984441,0.091053009,0.255119503
18.27,-0.100536585,0.091081619,0.25454843
18.28,-0.045147419,0.024333,0.299213111
18.29,-0.050061762,-0.05175209,0.15952605
18.3,-0.047813058,-0.051063538,0.165283024
18.31,-0.098486006,-0.098309517,0.158495247
18.32,0.029227674,-0.042791367,0.251110196
18.33,-0.018321395,-0.052116394,0.205449343
18.34,-0.159253359,0.000679016,0.077234626
18.35,-0.184708357,0.022313118,-0.003870845
18.36,0.00048846,-0.030308723,0.149543941
18.37,-0.31512475,-0.092611313,0.543676317
18.38,-0.427947998,-0.128703117,0.4115237
18.39,-0.423664033,-0.128649712,0.409515262
18.4,-0.333122492,-0.181074143,0.129291534
18.41,-0.196496666,-0.185790062,0.13428241
18.42,-0.192189932,-0.185817719,0.131521702
18.43,0.048454404,-0.193144798,0.422322154
18.44,0.051159024,-0.19348526,0.417189479
18.45,0.095880091,-0.067103386,0.609588623
18.46,-0.064949989,0.016468048,0.275678515
18.47,-0.062734604,0.0163908,0.273557305
18.48,-0.213573158,0.035578728,0.073686242
18.49,-0.197614372,-0.036290169,0.069736004
18.5,-0.129532158,-0.007613182,0.118864298
18.51,-0.128926635,-0.007556915,0.119030893
18.52,-0.095836103,-0.007427216,0.142113686
18.53,-0.088758767,0.016667366,0.196619034
18.54,0.021014035,0.081572533,0.103652
18.55,0.0041278,0.069934845,0.138197064
18.56,-0.200897217,-0.090087891,0.117788911
18.57,-0.492231607,-0.019873619,-0.18983233
18.58,-0.611406326,0.029097557,-0.313920975
18.59,-0.485631883,-0.063112259,-0.404389262
18.6,-0.210276425,-0.133933067,-0.09095639
18.61,0.05020231,-0.140677452,0.561082363
18.62,0.190957427,-0.203215599,0.783616781
18.63,0.17157501,-0.227435112,0.316548526
18.64,0.071758389,-0.126896858,0.026111841
18.65,-0.063847542,-0.040660858,-0.129630089
18.66,-0.054709136,-0.0096035,-0.007958651
18.67,-0.02870667,0.085726738,0.283938348
18.68,-0.176625788,0.08501339,0.406399012
18.69,-0.303717852,0.0173769,0.131526351
18.7,-0.244745612,-0.016494751,-0.175501943
18.71,-0.24525851,-0.016658783,-0.176777959
18.72,-0.143314779,-0.069544792,-0.137560487
18.73,0.122995436,0.083376884,0.255366027
18.74,0.042652249,0.092704773,0.447745085
18.75,0.022855341,0.083036423,0.44960916
18.76,0.022933722,0.083119392,0.450295985
18.77,0.049687505,0.028413773,0.092236042
18.78,-0.17855835,-0.066828728,-0.164330185
18.79,-0.177512348,-0.066332817,-0.160024643
18.8,-0.073159456,-0.046960831,0.096657813
18.81,-0.075195313,-0.046854973,0.098838091
18.82,-0.025097549,0.005835533,0.048080087
18.83,-0.075584173,0.130226135,0.314231515
18.84,-0.065188408,0.137290001,0.21104449
18.85,-0.187185884,0.084815025,-0.021745622
18.86,-0.248510599,-0.00585556,-0.090992033
18.87,-0.247477412,-0.00561142,-0.089302182
18.88,-0.156170607,-0.113258362,-0.007124066
18.89,-0.156533301,-0.113359451,-0.007902086
18.9,-0.09321475,-0.061023712,0.207482755
18.91,-0.047529101,-0.006356239,0.329322577
18.92,-0.016178966,0.017297745,0.179405093
18.93,-0.015965581,-0.004476547,0.135340154
18.94,-0.017939806,-0.004784584,0.133346379
18.95,0.056471884,-0.026729584,-0.022256255
18.96,0.053755641,-0.027142525,-0.024930418
18.97,0.00117749,0.034568787,0.217719138
18.98,-0.091417074,0.089270592,0.47837013
18.99,-0.032889664,0.082018852,0.191072345
19,-0.031773448,0.082250595,0.136770308
19.01,0.093681991,0.082559586,0.140740395
19.02,0.091479778,0.082790375,0.14437145
19.03,0.146364063,0.044493675,0.241857946
19.04,0.028275132,0.053915977,0.165530503
19.05,0.026231945,0.053855896,0.166112721
19.06,-0.283290029,0.101866722,-0.114816546
19.07,-0.28306824,0.102122307,-0.112404823
19.08,0.034488618,0.059099197,0.544803739
19.09,0.031755984,0.058897018,0.544402123
19.1,-0.026097298,-0.135157585,0.482556641
19.11,0.051529288,-0.250309944,0.469264269
19.12,0.109849751,-0.260235786,-0.112842023
19.13,-0.023845255,-0.143000603,-0.328065455
19.14,-0.026494026,-0.143349648,-0.329910815
19.15,-0.027187109,0.107352257,0.605844021
19.16,-0.131869316,0.08972168,0.5083915
19.17,-0.134915531,0.089087486,0.503690839
19.18,-0.309051693,-0.069355011,0.090881884
19.19,-0.309831739,-0.069630623,0.088575959
19.2,-0.186734617,-0.163200378,-0.070608795
19.21,-0.063280046,-0.120287895,0.071809053
19.22,0.090581387,-0.01513195,0.33647877
19.23,0.076385319,0.073217392,0.622749567
19.24,-0.01597482,0.077767372,0.451079667
19.25,-0.032850206,0.080256462,-0.043534517
19.26,-0.032424092,0.080884933,-0.037459016
19.27,-0.027316093,0.088638306,0.037754059
19.28,0.006249309,0.084346771,0.109755218
19.29,0.051157802,0.079955101,0.138003588
19.3,0.008966327,0.104196549,0.158556998
19.31,0.006866455,0.104432106,0.162136614
19.32,-0.022168994,0.042312622,0.231965661
19.33,-0.084585547,0.013627052,0.10922277
19.34,-0.144670248,-0.065375328,0.124986053
19.35,-0.130181789,-0.156472206,0.151501358
19.36,-0.081825137,-0.15661335,0.10315758
19.37,-0.083815157,-0.168826103,0.140183508
19.38,-0.123678625,-0.152365685,0.219388187
19.39,-0.125214458,-0.152722359,0.216706395
19.4,-0.026434779,-0.074071884,0.221319616
19.41,0.091256231,-0.00743866,0.251616418
19.42,0.088657409,-0.007912636,0.248259485
19.43,0.057915658,0.029934883,0.163212597
19.44,0.055655628,0.029589653,0.160868645
19.45,0.015569985,0.065203667,0.08945024
19.46,-0.055020809,0.076857567,0.271219432
19.47,0.046589822,0.076630592,0.164221168
19.48,0.045177042,0.07670784,0.16571641
19.49,-0.051534474,-0.01176548,0.136382997
19.5,-0.054633379,0.019558907,-0.048084378
19.51,-0.096354604,-0.011363983,0.045475185
19.52,-0.147771239,-0.025661469,0.171233058
19.53,-0.148183316,-0.025731087,0.17082274
19.54,-0.164844185,0.038998604,-0.10617733
19.55,-0.090349585,0.077388763,0.234472036
19.56,0.062155992,0.01276207,0.823970974
19.57,0.060729772,0.012508392,0.822278202
19.58,-0.021861881,-0.167051315,-0.304805636
19.59,-0.093460977,-0.173923492,-0.093488157
19.6,-0.092989862,-0.17413044,-0.09566319
19.61,0.091399401,-0.014073372,0.168657661
19.62,0.061820567,0.00496006,0.064907074
19.63,0.060747683,0.004824638,0.064132631
19.64,0.065903664,0.076182365,0.318999648
19.65,-0.105615467,0.075486183,0.31980598
19.66,-0.063739866,0.010252953,0.022261322
19.67,-0.064722449,0.009856224,0.018800378
19.68,-0.008226067,-0.004834175,0.073331058
19.69,0.041541368,-0.074393272,0.093796968
19.7,0.041441411,-0.074356079,0.094226599
19.71,-0.039276242,-0.047979355,0.257009208
19.72,0.069072276,0.009423256,0.308845043
19.73,0.112097651,0.042866707,-0.027019203
19.74,0.028100163,0.07407856,0.033902109
19.75,0.207440466,0.062141418,0.314277172
19.76,0.20539698,0.06192112,0.313109338
19.77,0.129003227,0.059393883,0.308061242
19.78,0.019506454,0.061767578,0.100317538
19.79,-0.053612441,0.040288925,-0.032178402
19.8,-0.050066262,-0.000303268,0.031854391
19.81,-0.04908216,-0.043363571,0.123916447
19.82,-0.115581393,0.002094269,0.227417946
19.83,-0.090800643,0.014015198,0.294793189
19.84,-0.041762143,-0.019570351,0.251582205
19.85,-0.042887658,-0.019622803,0.251546562
19.86,-0.1268439,-0.026741982,0.180294633
19.87,-0.076412708,0.023542404,0.151637018
19.88,-0.047760338,0.040291786,0.168270111
19.89,-0.052740633,0.073687553,0.265356362
19.9,-0.05289349,0.073552132,0.264068663
19.91,0.035676271,0.059074402,0.212591171
19.92,-0.09101221,0.063898087,0.179412127
19.93,-0.08974582,0.064054489,0.180253863
19.94,-0.08564505,0.035569191,0.076727092
19.95,-0.081652373,-0.06223774,0.022031605
19.96,-0.044588476,-0.066681862,0.082578778
19.97,-0.043716967,-0.066451073,0.084435225
19.98,0.097355276,0.017368317,0.2835446
19.99,0.096149683,0.017331123,0.283649862
20,-0.017646134,0.074792862,0.133527696
20.01,-0.138246566,0.026920319,0.02871269
20.02,-0.183926374,0.046138763,-0.126086235
20.03,-0.183751017,0.046269417,-0.124973297
20.04,-0.111757636,0.020002365,-0.00698173
20.05,0.155849069,-0.054347038,0.638500452
20.06,0.020048887,-0.140657425,0.05381459
20.07,-0.105607241,-0.054292679,0.135193527
20.08,-0.239495784,-0.047101974,0.226180077
20.09,-0.125407726,0.00070858,0.19361192
20.1,-0.06874162,-0.016101837,-0.147846937
20.11,0.001491994,-0.035060883,0.08618927
20.12,0.077361763,0.041444778,0.384649456
20.13,0.075470835,0.041082382,0.381895781
20.14,-0.13224557,0.10286808,0.299051404
20.15,-0.136015862,0.073692322,0.137051582
20.16,-0.136629313,0.073443413,0.13466084
20.17,-0.138076365,0.073471069,0.0843665
20.18,-0.069436848,0.071315765,0.172133923
20.19,-0.067327619,0.071673393,0.174910963
20.2,-0.086962044,-0.054832459,0.264080107
20.21,-0.053678095,-0.080709457,0.181573927
20.22,-0.075967819,-0.089862823,-0.028121591
20.23,-0.074635416,-0.089464188,-0.024661183
20.24,-0.001755029,-0.113175392,0.044192791
20.25,0.037887514,0.016178131,0.271574736
20.26,0.038384646,0.016191483,0.271593452
20.27,0.093256563,0.085723877,0.16973263
20.28,-0.078640789,0.131345749,0.216224551
20.29,-0.205108315,0.138689041,0.074054539
20.3,-0.245732039,0.076675415,-0.088852108
20.31,-0.231788158,0.009734154,-0.025341868
20.32,-0.083452106,-0.057296753,0.271696091
20.33,0.021602243,-0.071792603,0.351771653
20.34,-0.109204888,-0.031099319,0.305904567
20.35,-0.130351603,0.016945839,0.215146601
20.36,-0.091417551,-0.025850296,-0.07547611
20.37,-0.088463962,-0.025396347,-0.072388709
20.38,-0.036007702,-0.068101883,-0.033630788
20.39,-0.035154313,-0.067969322,-0.032727718
20.4,0.200398296,0.073061943,0.288939834
20.41,0.095775962,0.127821922,0.396847069
20.42,0.0156914,0.077301979,0.265608072
20.43,-0.044965088,0.074829102,0.255675018
20.44,-0.002186686,0.015028954,0.167825639
20.45,-0.002820611,0.015148163,0.169399738
20.46,-0.041986763,-0.054146767,0.195008397
20.47,-0.061909676,-0.044379234,0.142349482
20.48,-0.091412812,-0.051373482,-0.027804315
20.49,-0.092364728,-0.051163673,-0.025254607
20.5,-0.325246811,-0.060564041,-0.059009433
20.51,-0.379938692,0.047343254,-0.222896934
20.52,-0.377589494,0.047511101,-0.222368538
20.53,-0.242684215,0.176971436,0.359525025
20.54,-0.240014702,0.177128792,0.359658897
20.55,0.015283555,0.079116821,0.355715513
20.56,0.016929865,0.079360962,0.357256353
20.57,0.066704541,-0.01402092,0.567047119
20.58,0.069798112,-0.014186859,0.563904166
20.59,-0.01761055,0.026540756,0.327525616
20.6,-0.019487321,-0.087877274,-0.071177304
20.61,-0.032326221,0.01060009,0.259171724
20.62,0.02900815,0.079786301,0.415218771
20.63,0.015299857,0.096110344,0.476430118
20.64,0.013670802,0.095629692,0.472536624
20.65,-0.220898271,0.090555191,0.158326089
20.66,-0.181022227,0.069106102,0.058046579
20.67,-0.085281134,-0.0143013,0.058459163
20.68,-0.018212795,-0.09273243,0.204015315
20.69,0.013114929,-0.144904137,0.389739811
20.7,0.020105392,-0.199529648,0.409756124
20.71,0.022607714,-0.199048042,0.41318202
20.72,-0.027285814,-0.215082169,0.160182536
20.73,-0.089226067,-0.082688332,0.160796642
20.74,-0.13196975,-0.026994705,0.091309965
20.75,-0.129061461,-0.026322365,0.096294224
20.76,-0.205485702,0.084467888,-0.078305721
20.77,-0.219604135,0.099409103,0.002337337
20.78,-0.217283309,0.099830627,0.005098581
20.79,-0.120010674,0.112042427,0.214990437
20.8,-0.117970407,0.112315178,0.216465771
20.81,-0.118021905,0.086317062,0.287960768
20.82,-0.048092365,0.055708885,0.188277304
20.83,-0.037567258,0.025159836,0.112938225
20.84,-0.06238544,-0.038864136,0.095196724
20.85,-0.020638645,-0.110120773,0.079519868
20.86,0.03720063,-0.114434242,0.120794654
20.87,0.060392499,-0.061386108,0.291007936
20.88,0.094804615,-0.008451462,0.345562995
20.89,0.095014185,-0.00828743,0.347010315
20.9,-0.050752521,-0.039144516,0.050003171
20.91,-0.050700784,-0.038892746,0.052371621
20.92,-0.134428799,-0.057817459,0.040047765
20.93,-0.077234507,-0.093564034,0.115919232
20.94,0.003584862,-0.047924995,0.103182077
20.95,0.019341171,-0.033397675,0.124380887
20.96,-0.089927435,0.035997391,0.266153991
20.97,-0.019193113,0.052627563,0.210411668
20.98,-0.066111147,-0.00014782,0.023498178
20.99,-0.211150885,0.004659653,-0.152794361
21,-0.211564124,0.004798889,-0.151300311
21.01,-0.156195998,0.091114044,0.249502718
21.02,-0.157121539,0.091197014,0.250723779
21.03,0.065725237,-0.069219589,0.33800143
21.04,0.072320133,-0.155651093,0.483384609
21.05,0.069561452,-0.156167984,0.480206609
21.06,0.041294038,-0.084852219,0.227539897
21.07,0.008898914,-0.001486778,-0.022548199
21.08,0.00775528,-0.001465797,-0.021639943
21.09,0.0369367,0.044139862,0.145487487
21.1,0.003714204,0.07531929,0.31708318
21.11,-0.092119575,0.056080818,0.185756445
21.12,-0.061015844,0.000881195,0.066221595
21.13,-0.108551741,-0.049494743,0.130919576
21.14,-0.109534323,-0.049622536,0.130259037
21.15,0.12713179,0.0030756,0.23120153
21.16,0.193337977,-0.001477242,0.293651283
21.17,0.089583963,-0.056149483,0.26655072
21.18,0.051089376,-0.117869377,0.364813447
21.19,0.051457375,-0.117441177,0.368463278
21.2,-0.106262863,-0.14342308,0.002701521
21.21,-0.148789942,-0.07591629,-0.069960594
21.22,-0.146256864,-0.039554596,-0.015631676
21.23,-0.11323905,0.037445068,0.098165751
21.24,-0.13790226,0.080929756,0.065968633
21.25,-0.193076074,0.08134079,0.038496256
21.26,-0.192435443,0.081762314,0.041893005
21.27,-0.193634629,0.046199799,-0.005815506
21.28,-0.239737034,0.015274048,0.045397758
21.29,-0.099102139,-0.125923157,0.150485754
21.3,0.103620619,-0.109120369,0.262558997
21.31,0.055722535,-0.073306084,0.292744637
21.32,-0.004023314,-0.013566017,0.236743391
21.33,-0.00376755,-0.013670921,0.23573333
21.34,-0.135014534,-0.052007675,0.11546725
21.35,-0.098554492,-0.080797195,0.14341414
21.36,-0.098102927,-0.080880165,0.142440796
21.37,-0.067123234,-0.073723793,0.070457697
21.38,-0.012426078,-0.049827576,0.142125845
21.39,-0.042209804,-0.016365051,0.096627593
21.4,-0.052904487,0.043517113,0.044618726
21.41,-0.054035008,0.043523788,0.045330048
21.42,-0.097962558,0.029064178,0.152644634
21.43,-0.012666762,0.002632141,0.063551903
21.44,0.029053092,0.024018288,0.139466703
21.45,0.027551472,0.023826599,0.138523877
21.46,0.004651785,0.0117836,0.131213605
21.47,-0.173179746,-0.026567459,-0.019655466
21.48,-0.173701704,-0.026473999,-0.01855886
21.49,-0.28071779,0.043022156,0.079828501
21.5,-0.280234098,0.042907715,0.078616858
21.51,0.175992757,-0.000425339,0.493540168
21.52,0.127514035,-0.068105698,0.881995499
21.53,0.027592272,-0.068962097,0.580801725
21.54,-0.073742688,-0.081607819,0.132172942
21.55,-0.135101259,-0.055613518,-0.199418902
21.56,-0.208531439,-0.02939415,-0.145790219
21.57,-0.021826804,0.042201996,0.374224603
21.58,-0.010453582,0.106127739,0.651572466
21.59,-0.070715487,0.088604927,0.471017718
21.6,-0.072005808,0.08803463,0.466550708
21.61,-0.186291277,0.042348862,0.064662278
21.62,-0.110491633,-0.10378933,-0.006376863
21.63,-0.109526038,-0.103865624,-0.007564664
21.64,-0.009175181,-0.063311577,0.12035954
21.65,-0.000317037,0.049055099,0.24620229
21.66,-0.062960982,0.087432861,0.242124498
21.67,-0.022585094,0.087581635,0.301071227
21.68,0.04367429,-0.010404587,0.00873816
21.69,-0.051460624,-0.05547142,0.00150609
21.7,-0.072028577,-0.100590706,0.163592398
21.71,-0.073707581,-0.100329399,0.166789115
21.72,-0.053963184,-0.042655945,0.152817965
21.73,-0.087040246,0.086780548,0.164543212
21.74,-0.113017678,0.151469231,0.204299986
21.75,-0.11531806,0.151584625,0.206428826
21.76,-0.255964428,0.082422256,0.085291743
21.77,-0.261646986,-0.017785072,0.093495607
21.78,-0.189950556,-0.048613548,0.112968862
21.79,-0.041704267,-0.07712841,0.179611623
21.8,-0.008677155,-0.043618202,0.249248982
21.81,-0.030619591,0.040065765,0.288983047
21.82,-0.030654371,0.039862633,0.287363946
21.83,0.003013641,0.020547867,0.187618077
21.84,0.002975076,0.020523071,0.187396586
21.85,-0.039729983,0.003847122,0.154385328
21.86,-0.051538259,0.030368805,0.074637055
21.87,0.013148099,0.023474693,0.017335057
21.88,-0.004374087,0.021342278,0.106325448
21.89,-0.019750923,0.011904716,0.198878467
21.9,0.0387519,-0.002508163,0.230231941
21.91,0.037103236,-0.002518654,0.230876148
21.92,-0.071974427,-0.014512062,0.264809191
21.93,-0.044594258,-0.016831398,0.09611094
21.94,-0.084268689,-0.033369064,0.050732017
21.95,-0.085537076,-0.033200264,0.052884817
21.96,-0.242373794,-0.107350349,-0.216569424
21.97,-0.221776575,0.000525475,-0.279639602
21.98,-0.222987413,0.000486374,-0.279479384
21.99,0.08818242,0.062487602,0.760864079
22,0.113740653,0.026011467,0.525130391
22.01,-0.002064765,-0.060538292,0.097249031
22.02,-0.004003048,-0.060506821,0.098324537
22.03,-0.081581056,-0.137363434,0.276204228
22.04,-0.115384996,-0.049136162,-0.23200345
22.05,-0.115509212,-0.049157143,-0.232277513
22.06,0.055575967,0.163647652,0.440927029
22.07,-0.043577671,0.163078308,0.504370749
22.08,-0.0465222,0.162577629,0.501194537
22.09,-0.123470932,0.078374863,0.194675326
22.1,-0.180267662,0.020457268,0.220133424
22.11,-0.181120783,0.019978523,0.216101289
22.12,-0.121613711,-0.044995308,0.220464408
22.13,-0.100061178,-0.03085804,0.256621242
22.14,-0.073658675,-0.026186943,0.214951634
22.15,0.007611632,0.002534866,0.150153756
22.16,0.030907303,0.014594078,0.225410879
22.17,0.034814388,0.067288399,0.130180538
22.18,0.005057275,0.086503029,0.1911304
22.19,0.018063605,0.021924973,0.163492262
22.2,0.066822439,0.007634163,0.195923686
22.21,0.071659893,0.017214775,0.082000315
22.22,0.068802178,0.01721859,0.08335346
22.23,-0.065769643,0.074668884,0.19444114
22.24,-0.123407215,0.04833889,0.102277875
22.25,-0.125342846,-0.030552864,0.049057245
22.26,-0.12482515,-0.078352928,0.124964356
22.27,-0.128720224,-0.073514938,0.207238257
22.28,0.008595228,-0.047219276,0.188429534
22.29,0.001930058,0.041348457,0.311062992
22.3,-0.018089205,0.053238869,0.315465212
22.31,-0.018449575,0.053156853,0.314887762
22.32,-0.049617529,0.050754547,0.127964199
22.33,-0.090278983,0.022053719,0.101957977
22.34,-0.059273541,0.024482727,0.11674279
22.35,-0.081413537,0.019701004,0.09305954
22.36,-0.103751093,0.017343521,0.148791254
22.37,0.012823403,-0.00657177,0.072622776
22.38,0.037923545,0.000653267,0.214808524
22.39,-0.013909012,-0.004184723,0.207845569
22.4,-0.024505794,-0.047224045,0.0985412
22.41,-0.051793247,0.012771606,0.057099581
22.42,-0.05286324,0.012880325,0.058498383
22.43,-0.053913027,0.003394127,0.124419272
22.44,0.138314664,0.022502899,0.282598019
22.45,0.135767609,0.02245903,0.283188939
22.46,0.05706057,0.010473251,0.291069746
22.47,-0.099105626,-0.027656555,0.051057696
22.48,-0.202103019,0.032384872,-0.301635027
22.49,0.091575354,-0.015509605,0.704183102
22.5,0.089130282,-0.015943527,0.701376796
22.51,0.076400578,-0.037764549,0.000755668
22.52,-0.087432444,0.000657082,0.136325121
22.53,-0.087592602,0.000605583,0.13601768
22.54,-0.005937964,0.043540955,0.438464999
22.55,-0.032381654,-0.044827461,-0.287396073
22.56,-0.097608089,-0.03971386,0.005333662
22.57,-0.099706799,-0.039931297,0.004231334
22.58,-0.026831836,0.045530319,0.490042448
22.59,0.030878186,0.06137085,0.514501631
22.6,0.028814286,0.034193993,0.336168647
22.61,-0.156402022,0.048006058,0.222312629
22.62,-0.157090873,0.047822952,0.220761955
22.63,-0.097283959,-0.023915291,-0.168516994
22.64,-0.093004256,-0.047629356,-0.051468849
22.65,-0.021952838,-0.081071854,0.16265446
22.66,0.106186211,-0.038079262,0.320138812
22.67,0.051377773,0.086210251,0.371599436
22.68,-0.067588001,0.083711624,0.352082849
22.69,-0.08934018,0.083836555,0.221597672
22.7,-0.089298666,0.084038734,0.223428488
22.71,-0.043521911,0.012469292,0.043820977
22.72,-0.022046804,-0.037538528,0.027050972
22.73,-0.04643786,-0.001392365,0.13698417
22.74,-0.046486944,-0.001309395,0.137788475
22.75,-0.145343989,-0.022799492,0.16503793
22.76,-0.145579249,-0.022724152,0.165654004
22.77,-0.15108037,-0.001132965,0.156729221
22.78,-0.091657221,-0.044114113,0.074064255
22.79,-0.035624653,-0.077627182,0.189514875
22.8,-0.037060529,-0.077717781,0.189239502
22.81,-0.040444374,-0.01799202,0.190916598
22.82,-0.057741195,0.005814552,0.050911188
22.83,-0.103632242,0.020112038,0.019328594
22.84,-0.041887283,0.041584969,0.05718863
22.85,-0.019239843,0.046263695,0.130823076
22.86,-0.003855288,0.046142578,0.178053856
22.87,-0.086419731,0.062857628,0.115915597
22.88,-0.094427049,0.055750847,0.159989834
22.89,-0.087919921,0.007975578,0.170654714
22.9,-0.08886829,0.008073807,0.171837747
22.91,0.116051197,-0.013397217,0.134632409
22.92,0.039834589,-0.042104721,0.243240476
22.93,0.038217783,-0.042196274,0.242913127
22.94,-0.065866202,-0.059092522,0.242114067
22.95,-0.066576391,-0.059214592,0.241227388
22.96,-0.050166011,-0.025794983,0.175755382
22.97,-0.102605075,0.01965332,-0.073618054
22.98,-0.174039096,0.084310532,0.055663466
22.99,-0.103817463,0.084291458,0.246779323
23,0.119517922,0.017198563,0.523868144
23.01,0.118824095,0.017001152,0.522230327
23.02,0.000557423,-0.016490936,0.032034159
23.03,0.000599802,-0.016478539,0.032170892
23.04,-0.115724534,0.064810753,0.246282041
23.05,-0.061678916,0.048027039,-0.151843429
23.06,-0.06310463,0.053115845,-0.072987795
23.07,-0.062815577,0.053209305,-0.072102189
23.08,0.053102195,0.12703228,0.449012697
23.09,0.036504567,0.160071373,0.414272428
23.1,-0.161611408,0.135718346,0.298749983
23.11,-0.25228551,0.082749367,0.157116592
23.12,-0.272161335,0.006064415,0.124747813
23.13,-0.163816154,-0.084852219,0.129201353
23.14,-0.105194211,-0.134819984,0.09236306
23.15,-0.101575732,-0.134468079,0.09441644
23.16,0.044852853,-0.069573402,0.270464599
23.17,0.112123072,-0.028501511,0.241774142
23.18,0.021080047,0.019995689,0.035661817
23.19,0.084146529,-0.010373116,0.058142424
23.2,0.110318065,-0.062434196,0.072387576
23.21,0.111473948,-0.062044144,0.075406671
23.22,0.078200758,-0.042646408,0.017641187
23.23,-0.004116148,0.010117531,0.116970778
23.24,-0.053086787,0.086730003,0.129301071
23.25,-0.053905129,0.086727142,0.129654646
23.26,-0.202165157,0.086781502,0.10354507
23.27,-0.218143284,0.065303802,0.099224091
23.28,-0.217066616,0.065396309,0.099642634
23.29,-0.055155277,-0.087772369,0.343934715
23.3,0.042402595,-0.087680817,0.365558505
23.31,-0.036198497,-0.070777893,0.29874152
23.32,-0.032429487,-0.070602417,0.299091637
23.33,-0.178824693,-0.044013977,0.067386508
23.34,-0.114285529,-0.04611969,-0.080106258
23.35,-0.110647768,-0.045760155,-0.078325272
23.36,0.035691142,0.093387604,0.160051763
23.37,0.03705278,0.093418121,0.15985471
23.38,0.006777972,0.107886314,0.292092204
23.39,0.008352965,0.108074188,0.293215632
23.4,-0.118605375,-0.009028435,0.121898115
23.41,-0.082811713,-0.12605381,0.030152798
23.42,-0.074461609,-0.168990135,-0.016762376
23.43,-0.07349655,-0.168942452,-0.016781688
23.44,-0.075284064,-0.099643707,0.182974875
23.45,-0.033917695,0.067832947,0.358784616
23.46,-0.161929011,0.072502136,0.268740416
23.47,-0.159406513,0.072522163,0.267996907
23.48,-0.238264501,-0.118826866,-0.128773451
23.49,-0.261783838,-0.089812279,-0.23030448
23.5,-0.148498088,-0.046532631,0.145804644
23.51,0.129083097,-0.029916763,0.414320648
23.52,0.155188054,-0.073311806,0.579363823
23.53,-0.070665777,-0.155021668,0.342417717
23.54,-0.194300354,-0.191015244,0.037223101
23.55,-0.233005136,-0.078532219,-0.030867457
23.56,-0.230148584,-0.078668594,-0.033479691
23.57,-0.115538508,-0.002103806,-0.312411547
23.58,-0.114584863,-0.002116203,-0.312845349
23.59,-0.007685959,0.088552475,0.429302216
23.6,-0.036476791,0.064217567,0.400469899
23.61,-0.149070472,-0.003134727,0.202281714
23.62,-0.218018651,-0.027319908,-0.028956294
23.63,-0.236201614,-0.056230545,-0.049094319
23.64,-0.236959726,-0.056367874,-0.050056458
23.65,-0.214956164,-0.01091671,0.052488327
23.66,-0.199331492,0.022772789,0.039025784
23.67,-0.108634949,0.032660484,0.014752626
23.68,-0.015469283,0.018720627,0.106224835
23.69,-0.013397455,0.019220352,0.109649599
23.7,-0.045321584,0.005539894,-0.191381574
23.71,-0.086503893,0.030251503,-0.247471809
23.72,-0.103933454,0.078906059,-0.176941991
23.73,-0.161994696,0.05074501,-0.076959014
23.74,-0.126764238,0.043940544,0.023951769
23.75,-0.056538284,0.017865181,0.033097982
23.76,-0.056706339,0.018120766,0.035333753
23.77,-0.025994271,-0.106185913,0.046725869
23.78,-0.014700979,-0.177873612,0.084142208
23.79,-0.16389066,-0.208930016,0.085015416
23.8,-0.201612532,-0.199318886,-0.051368117
23.81,-0.147746056,-0.196843147,-0.101507068
23.82,-0.166163147,-0.163297653,0.018233538
23.83,-0.088891953,-0.173153877,0.056331635
23.84,0.047382653,-0.140015602,0.084198952
23.85,-0.133191884,-0.193070412,0.086067319
23.86,-0.13289845,-0.193393707,0.083187461
23.87,-0.170583427,-0.3708601,-0.096808672
23.88,-0.182704777,-0.335328102,-0.116838455
23.89,-0.183136731,-0.335829735,-0.121081471
23.9,0.005065531,-0.204813004,0.155973554
23.91,0.003303498,-0.20565033,0.149213553
23.92,-0.051016599,-0.208878517,0.132906854
23.93,-0.160130501,-0.111533165,-0.027116537
23.94,-0.197698504,-0.079015732,0.10810709
23.95,-0.199674785,-0.080238342,0.097792625
23.96,-0.159290642,-0.031189919,0.053981066
23.97,-0.150793046,0.017798424,-0.09533
23.98,-0.154170424,0.016516685,-0.105974078
23.99,-0.404223889,-0.046975136,-0.348491669
24,-0.438407123,-0.016701698,-0.452115655
24.01,-0.408082724,-0.012506485,-0.295697331
24.02,-0.405168891,-0.013009071,-0.301879883
24.03,-0.316295296,-0.037495613,-0.083439529
24.04,-0.200315028,-0.15790844,-0.011647284
24.05,-0.086363912,-0.285792351,0.24473393
24.06,-0.051515371,-0.241147995,-0.136858046
24.07,-0.061693639,-0.191599846,-0.421580195
24.08,-0.155398607,-0.120432854,-0.435324311
24.09,-0.131779671,-0.101974487,-0.133465946
24.1,-0.133612722,-0.102983475,-0.143055022
24.11,-0.156523645,0.022476196,0.094940722
24.12,-0.110814571,-0.003032684,0.080512404
24.13,-0.182048202,-0.045318604,0.058254182
24.14,-0.33777681,-0.085066795,0.036412716
24.15,-0.331645817,-0.122211456,0.030506313
24.16,-0.225486398,-0.077717781,0.073824584
24.17,-0.212210387,-0.0570364,0.19966054
24.18,-0.155846179,-0.031551361,0.09575367
24.19,-0.094763845,-0.017914772,0.103300929
24.2,-0.093930036,-0.018551826,0.095450222
24.21,-0.065038294,0.02159977,0.069408596
24.22,-0.055556774,0.042709351,-0.098623037
24.23,-0.067392826,0.130894661,-0.053259075
24.24,-0.079705864,0.192742348,-0.048449397
24.25,-0.071082979,0.271282196,-0.013101459
24.26,-0.106228083,0.337761879,0.17486155
24.27,-0.247517705,0.303603172,0.058189929
24.28,-0.249761105,0.303116798,0.053120375
24.29,-0.512180567,0.158946991,-0.045961261
24.3,-0.552563787,0.055440903,0.004249156
24.31,-0.550707579,0.05486393,-0.00411886
24.32,-0.521004915,0.054292679,0.120608211
24.33,-0.449326158,0.051280975,0.088163078
24.34,-0.371418029,0.07234478,0.113910019
24.35,-0.22641322,0.181958199,0.045728445
24.36,-0.221428126,0.181380272,0.034580469
24.37,-0.374101847,0.513622284,-0.091578662
24.38,-0.369039595,0.513087273,-0.102859378
24.39,-0.304799944,0.663402557,-0.129922032
24.4,-0.26522848,0.648537636,-0.096873045
24.41,-0.276600808,0.533182144,-0.354301751
24.42,-0.438167095,0.463568687,-0.580153644
24.43,-0.535434961,0.312791824,-0.654985189
24.44,-0.527056456,0.313124657,-0.656257093
24.45,-0.616347313,0.20357132,-0.715663314
24.46,-0.661340416,0.079914093,-0.769530535
24.47,-0.699624419,-0.170512199,-0.449607313
24.48,-0.680397153,-0.169494629,-0.450112343
24.49,-0.674178004,-0.642634392,-0.250462651
24.5,-0.359265149,-0.955414772,-0.346534491
24.51,-0.167852283,-1.146418571,-0.475791752
24.52,-0.153353512,-1.146055222,-0.484209478
24.53,0.208214223,-1.181517601,-0.393493295
24.54,0.447556734,-1.509254456,0.853850663
24.55,0.443010032,-1.511650085,0.815362215
24.56,0.900897741,-2.275360584,0.133408368
24.57,0.887550056,-2.399985313,0.224688441
24.58,0.834783316,-2.546290398,0.285589665
24.59,0.694297493,-2.493855953,-0.067758292
24.6,0.681200981,-2.496407032,-0.125694364
24.61,0.379018307,-2.517983913,0.40645504
24.62,0.461567283,-2.695039272,0.336270392
24.63,0.243999392,-2.943676949,0.050456878
24.64,0.07230711,-3.206058025,-0.142199561
24.65,-0.098880976,-3.498801231,-0.560293555
24.66,-0.024631232,-3.77147007,-1.037930965
24.67,0.30424428,-3.85174036,-1.048154116
24.68,0.51165694,-3.653388023,-0.893033862
24.69,0.447206914,-3.343857765,-0.699346662
24.7,0.412914753,-3.339770317,-0.794099391
24.71,0.917663336,-2.171174526,-0.983949184
24.72,0.826464236,-1.121560097,-1.630678892
24.73,0.754615545,0.055383682,-2.108345747
24.74,0.728288949,1.244651794,-1.847688317
24.75,0.476573885,2.204906464,-1.305762053
24.76,0.096458465,2.773269653,-1.135563254
24.77,-0.116068885,2.781772614,-1.497245669
24.78,-0.457953155,2.440877914,-1.904047728
24.79,-0.507538438,2.449679375,-1.966668129
24.8,-0.602149725,1.884209633,-2.199447632
24.81,0.163801462,0.768618584,-2.395471096
24.82,0.457149923,0.4656353,-2.061875343
24.83,0.67689842,0.307474136,-1.573506713
24.84,0.928875685,0.322968483,-0.78000772
24.85,1.073922634,0.536338806,-0.051013708
24.86,0.808361054,0.784230232,0.223366261
24.87,0.765540719,0.800797463,0.146975637
24.88,0.633756161,1.079238892,-0.681488276
24.89,0.590118945,1.097289085,-0.756753445
24.9,0.075563312,1.168943405,-0.887828589
24.91,-0.093204916,1.119011879,-0.937244296
24.92,-0.136288226,1.021123886,-1.113463879
24.93,-0.103939116,1.107052803,-1.014958858
24.94,-0.064141929,1.244923592,-0.8935287
24.95,-0.084965765,1.261957169,-0.954398632
24.96,-0.249335647,2.213745117,-0.560490727
24.97,-0.443808079,2.698143959,-0.70379746
24.98,-0.439883053,2.708827019,-0.745056272
24.99,-0.52852881,3.174751282,-1.043358564
25,-0.655891895,3.387903214,-1.126843691
25.01,-1.039370179,3.585760117,-1.047631502
25.02,-0.934559643,3.191802979,-0.241638422
25.03,-0.90854609,3.196130753,-0.264410257
25.04,-0.925450385,1.500105858,1.277471542
25.05,-0.665599823,-0.122184753,2.373631239
25.06,-0.624746263,-2.083024025,3.126544476
25.07,-0.61892122,-2.068981171,3.078047514
25.08,-0.709793627,-3.566871643,4.002173424
25.09,0.198199451,-5.100279808,4.620262146
25.1,1.04482162,-4.253490925,4.537351608
25.11,0.664057136,-1.619805813,3.426525831
25.12,0.331825912,1.265654564,1.643557549
25.13,-1.087463737,3.884394646,1.0844419
25.14,-3.790121078,6.41968441,1.341573238
25.15,-3.729627132,6.429331779,1.302057743
25.16,-7.981626987,10.28687572,2.313313484
25.17,-6.482617855,10.83961678,2.600156546
25.18,-3.538809299,10.78301048,2.590561152
25.19,-0.63027513,10.47909069,2.166882038
25.2,1.201932669,10.44806385,2.692449808
25.21,2.170460701,10.20220184,3.017221212
25.22,2.265135288,9.406166077,1.5287292
25.23,1.872262478,8.614802361,-0.134948254
25.24,1.202606797,7.356399536,-1.628303051
25.25,1.175491333,7.358873367,-1.632654667
25.26,0.154517055,3.838723183,0.570206642
25.27,-0.588383615,1.944870949,3.006392002
25.28,-0.918679416,0.388315201,4.353131294
25.29,-0.944755793,0.367178917,4.410699844
25.3,-0.039956599,-4.853470802,-0.058402538
25.31,-0.064999551,-4.897499084,0.066846132
25.32,-2.399958372,-9.714031219,-5.038395882
25.33,-3.20673871,-10.99507046,-5.136005402
25.34,-2.420092583,-11.99042225,-4.506371498
25.35,-0.954700232,-13.02395058,-3.89073801
25.36,0.749112964,-13.91995716,-3.717446804
25.37,0.710837603,-13.91747093,-3.71980238
25.38,1.698656082,-14.21217918,-2.79414773
25.39,1.347035527,-13.61113548,-2.052855968
25.4,1.310981035,-13.5879612,-2.11992836
25.41,1.030540109,-11.26686096,-3.134166718
25.42,0.996740699,-11.24867249,-3.182720184
25.43,3.042592525,-7.244046211,-3.060818911
25.44,3.017950535,-7.231408119,-3.092889547
25.45,4.056957722,-5.012732506,-2.656759977
25.46,4.643666744,0.556551933,0.747524738
25.47,3.707184792,3.75151825,0.475405216
25.48,3.618834496,3.764245987,0.460833788
25.49,2.652793646,8.686958313,1.521875143
25.5,3.863862038,9.995729446,3.735851049
25.51,5.16023159,11.25953102,4.040822983
25.52,5.142111778,11.26265907,4.037598133
25.53,3.539021015,13.30653954,4.419397831
25.54,3.60230732,13.3050499,4.405355453
25.55,2.22062254,13.96787453,3.260205746
25.56,0.681997836,13.4855032,2.524558067
25.57,-0.567449153,12.40845585,2.392879009
25.58,-1.651124001,11.16428852,3.911531925
25.59,-1.389717579,10.16236877,2.887394667
25.6,-2.185654402,8.008883476,2.840445995
25.61,-2.463405371,4.505703926,3.393161535
25.62,0.023476392,-3.954432487,7.721802711
25.63,0.070004344,-3.980106354,7.786087513
25.64,1.11713028,-9.288285255,5.027009964
25.65,-1.608115077,-10.93126488,-0.478475094
25.66,-1.576703072,-10.95245075,-0.41885066
25.67,-6.272672176,-11.18022728,-7.552481174
25.68,-6.230869293,-11.17770481,-7.562114239
25.69,-6.43448925,-10.02614307,-5.401177406
25.7,-6.447311878,-10.01505852,-5.433279037
25.71,-4.505797386,-10.37004185,1.13087678
25.72,-4.521036148,-10.33993626,1.04736948
25.73,-4.657086849,-10.34642029,1.851847172
25.74,-4.175439835,-9.899360657,0.60723877
25.75,-3.030591488,-8.520145416,-1.665638566
25.76,-0.315160394,-6.466423512,-2.851636648
25.77,2.423661947,-3.801750183,-3.377319336
25.78,4.459109306,-0.507433891,-1.890577078
25.79,4.044149399,2.945199013,0.738628864
25.8,2.034424782,7.419049263,5.012233257
25.81,-0.002144322,10.8786478,9.73071003
25.82,-2.1820364,12.86513424,14.09671021
25.83,-3.356837511,13.64497948,15.6129837
25.84,-3.632507086,12.97548962,10.48589325
25.85,-3.584458113,12.94367981,10.56144714
25.86,-2.655434608,11.50121689,0.045460939
25.87,-2.948994398,11.18541527,-1.43317771
25.88,-2.55707407,10.15952682,-0.949009419
25.89,-1.845201969,9.426675797,0.107899904
25.9,-1.889628291,9.417096138,0.134176731
25.91,-1.260299683,7.848801613,0.7504282
25.92,-1.617250681,7.454244614,1.547267437
25.93,-1.666162491,7.442671776,1.581800222
25.94,-0.793663502,2.622293472,4.166080475
25.95,0.589008689,-1.641318321,4.846878052
25.96,1.479690552,-5.254208565,2.994826317
25.97,1.984434843,-8.29669857,0.907936573
25.98,1.922839642,-11.06802177,-1.6687572
25.99,1.738649368,-13.32939148,-4.20084095
26,1.531834841,-15.14336491,-7.048166275
26.01,1.078368902,-15.93071365,-8.914583206
26.02,1.277985334,-15.87452698,-8.199058533
26.03,2.439005613,-15.47655869,-4.667142868
26.04,2.806236267,-14.33803749,-1.380848765
26.05,2.959883213,-12.41142273,1.247214317
26.06,2.083962679,-11.03382015,2.08683753
26.07,0.827238917,-9.770718575,1.095504761
26.08,-0.614856601,-8.06887722,-2.379278898
26.09,0.034383297,-5.346263409,-5.317284584
26.1,2.665741682,-2.20143652,-3.740666866
26.11,4.444389343,0.998304367,-2.392527342
26.12,6.792200565,3.889832497,-2.110634804
26.13,6.656299591,3.918983459,-2.147734642
26.14,7.206041813,9.445685387,5.229852676
26.15,5.792588711,10.94336128,8.719730377
26.16,5.762963295,10.97282505,8.646066666
26.17,2.293360233,12.20903492,8.609726906
26.18,1.908068299,12.37065697,8.494155884
26.19,1.912589908,12.07746029,7.651571274
26.2,-0.172899485,11.86441517,5.22518158
26.21,-0.471713245,11.74137497,2.814321756
26.22,-0.422173202,10.77864361,1.041471481
26.23,-0.363298953,10.78326035,1.008492231
26.24,0.973938346,5.351443291,7.556704521
26.25,1.786506176,2.271308899,9.105532646
26.26,1.719409704,-1.674033165,9.96087265
26.27,-0.729767919,-5.236162663,9.885306358
26.28,-2.813993454,-7.726857185,6.399634361
26.29,-2.786850452,-7.766560555,6.508908272
26.3,-6.065207958,-11.8648243,-5.511283875
26.31,-6.480111122,-12.75080585,-9.248440742
26.32,-6.054104328,-12.85778618,-8.237037659
26.33,-5.372577667,-13.1127882,-3.760833979
26.34,-4.245685101,-13.98902702,-1.278051496
26.35,-4.223875999,-13.99300289,-1.268593431
26.36,-4.596883774,-14.14413643,0.555523634
26.37,-5.060916901,-13.13241959,-0.147922516
26.38,-4.33723259,-11.73075104,-2.583334923
26.39,-3.629921913,-9.785386086,-4.208785057
26.4,-2.059078693,-7.371344566,-4.865515232
26.41,-2.073373318,-7.364172935,-4.886120796
26.42,3.510623455,0.060945511,-1.798015714
26.43,5.703556538,3.432346344,1.959970951
26.44,5.375194073,7.462976456,5.389691353
26.45,5.357383728,7.500986099,5.279179573
26.46,-3.273733616,13.30204201,10.29976463
26.47,-3.227097988,13.3398037,10.18640041
26.48,-5.670460224,14.34700108,15.44426537
26.49,-4.111536026,12.80950451,16.79037476
26.5,-3.39917779,12.48189449,7.767216682
26.51,-3.36554575,12.4440937,7.862902164
26.52,-3.488429785,11.54712009,-4.889630318
26.53,-2.990958691,10.33482933,-4.302936077
26.54,-2.982142448,10.31982803,-4.259959698
26.55,-2.091857433,9.280284882,-0.475796461
26.56,-1.649445891,5.367617607,1.33726716
26.57,-1.367233038,2.948147774,2.90980649
26.58,0.95963496,1.11233139,5.452292919
26.59,2.386931896,-1.669250965,7.33391571
26.6,2.455152988,-4.324522972,7.569653511
26.61,1.96790123,-6.547129631,6.137447834
26.62,0.786200941,-9.10225296,2.41417408
26.63,0.135795176,-11.3458395,-1.281771898
26.64,0.151536346,-11.39122677,-1.145203352
26.65,0.198954761,-15.08125305,-5.472194672
26.66,0.34918958,-16.34378624,-7.130092621
26.67,0.515309751,-16.7261467,-8.575221062
26.68,0.939425409,-17.13853836,-8.49210453
26.69,0.869184256,-17.13696861,-8.47098732
26.7,2.061209917,-15.06288624,-2.640858889
26.71,1.215996265,-12.47058296,-1.386374831
26.72,1.168506145,-12.44236469,-1.465879798
26.73,-2.458087921,-7.420448303,-5.316790104
26.74,-2.436150312,-7.422208786,-5.320420265
26.75,-2.896903515,-4.71906805,-7.074141502
26.76,5.224858761,3.090196609,0.357964277
26.77,10.16941452,5.029785156,2.090961218
26.78,9.76557827,7.314639091,2.093056679
26.79,6.988612175,10.5340519,3.455459356
26.8,6.88804245,10.56459808,3.410415173
26.81,4.273169518,12.4716835,8.780006409
26.82,5.242958069,12.07837868,13.05201435
26.83,3.350874901,11.95826721,9.845485687
26.84,3.40252924,11.95950699,9.814630508
26.85,-0.825204134,11.85935974,5.486949921
26.86,-4.600110054,12.55424976,-0.160797358
26.87,-3.853269339,11.56207561,2.314754725
26.88,-3.791679382,11.5596981,2.296377182
26.89,-2.676665783,7.035257339,6.311764717
26.9,-2.659313679,7.031143188,6.317248344
26.91,1.124779344,-0.816355705,10.55740261
26.92,0.660574794,-5.062047005,11.7887249
26.93,-3.007369995,-8.394935608,7.242025375
26.94,-4.675059319,-11.06109524,1.206198454
26.95,-5.781600952,-13.75945187,-7.571674347
26.96,-6.853419781,-14.38667297,-12.88091469
26.97,-5.591358662,-14.22880363,-10.45281792
26.98,-5.525661945,-14.26656246,-10.3193779
26.99,-4.05201292,-14.38449287,-4.252333641
27,-5.371611595,-14.23949146,3.097367525
27.01,-5.326237679,-13.80808258,3.207409859
27.02,-4.306788445,-13.29129601,1.012112379
27.03,-4.029313564,-12.07350349,-1.541832447
27.04,-3.716023922,-10.50200939,-2.869974852
27.05,-3.723928928,-10.50103569,-2.871626139
27.06,-2.664437056,-8.523687363,-3.179211617
27.07,-0.931691766,-3.781262398,-2.180027246
27.08,-0.944545984,-3.775625229,-2.198585987
27.09,6.364686966,3.269965172,2.693463087
27.1,6.318937302,3.286873817,2.642495871
27.11,2.04187417,12.92573738,5.965242386
27.12,-1.886366367,16.09086037,10.46671963
27.13,-5.481351852,17.21277809,17.16000366
27.14,-6.652386189,16.63630676,19.25661278
27.15,-7.189549923,15.64777374,12.64514351
27.16,-6.879290104,14.5517807,1.482665062
27.17,-6.206668854,13.33326435,-4.939622402
27.18,-3.630227566,11.03842449,-6.060795784
27.19,-3.631140947,11.01997757,-5.99593544
27.2,-0.521245062,7.156903267,0.346413374
27.21,0.803609312,4.952925682,2.363471985
27.22,2.226870537,2.692248344,4.62697506
27.23,2.178210497,2.708377838,4.585617065
27.24,2.386127234,0.961346626,6.240184784
27.25,-0.207013249,-2.800013542,7.435462952
27.26,-0.244191766,-2.809589386,7.480195522
27.27,-1.008024693,-5.904222488,4.562272072
27.28,-0.835640609,-8.467321396,1.081842422
27.29,-0.719559729,-10.87588787,-2.266420841
27.3,1.824460983,-16.22900391,-6.825170517
27.31,2.908232212,-17.5636158,-7.429812908
27.32,4.174500465,-17.75004768,-7.185936451
27.33,5.206123829,-18.02666283,-5.296505928
27.34,5.047381878,-16.56967926,-1.177031755
27.35,3.114874125,-13.61163235,1.731311798
27.36,-0.890165865,-9.744916916,2.079183102
27.37,-3.63551569,-6.97611618,-0.786218286
27.38,-5.517891884,-5.032588005,-4.941171169
27.39,-5.482851505,-5.050320625,-4.888246536
27.4,-3.130931616,-2.469908237,-8.411929131
27.41,1.625044346,2.752522469,-2.346097708
27.42,7.715572357,6.570541382,1.974389791
27.43,10.73821926,8.56738472,1.568104506
27.44,10.62745762,8.579255104,1.590071678
27.45,9.605987549,10.78310776,2.617124319
27.46,5.410463333,12.99995422,12.96896553
27.47,4.572762966,13.24016953,12.56329727
27.48,4.585309982,13.26282215,12.4647913
27.49,-3.141462803,13.20031929,2.9551301
27.5,-3.050322533,13.19601631,2.914439678
27.51,-5.19023037,13.70409298,1.816678762
27.52,-3.521958828,12.05236053,2.698408842
27.53,-3.94555521,10.20106888,3.683204651
27.54,-4.805779934,6.357380867,6.042094707
27.55,-1.222857237,1.611598969,9.076354027
27.56,1.368259668,-3.499222755,12.12463188
27.57,1.383919477,-3.513087273,12.16965103
27.58,1.540700674,-8.375148773,11.95072269
27.59,-4.131973743,-13.17074585,-3.945396185
27.6,-4.039706707,-13.20671463,-3.83144927
27.61,-5.499447346,-14.49307156,-11.98334599
27.62,-4.863768578,-14.46399593,-8.33647728
27.63,-5.754097462,-14.50393105,-2.8573246
27.64,-6.44272995,-14.66149521,1.884136081
27.65,-6.465731621,-13.94286728,3.603290796
27.66,-5.341162205,-13.56587982,2.355140448
27.67,-3.819640875,-12.90060425,-0.643195033
27.68,-3.852608919,-12.88752556,-0.689103723
27.69,-3.696730852,-11.44495773,-1.92233789
27.7,-2.686191559,-7.140900612,-1.953762174
27.71,-2.764155626,-4.321244717,-1.950588703
27.72,-2.785431623,-0.32374382,-1.711554885
27.73,-2.777740002,-0.325104713,-1.708390832
27.74,1.692164183,4.629063606,-0.671182513
27.75,4.824841022,13.25867271,4.057888508
27.76,4.803336143,13.28452873,3.964930058
27.77,1.841269732,17.19446564,17.1171875
27.78,1.865260601,17.23214722,16.98064041
27.79,-5.703386307,14.46110153,22.33070564
27.8,-6.350322247,13.3254261,7.375545502
27.81,-6.304183483,13.29008102,7.484283447
27.82,-7.286524296,13.63568783,-9.663139343
27.83,-7.043455124,12.90728855,-14.30057049
27.84,-1.45699811,8.679504395,-0.041486025
27.85,0.547191918,5.617752075,5.228110313
27.86,1.862806678,4.155064583,6.437922478
27.87,1.783583522,4.184700966,6.355794907
27.88,2.184223175,2.441774368,6.365068436
27.89,1.619054794,-1.723332405,8.282968521
27.9,1.572180033,-1.734582901,8.333483696
27.91,0.57745564,-4.391024113,6.305319786
27.92,-2.376234293,-9.62439537,-2.197503328
27.93,-2.347085714,-9.66697216,-2.047621965
27.94,-2.223147392,-11.77220726,-4.42489624
27.95,1.04248786,-15.88266659,-4.91152668
27.96,2.239521503,-17.00085068,-4.178408623
27.97,2.201371431,-17.01444054,-4.097895145
27.98,3.449229002,-17.13808441,-1.228080511
27.99,3.399690866,-17.132761,-1.230353117
28,2.748265743,-16.23502159,0.152234078
28.01,-0.257674277,-10.83061218,-0.838814616
28.02,-0.266984046,-10.82688808,-0.851552606
28.03,-2.654758692,-5.858921051,-5.498695374
28.04,-2.631864548,-5.86619854,-5.475967407
28.05,-3.101352453,-0.806829453,-8.790498734
28.06,3.109466076,3.961135864,-3.647282124
28.07,10.09317303,6.809098244,2.144582272
28.08,13.9821558,8.684168816,2.97715044
28.09,11.62099838,11.15649605,3.982481956
