Time (s),Linear Acceleration x (m/s^2),Linear Acceleration y (m/s^2),Linear Acceleration z (m/s^2)
0,0.03014946,0.049980164,0.364061922
0.01,0.034350157,0.050298691,0.365445525
0.02,0.059940606,0.007573128,0.163931787
0.03,-0.022875667,-0.037546158,0.109438002
0.04,0.016453266,-0.0610466,0.038974524
0.05,-0.083846807,-0.055840492,-0.014539063
0.06,-0.227002502,0.037935257,-0.078013718
0.07,-0.26169765,0.098219872,-0.055502594
0.08,-0.050447702,0.079449654,0.033803225
0.09,0.17112264,0.019903183,0.346268863
0.1,0.037296653,-0.068482399,0.485476345
0.11,-0.03107059,-0.097027779,0.350860864
0.12,-0.055499732,-0.125506401,0.271475047
0.13,-0.052470148,-0.125159264,0.273881525
0.14,-0.050370872,-0.062332153,-0.28182596
0.15,-0.047131479,-0.061603546,-0.274064064
0.16,0.066768348,0.017868042,0.033081591
0.17,0.146788746,0.058491707,0.459463596
0.18,0.229608774,0.058034897,0.623160005
0.19,0.12690264,0.057343483,0.617073953
0.2,0.047312677,0.008938789,0.408524334
0.21,-0.179188848,0.018202782,0.287845016
0.22,-0.178255379,0.018158913,0.286596477
0.23,-0.19322139,-0.161154747,-0.077495277
0.24,-0.142992854,-0.17983532,-0.05834645
0.25,-0.161874116,-0.102729797,-0.094184816
0.26,-0.198619604,0.055907249,-0.028738141
0.27,-0.184104741,0.059011459,0.015302122
0.28,-0.081236124,0.06454277,0.093574703
0.29,-0.077427983,0.065238953,0.100057602
0.3,0.04810977,0.058674812,0.448031098
0.31,0.065483868,0.030409813,0.449433863
0.32,-0.017703176,-0.005078316,0.249325305
0.33,-0.060045302,-0.038114548,0.071291924
0.34,-0.114505529,-0.107048988,0.046718895
0.35,-0.15214175,-0.108999252,0.038162947
0.36,-0.196805418,-0.122982979,-0.012085974
0.37,-0.26540333,-0.069973946,0.049609244
0.38,-0.250113547,0.004487991,0.112209916
0.39,-0.246912718,0.004693985,0.112137437
0.4,-0.20535177,0.05997467,0.119329035
0.41,-0.228188098,0.081767082,0.191512048
0.42,-0.116747141,0.065282822,0.258856326
0.43,0.072725475,0.065478325,0.254222632
0.44,0.074107885,0.065590858,0.254663944
0.45,0.199235886,0.010672569,0.232270777
0.46,0.221464753,-0.015467644,0.217316508
0.47,0.033630431,0.023031235,0.379100651
0.48,-0.006120324,-0.089394569,0.157109976
0.49,-0.01538825,-0.122660637,-0.076934576
0.5,-0.13015002,-0.062523842,-0.027911723
0.51,-0.124938905,-0.098202705,0.101847351
0.52,-0.025293231,-0.136428833,0.187382937
0.53,0.070340753,-0.129380226,0.504010022
0.54,0.011881351,-0.177666664,0.472845346
0.55,-0.024616063,-0.149337769,0.185285747
0.56,-0.026720345,-0.149590492,0.183880568
0.57,-0.164708197,-0.015669823,-0.195287526
0.58,-0.180849612,0.065689087,-0.170511246
0.59,-0.192579806,0.091982841,0.170707941
0.6,-0.164031088,0.168358803,0.3565045
0.61,-0.097058237,0.158561707,0.362757921
0.62,-0.134846628,0.100981712,0.262367308
0.63,-0.05441016,0.053138733,0.03870368
0.64,-0.150994837,-0.011335373,0.113396049
0.65,-0.143611193,-0.059058189,0.215984464
0.66,-0.142800152,-0.058922768,0.217111468
0.67,-0.027689099,-0.099479675,0.25708577
0.68,0.048917174,-0.149669647,0.327677608
0.69,0.041984499,-0.175829887,0.195636451
0.7,-0.007897198,-0.1397295,0.121153772
0.71,-0.008012056,-0.13949585,0.124172866
0.72,0.033911169,-0.093974113,-0.037312746
0.73,-0.030682445,-0.01260376,-0.133924365
0.74,-0.114752591,0.066344261,-0.041554809
0.75,-0.184240043,0.121244431,0.178522587
0.76,-0.167062402,0.173697472,0.191708744
0.77,-0.196996927,0.123368263,0.132120132
0.78,-0.199517727,0.097140312,0.042528272
0.79,-0.179975092,0.061421394,-0.002995133
0.8,-0.136510789,0.05211544,0.055236578
0.81,0.019094586,-0.033911705,0.095650971
0.82,0.017632663,-0.033873558,0.097151458
0.83,0.006876886,-0.007670403,0.309516519
0.84,0.161493808,-0.02946949,0.470003784
0.85,0.145262629,-0.099175453,0.317118585
0.86,0.028863311,-0.04428196,0.215648413
0.87,0.027707398,-0.044408798,0.214897871
0.88,0.030792415,-0.042159081,0.195208252
0.89,-0.041442037,0.017539978,0.255173206
0.9,0.024302483,0.014884949,0.194979727
0.91,0.019632399,0.01467514,0.196055234
0.92,0.067247093,-0.059669495,-0.01726681
0.93,0.062429786,-0.059768677,-0.014939785
0.94,0.108858407,-0.048008919,-0.007509112
0.95,-0.067234337,-0.048316002,0.130428791
0.96,-0.070679486,-0.048742294,0.127572238
0.97,-0.022176325,-0.044647217,0.61264801
0.98,0.083617628,-0.110009193,0.436577827
0.99,0.079886615,-0.110456467,0.433619589
1,-0.070041716,-0.053097725,0.03361845
1.01,-0.138078868,-0.086501122,0.105126321
1.02,-0.139161348,-0.086446762,0.106618583
1.03,-0.093305051,-0.088964462,0.290901214
1.04,0.12876755,-0.048570633,0.396810502
1.05,0.00891006,-0.013005257,0.219320357
1.06,0.008221805,-0.013219833,0.217123151
1.07,-0.165997922,0.017792702,0.215359032
1.08,-0.055574298,-0.046887398,0.135562956
1.09,-0.055630982,-0.046849251,0.135941148
1.1,-0.007374644,-0.068285942,0.278420925
1.11,0.141341925,-0.058587074,0.138578475
1.12,0.051919937,-0.017701149,0.036354721
1.13,0.008402705,0.008882523,0.063766003
1.14,0.017488182,-0.002880096,0.076529324
1.15,0.016766608,-0.002678871,0.07945013
1.16,-0.026708484,-0.021647453,0.0869205
1.17,-0.153295875,0.031233788,0.091690838
1.18,-0.382236123,0.06018734,0.127405584
1.19,-0.380804896,0.060412407,0.129116476
1.2,-0.131264329,-0.085458755,0.025803685
1.21,-0.116604388,-0.090035439,0.188522577
1.22,-0.082197547,-0.058806419,0.265976369
1.23,-0.109632313,-0.025206566,0.270765543
1.24,-0.107895732,-0.025130272,0.270480871
1.25,-0.063233793,-0.017830849,0.167851448
1.26,-0.011424005,0.015847206,0.101686776
1.27,-0.026639581,0.011187553,0.068653226
1.28,-0.06316638,-0.019760132,0.040878832
1.29,-0.108849049,0.009167671,0.142557681
1.3,-0.140003979,0.023712158,0.22923851
1.31,-0.108819127,0.047852516,0.18437916
1.32,-0.106687963,0.048110008,0.18596673
1.33,-0.080797851,0.00056839,0.083451211
1.34,-0.098387599,-0.068536758,0.112785697
1.35,-0.216250181,-0.037104607,0.060101628
1.36,-0.228275657,0.020640373,-0.045806527
1.37,-0.216216683,0.020951271,-0.127566159
1.38,-0.142432034,-0.012290955,-0.008189142
1.39,-0.034217954,-0.062474251,0.526591003
1.4,0.046094596,-0.139383316,0.739281774
1.41,0.045586348,-0.139759064,0.735101819
1.42,-0.075501978,-0.10876751,0.129154563
1.43,-0.190444768,-0.079889297,-0.277852893
1.44,-0.147754729,-0.034134865,-0.285532594
1.45,-0.06933403,0.0089674,0.20103538
1.46,-0.080027163,0.015518188,0.636324167
1.47,0.024526894,0.019479752,0.688278258
1.48,-0.037867367,0.016423225,0.375174403
1.49,-0.203891516,0.00170517,0.143933535
1.5,-0.166622758,-0.051003456,-0.029754221
1.51,-0.093536675,-0.046088219,-0.134690821
1.52,-0.081081033,0.018687248,0.034463286
1.53,-0.080978155,0.018815994,0.03581351
1.54,0.069662452,0.057206154,0.297877222
1.55,0.06947571,0.057355881,0.30004403
1.56,-0.027996063,0.064866066,0.193603337
1.57,-0.072362363,0.096434593,0.095301151
1.58,-0.07174921,0.065811157,0.043673873
1.59,-0.075673282,0.027916908,0.165381372
1.6,-0.127643228,0.056929588,0.280915499
1.61,-0.167519093,0.052296638,0.258229435
1.62,-0.137530506,-0.014580727,0.070176005
1.63,-0.121984363,-0.028668404,-0.104419649
1.64,-0.235587955,-0.064224243,-0.012477517
1.65,-0.209643781,-0.083070755,0.07847625
1.66,-0.097556055,-0.145092964,0.053422809
1.67,-0.177608192,-0.128176689,0.104640126
1.68,-0.130204141,-0.116117477,0.212012529
1.69,-0.009370804,-0.087457657,0.140909731
1.7,0.009860575,0.005820274,0.16838783
1.71,0.064377964,0.053538322,0.21453321
1.72,0.063691735,0.053336143,0.212655127
1.73,-0.010957479,0.07229805,0.332781047
1.74,-0.092432976,0.067379951,0.173226297
1.75,-0.063490629,0.02673912,0.042069554
1.76,-0.149291694,0.062807083,-0.006434441
1.77,-0.143962801,-0.015990257,-0.013893187
1.78,-0.182008743,-0.015751839,-0.176547945
1.79,-0.251177609,0.053987503,-0.158694983
1.8,-0.193047166,0.032663345,-0.115528584
1.81,0.014695644,0.016095161,-0.100830972
1.82,0.165667385,-0.043736458,0.348868221
1.83,0.1333597,-0.10620594,0.650393128
1.84,0.130074352,-0.106584549,0.648349643
1.85,0.091148824,-0.075906754,0.563529551
1.86,-0.09410876,-0.001901627,0.003819346
1.87,-0.144914866,0.02689743,-0.354308903
1.88,-0.096900463,0.067635536,-0.138975084
1.89,-0.058191478,0.064974785,0.315822572
1.9,0.072411537,0.042825699,0.619091809
1.91,0.06611681,0.042078018,0.614512682
1.92,0.059045792,0.010448456,0.525465727
1.93,-0.025789857,-0.032875061,0.208877325
1.94,-0.080936134,-0.126276016,-0.139181078
1.95,-0.133760929,-0.061590195,0.083272994
1.96,-0.114432991,0.022148132,0.266080737
1.97,-0.044436097,0.065166473,0.378804028
1.98,-0.015500426,0.007709503,0.256024897
1.99,-0.017655551,0.007910728,0.25973016
2,0.042488396,-0.049257278,-0.022576392
2.01,0.030266881,-0.027434349,0.013607681
2.02,0.027433157,-0.010489464,0.063119233
2.03,0.012188435,0.034978867,0.019540548
2.04,-0.0298118,0.051659584,0.099776804
2.05,-0.129580319,0.065804482,0.200238168
2.06,-0.176312983,0.053570747,0.242776215
2.07,-0.167643011,0.000668526,0.143875718
2.08,-0.170715272,0.000528336,0.14413172
2.09,-0.09936446,-0.066663742,0.053239822
2.1,-0.066043556,-0.081244469,0.155149698
2.11,-0.092150271,-0.038383484,0.20637238
2.12,-0.093815863,-0.03864193,0.204304934
2.13,0.021772265,0.049694061,0.247735143
2.14,-0.027485967,0.063809395,0.245674133
2.15,-0.014372677,0.063641548,0.225228727
2.16,0.010490179,0.058736801,0.229658902
2.17,0.059039772,0.032336235,0.107670188
2.18,0.078400075,0.00839138,0.111307144
2.19,0.06414789,0.034646034,0.08790797
2.2,0.062074006,0.034536362,0.087893367
2.21,0.012160242,0.063103676,0.137251973
2.22,-0.051788688,0.024601936,0.124153614
2.23,-0.115353763,0.058035851,-0.058115244
2.24,-0.274082631,0.065172195,-0.000867724
2.25,-0.276581466,0.064894676,-0.002726495
2.26,0.007104874,-0.062458992,0.535019755
2.27,0.012840778,-0.163458824,0.335623384
2.28,0.00995177,-0.163737297,0.333904922
2.29,-0.049355835,-0.154325485,0.146294534
2.3,-0.04997924,-0.154459953,0.145049512
2.31,0.106503815,-0.02764225,-0.080213368
2.32,0.077359051,0.060697556,0.246459663
2.33,0.099972963,0.060182571,0.599158168
2.34,0.085749209,0.059448242,0.645497739
2.35,0.026203454,0.058639526,0.561458707
2.36,0.01360029,0.057932854,0.192617834
2.37,0.012483269,0.05755806,0.188586354
2.38,-0.326558888,0.033428192,0.085088432
2.39,-0.224227369,0.014169693,0.054060578
2.4,-0.223173797,0.014153481,0.053107798
2.41,-0.112080246,-0.038480759,0.105791211
2.42,-0.048858821,-0.057478905,-0.088981569
2.43,-0.02406472,-0.038042068,0.005094171
2.44,-0.025756955,-0.080929756,0.191545904
2.45,0.070849895,0.036456108,0.223185301
2.46,0.119382769,0.038876534,0.182201505
2.47,0.052562833,0.058031082,0.297233611
2.48,-0.057390273,0.069928169,0.422866434
2.49,-0.136181861,0.057810783,0.373053193
2.5,-0.184002757,0.057723045,0.113306522
2.51,-0.267773718,-0.00446701,0.061307669
2.52,-0.267746836,-0.004370689,0.062582493
2.53,-0.160268664,-0.102540016,0.144201219
2.54,-0.160179228,-0.102622986,0.142881334
2.55,-0.15450576,-0.009325027,0.014681876
2.56,-0.146244764,0.055289268,0.097431123
2.57,-0.144924343,0.055240631,0.095910192
2.58,-0.07399103,0.10060215,0.402215481
2.59,-0.013047248,0.057436943,0.343280494
2.6,0.093239546,0.016744614,0.256478667
2.61,0.031848818,0.004823685,0.16095382
2.62,-0.03100881,0.00261879,0.145464659
2.63,-0.144016802,0.005202293,0.139643133
2.64,-0.106037259,-0.032896996,0.074043155
2.65,-0.06191507,-0.075760841,-0.098537624
2.66,-0.154975236,-0.003708839,-0.052660704
2.67,-0.214327693,0.029932022,0.082672536
2.68,-0.049375534,0.039554596,0.23407352
2.69,0.041771531,-0.013152123,0.433849305
2.7,0.017101139,-0.085094452,0.233333468
2.71,-0.045791149,-0.097094536,0.253756046
2.72,-0.047754258,-0.082799912,0.237287223
2.73,-0.012775987,-0.123563767,0.069571078
2.74,-0.013774067,-0.123476028,0.071135283
2.75,-0.077560723,0.051376343,0.010648787
2.76,0.000683516,0.075144768,0.257050395
2.77,0.000773102,0.069901466,0.562902808
2.78,0.017398119,0.04769516,0.672170341
2.79,0.014364451,0.047152519,0.667184353
2.8,0.074420154,0.003746033,0.381820977
2.81,-0.031518877,-0.01543045,0.125815928
2.82,-0.196449399,-0.000891685,0.039082468
2.83,-0.153049409,0.011250496,0.055548847
2.84,-0.031471252,0.011423111,0.132379532
2.85,-0.073377192,-0.009940147,0.154565036
2.86,0.043161392,-0.033687592,0.109589279
2.87,0.0684793,-0.05495739,0.11126852
2.88,0.101015687,-0.042736053,0.148511827
2.89,-0.010346979,0.00053215,0.225422561
2.9,-0.128180534,0.007772446,0.267219484
2.91,-0.059366167,-0.009005547,0.138122618
2.92,-0.060858458,-0.061625481,-0.001743138
2.93,-0.136686385,-0.073517799,0.007321835
2.94,-0.193255156,-0.06155014,0.039303184
2.95,-0.204180181,0.007826805,0.137445092
2.96,-0.167034388,0.050823212,0.196608663
2.97,-0.162972093,0.062689781,0.104691565
2.98,-0.163434148,0.062641144,0.104522049
2.99,-0.046627611,0.110557556,-0.005017757
3,-0.119315684,0.160863876,0.113013029
3.01,-0.102902383,0.139346123,0.216436863
3.02,-0.000645339,0.089158058,0.155848682
3.03,0.129971296,0.055886269,0.061156034
3.04,0.123482376,0.013072968,0.142244995
3.05,0.160554797,-0.063300133,0.18886894
3.06,0.159103125,-0.063120842,0.191939473
3.07,0.114259064,-0.058138847,0.120935917
3.08,0.112340659,-0.058048248,0.123011529
3.09,0.066349447,-0.122650147,0.117804945
3.1,0.055804729,-0.079519272,-0.006996691
3.11,0.052320689,-0.079460144,-0.004742146
3.12,0.18915692,-0.15614605,0.501974821
3.13,0.243477762,-0.175551415,0.575810969
3.14,0.001074553,-0.185422897,0.366573274
3.15,-0.153162599,-0.104195595,0.222498536
3.16,-0.40840447,0.044185638,0.09291631
3.17,-0.500310779,0.108905792,-0.2205773
3.18,-0.516738772,0.087672234,-0.679978013
3.19,-0.514354825,0.088206291,-0.674815178
3.2,-0.284783036,0.229766846,-0.128695309
3.21,-0.283207744,0.229812622,-0.129046619
3.22,0.022173345,0.169797897,0.610709846
3.23,0.079042256,0.136301994,0.555140019
3.24,0.082407355,0.1366148,0.557085276
3.25,0.009135097,-0.104437828,0.130238116
3.26,0.09198904,-0.23034668,0.011643231
3.27,0.118945241,-0.301170349,0.130760729
3.28,0.080531776,-0.288344383,0.28666842
3.29,0.107997447,-0.204011917,0.200155795
3.3,0.1537247,-0.148384094,-0.075080156
3.31,0.126444221,-0.035236359,-0.195617139
3.32,0.059582502,0.07066536,-0.086715817
3.33,0.044782549,0.138011932,0.008097589
3.34,-0.021083057,0.219548225,0.19189316
3.35,-0.090039968,0.181274414,0.219461203
3.36,-0.091540456,0.181409836,0.221744955
3.37,-0.171054512,0.066843033,0.031848311
3.38,-0.206727803,0.005088806,-0.027310252
3.39,-0.288837552,-0.090028763,0.062764287
3.4,-0.28568989,-0.089396477,0.068008602
3.41,-0.20312202,-0.189463615,0.107649624
3.42,-0.172724307,-0.184292793,0.203141749
3.43,-0.168725014,-0.18400383,0.204252303
3.44,-0.007322609,-0.032979965,0.264521301
3.45,-0.00407967,-0.032863617,0.264087021
3.46,0.061786443,0.070069313,0.348388195
3.47,0.072613478,0.070047379,0.320052087
3.48,-0.036135286,0.079668045,0.265908599
3.49,-0.032107919,0.070225716,0.212760508
3.5,0.055179805,0.046530724,0.0841465
3.51,0.00446099,0.001338959,0.016922057
3.52,-0.06794107,-0.053387642,0.012574136
3.53,-0.223620981,0.030836105,-0.008013487
3.54,-0.24675104,0.072019577,0.074441016
3.55,-0.152750731,0.058115959,0.089568257
3.56,-0.05011642,0.017819405,0.296353757
3.57,0.084510684,-0.113708496,0.695064783
3.58,0.072672576,-0.231127739,0.538335681
3.59,-0.046050668,-0.202423096,0.281439841
3.6,-0.160947859,-0.11135006,-0.032483161
3.61,-0.179063767,-0.053566933,-0.344543874
3.62,-0.177149773,-0.05311203,-0.34086895
3.63,-0.066949695,0.07390976,0.292552352
3.64,-0.034489304,0.087976456,0.653920114
3.65,0.045422316,0.0899086,0.520600796
3.66,-0.027692169,0.113613129,0.279241443
3.67,-0.106931508,0.113652229,0.121800363
3.68,-0.227317512,0.073328018,0.088939726
3.69,-0.227003366,0.073857307,0.073794186
3.7,-0.13753444,-0.030826569,0.16046083
3.71,-0.026671022,-0.140265465,0.216529667
3.72,0.014259845,-0.208974838,0.188933432
3.73,0.016436905,-0.208264351,0.195195377
3.74,0.011491925,-0.231618881,0.108937621
3.75,-0.077723861,-0.130577087,0.134412944
3.76,-0.14302516,-0.012980461,0.215323687
3.77,-0.126768827,0.027801514,0.119265676
3.78,-0.247574568,0.07332325,0.123831511
3.79,-0.319923103,0.082884789,0.168032169
3.8,-0.324835062,0.078089714,0.066299438
3.81,-0.321941376,0.078248024,0.06628716
3.82,-0.20189631,0.02327919,0.180733025
3.83,-0.198824644,0.023374558,0.18010062
3.84,0.104852766,-0.108337402,0.226658046
3.85,0.082177877,-0.101243019,0.220205367
3.86,-0.045963228,-0.101401329,0.232418835
3.87,-0.044301391,-0.101589203,0.229684472
3.88,-0.198223114,-0.118537903,0.334465027
3.89,-0.098083913,-0.130723953,0.206602335
3.9,-0.03969568,-0.142806053,0.008696496
3.91,0.019975007,-0.171530724,0.044778943
3.92,0.019207537,-0.171599388,0.044469178
3.93,0.005738914,-0.131052017,0.144205689
3.94,-0.002622306,-0.100144386,0.152144373
3.95,-0.073113441,-0.155426025,0.038118899
3.96,-0.305780053,-0.119558334,-0.081834555
3.97,-0.34976846,-0.045231819,-0.115132332
3.98,-0.326837063,-0.040382385,-0.110513747
3.99,-0.254360855,-0.083496094,-0.075089514
4,-0.255362988,-0.083668709,-0.076372564
4.01,-0.032275677,-0.086555481,0.491832942
4.02,0.036688685,-0.058325768,0.141097486
4.03,-0.063665032,-0.03223896,-0.145175278
4.04,-0.167150438,-0.005986214,-0.382924736
4.05,-0.279428601,0.032302856,-0.344835222
4.06,-0.219421506,0.036984444,0.120817304
4.07,-0.146352232,0.036402702,0.43859607
4.08,-0.164742112,0.069207191,0.343356013
4.09,-0.165216148,0.068795204,0.339066505
4.1,-0.312879086,-0.053437233,-0.304273129
4.11,-0.299076438,-0.165896416,-0.251818121
4.12,-0.215720534,-0.192238808,-0.092607498
4.13,-0.070109665,-0.199432373,-0.094000995
4.14,0.029112101,-0.165898323,-0.012756944
4.15,0.134303838,-0.204210281,0.023056626
4.16,0.032454878,-0.115706444,-0.003454924
4.17,0.031342238,-0.115825653,-0.003946781
4.18,-0.216137886,-0.065724373,-0.055621505
4.19,-0.255217552,-0.080247879,-0.159970045
4.2,-0.222715378,-0.09232235,-0.342401683
4.21,-0.245327056,-0.0564394,-0.430733442
4.22,-0.245930612,-0.056420326,-0.43017292
4.23,-0.374780119,-0.008543968,-0.255809963
4.24,-0.325816751,-0.039691925,-0.062641442
4.25,-0.321719766,-0.061217308,-0.080174446
4.26,-0.314319849,-0.089895248,-0.100213587
4.27,-0.284875512,-0.0946064,-0.137126148
4.28,-0.243199706,-0.087373734,-0.124312639
4.29,-0.211323679,-0.106601715,-0.110119283
4.3,-0.208485246,-0.106773377,-0.113769651
4.31,-0.210832536,-0.169354439,0.00084585
4.32,-0.18754977,-0.236797333,-0.112275541
4.33,-0.191373587,-0.194077492,-0.129088759
4.34,-0.240881205,-0.216068268,-0.019542694
4.35,-0.240027487,-0.235769272,-0.047671974
4.36,-0.165198863,-0.20279026,-0.092648923
4.37,-0.227931321,-0.213025093,-0.066361368
4.38,-0.247499406,-0.242445946,-0.1003232
4.39,-0.286531389,-0.281451225,-0.273058295
4.4,-0.411221921,-0.226997376,-0.335145474
4.41,-0.410284042,-0.227499008,-0.341770768
4.42,-0.272744238,-0.173009872,-0.105045378
4.43,-0.190344274,-0.291182518,0.216000736
4.44,-0.193664908,-0.292404175,0.203522384
4.45,0.01929915,-0.490312576,0.598776996
4.46,-0.029237926,-0.467967033,0.15391618
4.47,-0.158493578,-0.354488373,-0.211013019
4.48,-0.162259638,-0.355958939,-0.227706909
4.49,-0.298463106,-0.252231598,-0.268006027
4.5,0.086904883,-0.077059746,0.63845098
4.51,0.077097476,-0.0792799,0.61364913
4.52,0.139471978,0.047822952,0.824868143
4.53,-0.02713567,0.048241615,0.456259221
4.54,-0.156053603,0.065814018,0.174934894
4.55,-0.042954564,0.071598053,0.118126631
4.56,-0.069923997,0.043715477,0.351183772
4.57,0.039012611,-0.029782295,0.488443941
4.58,0.166616201,-0.179869652,0.392955363
4.59,0.141130328,-0.380112648,0.12436229
4.6,0.007822812,-0.575245857,-0.026439071
4.61,0.000245064,-0.777440071,-0.010909766
4.62,-0.006644994,-0.778429985,-0.025829971
4.63,0.300205529,-1.140859604,0.032281607
4.64,0.293076992,-1.141646385,0.020795435
4.65,0.619780898,-0.900592804,-0.29312548
4.66,0.953609228,-0.611714363,-0.494995087
4.67,1.362118006,-0.258389473,-0.711969435
4.68,1.344246864,0.11392498,-0.695293963
4.69,1.321035624,0.112604141,-0.710014582
4.7,1.158823609,0.46796608,-0.60748744
4.71,0.890409827,0.840104103,-0.611095071
4.72,-0.02086693,1.210053444,-1.275997996
4.73,-0.497097731,1.132502556,-1.590368986
4.74,-0.6527282,0.854063034,-1.776576996
4.75,-0.672014475,0.853586197,-1.780772448
4.76,-1.072349787,0.249999046,-1.768714428
4.77,-0.977053523,0.022553444,-1.752337933
4.78,-0.8244102,-0.108962059,-1.558820367
4.79,-0.824076772,-0.108809471,-1.553785086
4.8,-0.55938232,-0.259623528,-1.177918315
4.81,-0.011006251,-0.310123444,-0.380648255
4.82,-0.013095632,-0.31062603,-0.396257013
4.83,0.371869832,-0.627465248,0.029454723
4.84,0.765106916,-0.697816849,-0.020105943
4.85,0.684853852,-0.621994019,-0.239199445
4.86,0.649996758,-0.555668831,-0.093439251
4.87,0.626155317,-0.503599167,0.064098895
4.88,0.548309505,-0.506463051,-0.20964396
4.89,0.539660037,-0.506752968,-0.24607107
4.9,0.311515033,-0.38240242,-0.641274452
4.91,0.122199491,-0.147795677,-1.120020628
4.92,-0.088260613,-0.047189713,-1.53123045
4.93,-0.259160876,0.012753487,-1.461892962
4.94,-0.26366812,0.012836456,-1.475871801
4.95,-0.417651862,0.017689705,-1.334606647
4.96,-0.5437572,-0.135483742,-1.093424678
4.97,-0.407146782,-0.245617867,-1.264172673
4.98,-0.369924784,-0.384531975,-1.498667598
4.99,-0.658706248,-0.377429962,-1.544004679
5,-0.738298774,-0.40619278,-1.58329463
5.01,-0.731110334,-0.406228066,-1.572037935
5.02,-0.669423461,-0.437352181,-1.231678247
5.03,-0.419557482,-0.478052139,-1.093883157
5.04,-0.107174866,-0.461271286,-1.036099672
5.05,-0.10579627,-0.461250305,-1.035856247
5.06,0.203399241,-0.341519356,-1.001007676
5.07,0.520350099,0.453420639,-0.871717811
5.08,0.529293776,1.193340302,-0.717025697
5.09,0.352147788,2.088929176,-0.73170805
5.1,0.030516349,2.838539124,-0.876162767
5.11,-0.210234404,3.147672653,-0.590125799
5.12,-0.385479331,2.954136848,-0.311769307
5.13,-0.350111753,2.636131287,-0.151157886
5.14,-0.534814656,2.289348602,-0.432647854
5.15,-0.657453775,2.359030724,-1.272091627
5.16,-0.308372438,2.684767723,-2.148789883
5.17,-0.087961555,2.855019569,-1.873600245
5.18,-0.210978076,3.054257393,-0.48464793
5.19,-0.177460432,3.055077553,-0.477506518
5.2,-0.582416534,3.34820652,0.939590633
5.21,-0.493337005,3.210308075,3.010575771
5.22,0.395035267,2.458835602,4.701593876
5.23,1.818850994,1.204123497,5.7350564
5.24,2.1628263,0.454403877,6.16250515
5.25,0.787866712,0.494967461,5.391018867
5.26,0.785101295,0.495025635,5.383716106
5.27,-1.82032752,1.117609978,1.825398326
5.28,-2.521945953,1.196796417,0.473218411
5.29,-2.941808462,1.268955231,0.106579974
5.3,-2.921376467,1.269512177,0.123622
5.31,-2.45320487,1.253393173,1.16203475
5.32,-1.646448135,1.208561897,1.503622651
5.33,-0.92063272,1.079901695,1.870893478
5.34,-0.411875993,0.771766663,2.157733917
5.35,-0.065806627,0.245877266,1.944137216
5.36,0.23147431,-0.514621735,1.508242846
5.37,0.353824467,-1.308693886,1.188916206
5.38,0.312475175,-1.968748569,0.85472256
5.39,0.081568718,-2.597640038,0.519460261
5.4,-0.227449775,-3.236179829,0.419137925
5.41,-0.350051522,-3.723884106,0.243106619
5.42,-0.340007961,-3.723287106,0.240346506
5.43,-0.209284306,-4.415026665,-0.902762651
5.44,-0.069174588,-4.735893726,-0.748510242
5.45,0.175865918,-4.74805975,-0.324332357
5.46,0.175126761,-4.748366833,-0.309660852
5.47,0.416567773,-4.885332584,-0.095155858
5.48,0.413655132,-4.88582468,-0.070726343
5.49,0.564275384,-4.639799118,-0.089525372
5.5,0.601126492,-4.515992641,-0.245521784
5.51,0.775179386,-4.227117062,-0.495550722
5.52,0.75311625,-3.811445236,-0.74120754
5.53,0.606884003,-3.300127029,-0.822999954
5.54,0.581014276,-3.301299095,-0.806505919
5.55,0.127773851,-2.059884548,-0.624421537
5.56,0.097503483,-2.061075687,-0.618129134
5.57,-0.656242073,-0.685391426,0.06644626
5.58,-1.284900665,0.065662384,0.190556124
5.59,-1.791578054,0.570412636,-0.093902126
5.6,-2.128627539,0.898443222,-0.338010252
5.61,-2.216293812,1.08091259,-0.66995424
5.62,-2.106101751,1.38132,-1.189536214
5.63,-1.810223579,1.708550453,-1.581537127
5.64,-1.179164648,2.17261219,-1.433979034
5.65,-0.696735025,2.804249763,-0.742884994
5.66,-0.603779554,3.29908371,-0.235929817
5.67,-0.605547726,3.299984932,-0.21112302
5.68,-0.890776992,3.831869125,0.3144117
5.69,-1.951351047,4.279582024,0.00381431
5.7,-2.383464813,4.789337158,-0.171319991
5.71,-1.772199631,5.304059029,-0.22484383
5.72,-0.281088233,5.75922966,-0.042816758
5.73,0.699703097,5.726490021,0.585086048
5.74,1.061910868,5.241407394,2.034536123
5.75,1.514617682,4.459570885,3.093429089
5.76,1.860584736,3.445615768,3.422365665
5.77,1.818390608,2.302241325,3.657049656
5.78,1.808368921,2.302811623,3.671566486
5.79,2.415910006,-0.448263168,3.081536293
5.8,2.408108711,-0.448248863,3.085114717
5.81,2.385456324,-1.041669846,1.968598723
5.82,1.343523741,-0.224589348,-0.181033611
5.83,1.033676982,0.266839027,-0.161539376
5.84,1.04668355,0.267092705,-0.163404882
5.85,1.245258927,0.774191856,0.713432968
5.86,1.716868043,0.665495873,1.004884481
5.87,2.069495201,0.69526577,0.822797597
5.88,1.776105881,0.744009972,0.231600106
5.89,1.284151912,0.519799233,0.126043022
5.9,1.221845746,0.070088387,0.122354746
5.91,1.207174301,0.067968369,0.083969206
5.92,0.972937226,-1.696321487,0.329362243
5.93,0.404234976,-2.555329323,0.633132339
5.94,0.078087002,-3.325351715,0.889526367
5.95,0.071155444,-3.326384544,0.860239148
5.96,-0.629396558,-4.466342926,0.370623201
5.97,-0.61841166,-4.466113091,0.369623363
5.98,-0.73343432,-4.80308485,0.097981066
5.99,-0.39247033,-5.386358738,-0.179325908
6,-0.13599363,-5.215177059,-0.019084573
6.01,-0.107705563,-4.94808054,0.242267817
6.02,0.169068575,-4.621016979,0.380031288
6.03,0.349513471,-4.30348587,0.469298184
6.04,0.390867442,-3.985897541,0.061765015
6.05,0.314507425,-3.43597126,-0.17012471
6.06,0.338004321,-3.434384346,-0.155800432
6.07,0.248671994,-2.310032368,-1.010655999
6.08,0.192691565,-1.617040634,-1.226168156
6.09,0.015908241,-1.053636551,-1.208401442
6.1,-0.024742395,-0.42825985,-0.861102402
6.11,-0.017608583,-0.428040505,-0.864455223
6.12,-0.50949955,0.697365761,-0.407057405
6.13,-0.502464533,0.697849274,-0.404503048
6.14,-0.751234114,1.447982788,-1.160605192
6.15,-0.64532131,1.786495209,-1.295012474
6.16,-0.494209528,2.029287338,-0.990733922
6.17,-0.259893119,2.487480164,-0.843104124
6.18,-0.010154247,2.957550049,-0.63679719
6.19,0.116797984,3.159452438,-0.992884517
6.2,-0.34733665,3.473862648,-1.270685315
6.21,-1.043798208,4.168889999,-0.817900121
6.22,-0.875538111,4.655358315,-1.055235386
6.23,-0.427614093,5.052802086,-1.051164627
6.24,0.043387949,5.552503586,0.181214929
6.25,0.442769647,5.739998817,2.030176878
6.26,0.439092994,5.738207817,1.995434999
6.27,0.8303231,5.248493195,3.414211273
6.28,0.425613523,3.128882408,5.584042549
6.29,0.258304209,2.010373116,5.282051563
6.3,-0.052106798,1.066652298,4.576412201
6.31,-0.297977746,0.613718033,3.817329168
6.32,-0.661346018,0.675320625,2.994192362
6.33,-1.319552779,0.935571671,2.249088764
6.34,-1.881783724,1.186289787,1.51708138
6.35,-2.134339094,1.50418663,1.215630889
6.36,-2.138617516,1.503627777,1.201848149
6.37,-1.897221565,1.7617836,1.320753574
6.38,-1.53800416,1.826041222,1.564425468
6.39,-1.321938992,1.54077816,1.487293482
6.4,-0.890903056,1.088087082,1.059680462
6.41,-0.890699685,1.087974548,1.052220821
6.42,-0.118625462,-0.588150978,0.297063381
6.43,0.206893981,-1.572504997,0.278300881
6.44,0.421111405,-2.540333271,0.428082585
6.45,0.410227358,-2.541009426,0.422296703
6.46,0.551057339,-4.186640263,0.667090774
6.47,0.462715358,-4.68059206,0.931709528
6.48,0.389583319,-4.994914532,0.938431084
6.49,0.536486387,-5.261270523,0.717802525
6.5,0.524967849,-5.261792183,0.722181737
6.51,0.511704624,-5.432190895,0.32943356
6.52,0.622839749,-5.236218929,0.257193446
6.53,0.496208012,-5.021091938,0.337719888
6.54,0.425612897,-4.750867844,0.223568022
6.55,0.35013485,-4.430295944,-0.070447668
6.56,-0.173311114,-4.095295906,-0.278247625
6.57,-0.640707612,-3.738674164,-0.670835197
6.58,-0.283472538,-3.710114479,-1.48630631
6.59,-0.096073776,-3.578958511,-1.486831665
6.6,0.249369904,-3.160485744,-0.793162644
6.61,0.224289596,-2.550457001,-0.151110262
6.62,0.209723324,-2.550766945,-0.143737674
6.63,-0.274217129,-0.81733036,-0.005020291
6.64,-0.313094944,-0.010269165,-0.0899629
6.65,-0.319407493,-0.009867668,-0.069308817
6.66,-0.64226526,1.326621056,-0.736708581
6.67,-0.842149139,2.02135849,-0.504518032
6.68,-0.939148843,2.636851311,-0.437982321
6.69,-1.234556675,3.170763016,-0.712297916
6.7,-1.609411836,3.644791603,-1.341658831
6.71,-2.10298872,3.788413048,-2.087370396
6.72,-2.114117622,3.788452148,-2.080331087
6.73,-3.482356071,3.800593376,-2.31592536
6.74,-3.47516489,3.801021576,-2.309179306
6.75,-3.590871811,3.857170105,-1.551041603
6.76,-1.528576136,4.800095558,0.095692486
6.77,0.356020093,5.080915451,0.2845774
6.78,1.899521351,5.108906746,0.556527197
6.79,2.824915886,4.835961342,1.566683888
6.8,2.831221342,4.841320992,1.641560316
6.81,3.128296375,3.604103088,3.397655487
6.82,2.767927885,2.636861801,3.096417427
6.83,2.061295986,1.596458435,2.872406721
6.84,2.131250381,0.372282028,2.080210447
6.85,2.155175686,-0.197424889,1.210146666
6.86,2.137403011,-0.198577881,1.203205466
6.87,1.997497559,-0.39774704,0.35634619
6.88,1.208048224,0.056260109,0.155774653
6.89,0.826929629,1.041906357,0.349858671
6.9,0.897151589,1.396017075,0.401824564
6.91,1.000043154,1.678654671,0.502207518
6.92,0.872493446,1.66206646,0.605144262
6.93,0.862036049,1.659930229,0.578432798
6.94,0.235541284,0.898822784,0.654172123
6.95,0.213222116,-0.027462959,0.984848321
6.96,0.027804986,-1.197955132,0.847233951
6.97,-0.369196117,-2.291400909,0.536956608
6.98,-0.742372751,-3.111068726,0.316538841
6.99,-0.916119039,-3.96850872,0.200822443
7,-1.143320322,-4.696125507,0.130398274
7.01,-1.104284525,-5.255699158,0.096525222
7.02,-1.025570869,-5.580290318,0.487314344
7.03,-0.443434477,-5.7970047,0.966150403
7.04,0.121770158,-5.893990517,0.843326151
7.05,-0.002972394,-5.705879211,0.520855784
7.06,0.003309041,-5.453125954,0.567251086
7.07,0.031921685,-5.452130318,0.565993786
7.08,0.450583547,-4.841078281,-0.336216748
7.09,0.529798865,-4.347710609,-0.543596804
7.1,0.550165594,-3.546430588,-0.351469278
7.11,0.635082901,-2.824577332,-0.571369112
7.12,0.484919787,-1.997479439,-0.872022748
7.13,0.429093629,-1.201550484,-1.142593622
7.14,0.17307505,-0.281103134,-1.010926843
7.15,0.167425633,-0.282291412,-1.031899691
7.16,-0.260392457,0.866062164,-0.706054628
7.17,-0.28375414,1.215006828,-0.316621572
7.18,-0.213917434,1.274458885,-0.381920487
7.19,-0.182384223,1.331860542,-0.776940882
7.2,-0.177764744,1.332139015,-0.774824023
7.21,-0.343277961,1.859516144,-1.286224484
7.22,-0.252359182,2.346319199,-1.627699018
7.23,-0.246801555,2.347122192,-1.614616871
7.24,-0.147445381,2.970320702,-1.968945742
7.25,-0.247617126,3.844714165,-1.882326722
7.26,-0.496217877,3.895196915,-1.696157098
7.27,-0.919822574,4.113296509,-0.669405639
7.28,-0.912031174,4.113677025,-0.669335485
7.29,-0.019709378,4.935608864,0.361023724
7.3,0.377168894,4.819394112,0.205199063
7.31,0.392341018,4.821174622,0.225811333
7.32,0.246331602,4.35416317,0.789307356
7.33,-0.565621734,2.499131203,2.528395653
7.34,-0.771390259,1.335974693,3.597756147
7.35,-0.413013816,0.42339325,4.398566246
7.36,0.349820793,-0.210464478,4.588523388
7.37,0.642454624,-0.297725678,4.645843029
7.38,0.150164694,0.262663841,4.291426659
7.39,-0.326664627,1.078974724,2.729768038
7.4,-0.784763396,2.07738781,1.361905575
7.41,-0.804671049,2.075318336,1.341584921
7.42,-1.954940557,3.998599052,0.161629438
7.43,-2.872230053,4.229463577,0.623850882
7.44,-2.917385101,3.648486137,1.218319416
7.45,-2.160359144,2.80410099,1.074012041
7.46,-2.17353797,2.802581787,1.049497485
7.47,-0.283455432,-0.009712219,0.302354246
7.48,-0.1650047,-1.07142067,-0.334950388
7.49,-0.02180019,-2.175999641,-0.173859626
7.5,-0.039887637,-2.177203178,-0.187627137
7.51,0.546487451,-3.222685337,0.194439441
7.52,0.871473789,-4.028917313,0.154164508
7.53,1.345045447,-5.292523384,0.379481703
7.54,1.022516012,-5.457108974,0.618246555
7.55,0.662330747,-5.559135437,0.614418209
7.56,0.711321592,-5.725539207,0.34538728
7.57,0.342376977,-5.64744997,0.403167903
7.58,0.154183656,-5.540386677,0.445292711
7.59,0.077715039,-5.387609005,0.037448928
7.6,0.052401733,-5.387830257,0.043428004
7.61,-0.106832415,-4.834720612,-1.0010041
7.62,-0.287430108,-4.432379246,-1.064041972
7.63,-0.304177821,-4.4322505,-1.051038027
7.64,-0.462578207,-4.032277107,-1.097916842
7.65,-0.542696774,-2.911637306,-0.71360755
7.66,-0.403949589,-2.226729393,-0.691883683
7.67,-0.490911692,-1.445953369,-0.759519696
7.68,-0.500779271,-1.445544243,-0.742725194
7.69,-0.814748049,-0.523238182,-0.506393492
7.7,-1.203185678,1.038511276,-0.472970605
7.71,-1.098088026,1.520734787,-0.872962236
7.72,-1.102687597,1.996090889,-1.326624632
7.73,-0.968974531,2.43821907,-1.421372533
7.74,-0.95687139,2.439787865,-1.383805871
7.75,-1.03861928,3.082836151,-0.736088276
7.76,-1.177928448,3.392856598,-0.856240571
7.77,-1.741176486,3.688342094,-1.284346938
7.78,-2.492669582,3.801569939,-1.749876618
7.79,-3.195893288,3.648735046,-1.979881763
7.8,-3.66780138,3.261122704,-1.695971489
7.81,-3.367040873,3.443499565,-1.166666508
7.82,-2.079466105,4.100355148,-0.279762864
7.83,0.657266438,4.80112648,0.200962484
7.84,2.554259777,4.981236458,0.187202156
7.85,3.054148436,5.001409531,1.069440961
7.86,3.058803082,5.004612923,1.11442256
7.87,2.674547911,4.667326927,3.199007511
7.88,2.078516245,2.41888237,3.518819094
7.89,2.077780962,2.420325279,3.537316799
7.9,1.78439343,1.309768677,3.2889781
7.91,1.602862954,-0.545994759,0.65648061
7.92,1.074518681,-0.398136139,-0.082284451
7.93,0.590796948,-0.013900757,0.170684636
7.94,0.630587757,0.486790657,0.160528183
7.95,0.448658556,1.06191349,0.139872193
7.96,0.451094866,1.060290337,0.116633356
7.97,1.176655173,1.805668831,0.713362396
7.98,1.174140811,1.803966522,0.688860953
7.99,0.991968274,1.519693375,1.275859475
8,0.801581025,0.926249504,1.682356954
8.01,0.585537136,0.057271957,1.562287807
8.02,-0.075684264,-0.766065598,1.075559378
8.03,-0.725927591,-1.770909309,0.584511221
8.04,-1.271076679,-2.6723032,0.241213545
8.05,-1.612021089,-3.657048225,-0.075873852
8.06,-1.594519377,-3.657315254,-0.087023914
8.07,-1.448632956,-4.504937172,-0.15037021
8.08,-1.142432451,-5.086587906,-0.011190265
8.09,-0.707722247,-5.45729208,0.086797774
8.1,-0.459565163,-5.44944191,0.288965344
8.11,-0.235719144,-5.127777576,0.351504803
8.12,0.140044704,-4.734343052,0.343023092
8.13,0.597313762,-4.319521904,0.317139745
8.14,0.943683446,-4.01022768,0.317894787
8.15,1.0257442,-3.648363113,0.221301526
8.16,1.045464277,-3.648118973,0.204652309
8.17,0.843433082,-3.305586815,0.071150929
8.18,0.871365547,-3.140330791,-0.512850344
8.19,0.678988695,-2.510725021,-1.466424465
8.2,0.458781391,-2.091953754,-1.262197018
8.21,0.478364915,-1.500815392,-1.05112505
8.22,0.38322264,-0.770781517,-0.69505167
8.23,0.325650156,-0.157816887,-0.497476667
8.24,0.002519429,0.49132061,-0.632047296
8.25,-0.206897646,1.222234726,-1.14116776
8.26,-0.404737145,1.893601418,-1.504944324
8.27,-0.45106715,2.581907272,-1.726722956
8.28,-0.446108758,3.320509911,-1.747257829
8.29,-0.241944581,3.759474754,-2.028601646
8.3,-0.221497655,3.822148323,-2.171856165
8.31,-0.66564858,3.656866074,-2.12853384
8.32,-1.075630426,3.237444878,-1.864730597
8.33,-1.435279846,3.114809036,-1.102666497
8.34,-1.428044438,3.114661217,-1.116668463
8.35,-0.857082963,4.123048782,1.012354136
8.36,-0.117635191,4.650846481,0.751839519
8.37,-0.091569066,4.652983665,0.771275163
8.38,-0.030097365,5.034691811,2.023142338
8.39,-0.5217008,4.78332901,3.533942938
8.4,-0.147303999,3.654187202,5.08785677
8.41,0.595873833,2.081298828,5.837615013
8.42,0.732372999,0.810860634,4.982806683
8.43,0.960066617,0.214319229,3.75003767
8.44,0.676038861,0.109302521,2.766979933
8.45,0.026860118,0.424137116,1.792044163
8.46,0.008505821,0.421124458,1.762999892
8.47,-0.826287329,1.717859268,0.025911629
8.48,-0.84342283,1.714898109,-0.009824872
8.49,-1.530283928,3.022416115,0.79659158
8.5,-1.770391703,2.977973938,1.410530567
8.51,-1.750710964,2.338097572,1.16174829
8.52,-1.300088882,0.839380264,0.213300228
8.53,-1.30094552,0.839476585,0.217340142
8.54,-0.621806264,-0.432312965,-0.234021992
8.55,0.036091387,-1.740674973,-0.254265159
8.56,0.472139657,-2.757606506,-0.128312081
8.57,0.694092393,-3.421039581,-0.045935243
8.58,1.717018366,-4.575640202,0.389530569
8.59,1.249714494,-4.96146965,0.349099696
8.6,0.863551319,-5.076313496,0.380916655
8.61,0.830098271,-5.07833147,0.3710531
8.62,0.310885072,-4.855100632,0.460886896
8.63,0.173096955,-4.674734116,0.169517845
8.64,0.162374616,-4.491751194,-0.099957913
8.65,0.072526366,-4.241573811,-0.061426312
8.66,0.165068835,-4.04153347,0.027605146
8.67,0.00976786,-3.917914867,-0.222297102
8.68,-0.020100027,-3.918537617,-0.216002703
8.69,-0.337996602,-3.70099926,-0.493046433
8.7,-0.638653457,-3.37789917,-0.776909471
8.71,-1.270369053,-2.43211937,-0.823116958
8.72,-1.141501427,-1.900327206,-0.989198804
8.73,-1.141695261,-1.899778843,-0.973706007
8.74,-1.076190472,-1.369743347,-1.205902219
8.75,-1.291087627,-0.669238091,-1.221996903
8.76,-1.140148163,0.584621429,-0.383793205
8.77,-0.835305333,1.012704849,-0.182735294
8.78,-0.946111202,1.421924591,-1.088757515
8.79,-0.992208958,1.800484657,-1.287593126
8.8,-0.977430522,1.802792549,-1.254591942
8.81,-0.786442876,2.118255615,-0.670980573
8.82,-0.645999789,2.842925072,-0.752766013
8.83,-0.958616555,3.155524254,-0.820697725
8.84,-0.95834589,3.156606674,-0.804479599
8.85,-3.241887808,3.329932213,-1.622915626
8.86,-4.12191534,3.163426399,-2.055153847
8.87,-4.195330143,3.699091911,-1.457063675
8.88,-4.164262772,3.701753616,-1.436493635
8.89,-0.488553196,4.740060806,-0.478577316
8.9,1.761516094,4.982380867,0.487386406
8.91,2.946824074,4.818161011,2.055847645
8.92,3.169896364,4.106293678,3.39693284
8.93,3.097287655,3.373088837,3.743657589
8.94,3.103704214,3.378793716,3.795343876
8.95,2.451821804,1.486140251,2.552767754
8.96,2.446268082,1.488143921,2.573035955
8.97,1.301149964,0.626777649,0.258989513
8.98,1.094688773,0.728093147,-0.31867969
8.99,0.811201096,0.986550331,-0.087850928
9,0.895455241,1.330871582,0.105193794
9.01,0.886478663,1.328188896,0.083857596
9.02,1.351202965,1.651502609,0.185462833
9.03,1.503579378,1.438639641,0.300407231
9.04,1.485916138,1.019591331,0.681268752
9.05,1.46959281,1.016469955,0.656309664
9.06,0.99809891,-0.275325775,0.788170517
9.07,0.581128299,-1.12933445,0.689816952
9.08,0.208620086,-2.024349213,0.559131503
9.09,-0.264496595,-2.746862888,0.487548381
9.1,-0.529350221,-3.521253586,0.367872149
9.11,-0.683680415,-4.10551405,0.351916641
9.12,-0.784318268,-4.731846809,0.423951089
9.13,-0.681838691,-5.141869545,0.513482928
9.14,-0.397968471,-5.450665951,0.520760715
9.15,-0.139114171,-5.577114582,0.379513532
9.16,-0.118014962,-5.576663494,0.373949498
9.17,0.544908643,-5.363402843,0.202351362
9.18,0.510522604,-4.949301243,0.042141676
9.19,0.576822937,-4.580886364,0.196773112
9.2,0.589208961,-4.581722736,0.174440563
9.21,1.167622089,-3.574719906,-0.257753432
9.22,0.8695786,-3.113484383,-0.650538325
9.23,0.6771667,-2.527723312,-0.450808823
9.24,0.689025521,-2.054639816,-0.825140178
9.25,0.394146264,-1.53594017,-1.286227226
9.26,0.208803356,-1.033646584,-1.246934295
9.27,-0.074615419,-0.423455238,-0.939472318
9.28,-0.340348631,0.040769577,-0.530342221
9.29,-0.339826345,0.040531158,-0.535824716
9.3,-0.249778867,0.392228127,-0.350955427
9.31,0.039233178,1.282696724,-1.094370961
9.32,0.097227544,1.802108765,-1.05230093
9.33,0.093493044,1.801907539,-1.052799463
9.34,-0.422927916,3.5113554,-1.217799425
9.35,-0.502865791,3.851484299,-1.798306704
9.36,-0.291887701,3.851615906,-1.934523106
9.37,-0.181940228,3.626418114,-1.772094131
9.38,-0.710731864,3.491926193,-1.598713875
9.39,-1.086789966,3.783875465,-0.517077327
9.4,-0.666200399,4.49494648,0.272321641
9.41,-0.162529349,4.710547447,0.285183191
9.42,0.187262178,4.694297791,0.680807829
9.43,0.051183641,4.264697075,1.859104514
9.44,-0.291931808,3.476709366,2.748297691
9.45,-0.649200261,2.557839394,3.159609318
9.46,-0.292032838,1.450136185,3.410470009
9.47,-0.104002595,0.610058785,3.984677792
9.48,-0.047619462,0.070478439,4.120925426
9.49,-0.071176708,0.218815804,3.946025133
9.5,-0.007170856,0.423439026,3.130097389
9.51,-0.548962474,1.278411865,1.678162217
9.52,-1.210564852,2.00854969,0.831211209
9.53,-1.698352337,2.982733727,0.752781034
9.54,-1.717071295,2.98002243,0.716186404
9.55,-2.265859127,3.628707886,1.308862925
9.56,-1.868097544,2.9418993,2.181079626
9.57,-1.204821348,2.368251801,1.193502784
9.58,-1.023815751,1.366801262,0.243813366
9.59,-1.025322914,1.366755486,0.245388359
9.6,-0.71828264,0.344493866,-0.042940438
9.61,-0.246021032,-0.826505661,-0.243853629
9.62,0.111886531,-1.918789387,-0.206127495
9.63,0.592436552,-3.586022854,0.606422544
9.64,0.758019984,-4.384344578,0.315489352
9.65,0.75960505,-5.007920265,0.018251777
9.66,0.643035471,-5.356218338,0.464139819
9.67,0.914940536,-5.5537467,0.708853066
9.68,0.886490703,-5.554774761,0.711334348
9.69,0.654621244,-5.71096611,-0.124015987
9.7,0.217237711,-5.364136696,0.238267064
9.71,0.196159571,-5.36447525,0.248062462
9.72,-0.141242057,-5.000644684,-0.280372948
9.73,-0.231321693,-4.816281796,-0.682981849
9.74,-0.206881508,-4.473932743,-0.803141117
9.75,-0.190028936,-3.980879307,-0.608856678
9.76,-0.397661328,-3.466288567,-0.725463152
9.77,-0.54441452,-2.93467474,-1.017617941
9.78,-0.634477198,-2.256533146,-1.143589377
9.79,-0.839931965,-1.575706482,-0.940357745
9.8,-0.921243548,-0.980932236,-0.506924868
9.81,-0.720859289,-0.383768082,-0.434496611
9.82,-0.516242027,0.069705963,-0.477998912
9.83,-0.588078439,0.77216816,-0.543626308
9.84,-0.759426057,1.625570297,-0.761689186
9.85,-1.080785036,2.26846981,-1.152089357
9.86,-1.46028471,2.945150375,-1.412524462
9.87,-1.601833105,3.497491837,-1.391359091
9.88,-1.598964334,3.499164581,-1.365766048
9.89,-1.761350632,3.845299721,-1.230428219
9.9,-2.207416773,3.934989929,-1.257585168
9.91,-3.77826333,3.112417221,-1.967525721
9.92,-3.761368513,3.113751411,-1.95366931
9.93,-3.39637804,3.105938911,-0.879207254
9.94,-1.5135144,3.764537811,0.138554931
9.95,-1.485871553,3.769438744,0.190900922
9.96,2.712007046,4.697248459,0.48020193
9.97,2.715619564,4.703586578,0.54837203
9.98,3.179363012,4.958739281,2.913138628
9.99,2.699731112,4.655303001,3.352042198
10,2.698373318,4.659547806,3.39170599
10.01,2.224595785,3.658599854,3.160665035
10.02,1.726384521,2.749219894,2.144081354
10.03,1.26442337,0.641226769,0.298607647
10.04,0.90410161,0.294101715,-0.359339237
10.05,0.213791654,0.585537911,-0.563143849
10.06,0.174603254,0.994067192,-0.320891857
10.07,0.163597882,0.990603447,-0.351333499
10.08,0.800068796,1.44452858,0.956340134
10.09,0.842822671,1.353223801,0.928512752
10.1,0.686248303,1.035277367,1.056058407
10.11,0.278343976,0.384337425,1.633148909
10.12,0.278375566,0.381632805,1.603526711
10.13,-0.521515131,-1.404541969,0.181883693
10.14,-0.710896194,-2.359930515,0.405736744
10.15,-0.830815077,-3.236385345,0.502434373
10.16,-0.834017158,-4.059669971,0.590602875
10.17,-0.958899677,-4.719539642,0.863640606
10.18,-0.985066235,-5.230206966,0.969724
10.19,-0.952073216,-5.23030901,0.955470145
10.2,-0.38039881,-5.837929249,0.600945652
10.21,-0.251312345,-5.578435898,0.423285544
10.22,0.106203139,-5.304258347,0.282795429
10.23,0.292644441,-4.761955261,0.455223441
10.24,0.325442016,-4.761410713,0.439975321
10.25,0.561317504,-4.241735935,0.602393508
10.26,0.844319224,-3.849169254,0.386276037
10.27,0.899867415,-3.06165123,-0.472965002
10.28,0.972567201,-2.628898621,-0.830698013
10.29,0.873720527,-2.059963226,-0.977170527
10.3,0.716603041,-1.457714081,-1.028666019
10.31,0.548179209,-0.896233559,-1.03014636
10.32,0.214662105,-0.420892716,-0.863264442
10.33,0.010560036,-0.055502892,-0.71479106
10.34,-0.1174739,0.341581345,-0.78266722
10.35,-0.12122941,0.341630936,-0.777683616
10.36,-0.331329584,1.177642822,-1.241986752
10.37,-0.270156026,1.604464531,-1.264767528
10.38,-0.123607814,2.083965302,-1.220158815
10.39,-0.169935644,2.697397232,-1.193752885
10.4,-0.098712862,3.102146149,-1.394721389
10.41,-0.187637746,3.269475937,-1.617565751
10.42,-0.461231351,3.199334145,-1.680241585
10.43,-0.958053947,2.877475739,-1.716939092
10.44,-0.960694552,2.876411438,-1.733959436
10.45,-1.544588089,3.447892189,-0.242174685
10.46,-0.740487874,4.397865295,1.018961191
10.47,-0.736646056,4.397508621,1.007811785
10.48,0.314089954,4.91742897,1.022155762
10.49,0.573303342,5.000034332,1.05871129
10.5,0.164127082,4.688124657,2.381395578
10.51,-0.292061746,3.888143539,4.227319241
10.52,-0.573425889,1.163039207,3.520297766
10.53,-0.02627182,0.041644096,3.039546013
10.54,0.29801169,-0.45395565,3.6507864
10.55,0.295069486,-0.455384255,3.627042294
10.56,0.319054633,-0.127085686,3.196893454
10.57,-0.408922195,0.425912857,1.901489496
10.58,-0.707018793,1.304440498,1.014654279
10.59,-2.372866869,3.387702942,0.275824398
10.6,-3.518449068,4.015982628,0.647718132
10.61,-3.519425392,4.014992714,0.620373905
10.62,-2.482668161,2.656420708,0.678884268
10.63,-1.083921432,1.070418358,0.209250212
10.64,-0.276713491,-0.04161644,0.06586048
10.65,0.35098508,-1.187286377,0.208116829
10.66,0.328347445,-1.18879509,0.194830358
10.67,1.825234413,-3.237762928,0.878312707
10.68,2.215945959,-4.010863304,1.087288022
10.69,2.17536974,-4.012975693,1.064138055
10.7,1.590855837,-5.003731728,1.018927813
10.71,1.121957779,-5.170584679,0.725591302
10.72,0.584216595,-5.277292728,-0.096100368
10.73,0.231549949,-5.103487968,-0.702355921
10.74,0.20025143,-5.104096413,-0.697060704
10.75,-0.157640085,-4.903426647,-0.584189236
10.76,-0.701119304,-4.558919907,-0.234041184
10.77,-0.7219522,-4.558982849,-0.218022943
10.78,-0.746121824,-4.331406593,-0.603345811
10.79,-0.896776676,-3.778028011,-1.225459695
10.8,-0.98555553,-3.404109001,-1.229115129
10.81,-1.066514254,-3.073199272,-1.018055439
10.82,-1.262733221,-2.584234238,-0.900019109
10.83,-1.252488613,-2.583657265,-0.882009149
10.84,-1.271806955,-1.977263927,-0.855322123
10.85,-0.913544297,-0.93023777,-0.735183954
10.86,-0.700278401,-0.297428131,-0.468945563
10.87,-0.595806122,0.217985153,-0.061807305
10.88,-0.581105709,0.218565941,-0.052940667
10.89,-0.456839085,0.875145912,0.143965408
10.9,-0.775457263,2.298025131,-0.834241211
10.91,-0.96052599,2.907144547,-1.157655239
10.92,-1.16650629,3.432538033,-1.022294402
10.93,-1.389583826,3.649033546,-1.110249758
10.94,-1.347983479,3.652017593,-1.069019318
10.95,-1.496763825,3.492152214,-0.573929071
10.96,-2.423330069,2.963222504,-1.142614365
10.97,-3.180882692,2.92617321,-1.535194874
10.98,-2.596990585,3.628667831,-0.778801382
10.99,-0.975693405,4.241186142,-0.279468954
11,0.855019569,4.781117439,-0.456596613
11.01,2.399755955,5.044050217,0.661680639
11.02,2.996654272,5.206951141,2.283230305
11.03,2.891209364,4.899555206,3.941136837
11.04,2.891202688,4.901571274,3.966141462
11.05,2.078207254,2.991789818,4.677742004
11.06,2.456407785,1.575980186,3.305047274
11.07,2.405804157,0.355456352,2.096979141
11.08,1.963256001,-0.334366798,0.815449894
11.09,1.567801356,-0.183997154,-0.240139008
11.1,1.167124271,0.213046074,-0.31008327
11.11,0.928933978,0.81138134,0.235335529
11.12,0.926241994,0.809209824,0.207030654
11.13,1.334732294,1.403668404,0.606651664
11.14,1.332864761,1.402098656,0.584516108
11.15,1.385163784,1.366611481,0.905512571
11.16,1.088342905,0.53823185,1.368076801
11.17,1.001437783,-0.022269249,1.240566254
11.18,0.918637872,-1.112005234,0.816411853
11.19,0.62214464,-2.127369881,0.469631851
11.2,0.129628152,-3.055931091,0.311875463
11.21,0.127268165,-3.057126999,0.286959618
11.22,-0.772632182,-4.17566824,-0.204974145
11.23,-0.936657965,-4.706924438,-0.180230528
11.24,-0.916222453,-4.706245422,-0.188221812
11.25,-0.147182286,-5.277664661,0.555568099
11.26,0.423431695,-5.334261417,0.468837798
11.27,0.444201469,-5.333301067,0.463889808
11.28,0.612946868,-5.097603321,0.399685621
11.29,0.662597299,-4.31125164,0.305585861
11.3,0.684317827,-4.310419083,0.290826976
11.31,1.139139175,-3.498382092,0.040067643
11.32,1.102334261,-3.053049564,0.006724179
11.33,1.087942362,-2.576835155,-0.171755791
11.34,1.090773106,-2.577268124,-0.196225047
11.35,0.992087066,-2.170759201,-0.662300766
11.36,0.494414687,-1.261436462,-1.237659693
11.37,0.4114739,-0.816691399,-1.025984287
11.38,0.423535407,-0.453323364,-0.582329631
11.39,0.518476784,-0.027532578,0.096397094
11.4,0.290052414,0.170993805,0.160702243
11.41,0.306710571,0.439293861,-0.213830754
11.42,0.551425397,0.896868706,-0.673206091
11.43,0.401932538,1.51003933,-1.114998937
11.44,0.538826764,2.156679153,-1.477416396
11.45,0.6767627,2.846137047,-1.532399535
11.46,0.594501257,3.501694679,-1.189732194
11.47,0.583842814,3.500922203,-1.194252014
11.48,-0.336189389,3.648530006,-0.921911538
11.49,-0.825540781,3.482887268,-0.466910243
11.5,-0.820678175,3.48300457,-0.478587836
11.51,-0.731040299,4.03208828,0.174761385
11.52,-0.713149548,4.033432007,0.186725676
11.53,0.303921998,4.672334671,-0.235382661
11.54,0.278915554,4.593745232,1.542030931
11.55,0.315306753,4.597043037,1.569156766
11.56,0.039088428,2.644456863,4.761602879
11.57,0.248424411,1.620538712,4.602030277
11.58,0.535755873,0.832746506,4.013223171
11.59,0.620098352,0.572782517,3.67077446
11.6,0.479019731,0.715540886,3.334493637
11.61,0.058555841,1.003134727,2.763744593
11.62,-0.133177161,1.258833885,2.128206253
11.63,-0.162000775,1.255502701,2.089627743
11.64,-1.717273474,2.159819603,1.37304616
11.65,-1.735973835,2.157587051,1.328065991
11.66,-3.276331425,2.165991783,1.129649639
11.67,-2.664888859,1.693666458,0.585900903
11.68,-1.730139852,0.838440895,0.166312635
11.69,-0.984579086,-0.071911812,0.145169735
11.7,-0.206484795,-0.944155693,0.077744044
11.71,0.696697712,-1.795255184,0.009327216
11.72,1.373770714,-2.666154861,0.206605405
11.73,1.517800808,-3.269189835,0.754506409
11.74,1.481875181,-3.27127552,0.73777473
11.75,1.683427095,-3.788080692,0.925282657
11.76,1.584543943,-4.297594547,0.656682074
11.77,1.547655344,-4.299307346,0.652273357
11.78,0.695023179,-4.365420341,-0.050189167
11.79,0.664146662,-4.366695404,-0.041670054
11.8,-0.069731653,-4.537769318,-0.567707777
11.81,-0.516491175,-4.51224041,-1.077706218
11.82,-0.64484179,-4.278159142,-1.134222984
11.83,-0.485811412,-4.137280464,-0.670829058
11.84,-0.510301113,-4.151901722,-1.078867555
11.85,-0.312335283,-3.962807178,-1.388826251
11.86,0.01897344,-3.443183899,-0.850546718
11.87,-0.094875291,-2.9906106,-0.909848929
11.88,-0.464399755,-2.267333508,-1.126410484
11.89,-0.517450154,-1.539065361,-1.083586097
11.9,-0.588394225,-0.920918465,-0.737070084
11.91,-0.718564749,-0.393802643,-0.352037162
11.92,-0.594836056,0.018318176,-0.055033177
11.93,-0.332831889,0.33454895,0.130863339
11.94,-0.523837507,0.85427475,0.083443195
11.95,-0.848131537,1.494046211,-0.416926473
11.96,-1.135960579,1.956922531,-1.29392612
11.97,-1.197660685,2.290793419,-1.729762435
11.98,-1.414126515,2.70608139,-1.519097805
11.99,-1.412076235,2.706848145,-1.50036025
12,-1.366356969,3.174180031,-0.821864367
12.01,-1.840129375,3.215022087,-0.978390575
12.02,-2.929196835,3.191093445,-1.587454319
12.03,-3.587955952,3.140995979,-2.111157656
12.04,-3.570048809,3.141695976,-2.105960608
12.05,-1.994635582,4.242145538,-0.535973072
12.06,0.269826591,4.289719582,-0.206865042
12.07,2.011899948,4.265843391,0.015046537
12.08,2.012865067,4.268544197,0.064684153
12.09,2.685195684,4.240299225,0.981645465
12.1,2.784752369,3.659322739,3.363441944
12.11,2.504805088,2.618606567,3.94032383
12.12,1.95513165,1.636845589,3.936535358
12.13,1.761235356,0.790150642,3.288819075
12.14,1.833436728,-0.172588348,1.835236669
12.15,2.00117588,-0.992511749,0.132521689
12.16,1.858572125,-1.088069916,-0.993920326
12.17,1.099965453,-0.559146881,-1.084327221
12.18,1.083107352,-0.56166935,-1.115409732
12.19,0.999601603,0.015162468,-0.285652757
12.2,1.444257855,0.889010429,0.67218858
12.21,1.129047155,1.238736153,0.833832979
12.22,0.333064079,1.246286392,1.045535326
12.23,-0.134172782,0.940265656,1.245758057
12.24,-0.364799053,0.186537743,0.777813196
12.25,-0.557886124,-0.588571549,0.358448625
12.26,-0.952782691,-1.518981934,0.445216447
12.27,-1.347082853,-2.568757057,0.469356239
12.28,-1.35386765,-3.752167702,-0.400235087
12.29,-0.892446578,-4.69570303,-0.673171282
12.3,-0.526454985,-5.385343552,-0.020920426
12.31,-0.308525741,-5.79721117,0.217788279
12.32,-0.03722395,-5.854587555,0.347920358
12.33,0.369110227,-5.658002853,0.484025538
12.34,0.67002213,-5.257853985,0.407433391
12.35,0.767192364,-4.836093426,0.326123118
12.36,0.871452808,-4.225136757,0.260397852
12.37,0.995607555,-3.614261627,0.137181819
12.38,1.01296556,-3.614019394,0.117542751
12.39,1.116647005,-2.660986423,-0.24452582
12.4,1.124523997,-2.660981655,-0.263907403
12.41,1.13847065,-2.227704048,-0.531071365
12.42,0.262461126,-1.406471252,-0.643792272
12.43,0.270677745,-1.406297684,-0.658460259
12.44,-0.3257249,-0.496189117,-0.84445405
12.45,-0.252351701,-0.131950378,-1.103243828
12.46,-0.027745426,0.227472305,-1.482690215
12.47,0.072068125,0.749649048,-1.664050579
12.48,0.209780961,1.259750366,-1.574944019
12.49,0.20876652,1.259819984,-1.564157248
12.5,0.461898059,2.976490974,-1.228183985
12.51,0.457519382,2.976402283,-1.219601393
12.52,-0.042858183,4.436794281,-1.546297669
12.53,-0.046893418,4.436624527,-1.5456357
12.54,-0.830379486,4.424444199,-1.067039132
12.55,-0.832372427,4.424278259,-1.073531985
12.56,-0.84728694,4.096348763,-1.15940845
12.57,-0.243947178,4.661782265,-0.123064145
12.58,-0.453383386,4.784529686,-0.205283001
12.59,-0.434046835,4.785722733,-0.182016403
12.6,-1.052587271,4.303982735,0.502598643
12.61,-0.960015237,3.872735977,1.520310283
12.62,-0.930247009,3.874876976,1.544902563
12.63,-0.68299973,2.200956345,3.751469612
12.64,-0.668590963,2.202445984,3.775435448
12.65,0.759567142,0.081051826,5.920523643
12.66,1.469141245,-0.686398506,6.135142326
12.67,1.42596221,-0.678555489,4.970301628
12.68,0.568511665,-0.323450089,3.305518866
12.69,-0.586393774,0.324116707,1.396013975
12.7,-2.234107733,1.338344574,-0.03161028
12.71,-2.885539293,2.170861244,-0.651778698
12.72,-3.504551172,2.541441917,-1.222758055
12.73,-3.507290602,2.541063309,-1.243091226
12.74,-3.753874302,2.598285675,-0.801817358
12.75,-1.680476785,1.388987541,1.07620275
12.76,-1.050302863,0.641905785,1.228588343
12.77,-0.68141377,-0.274877548,1.229120255
12.78,-0.278935969,-1.371318817,1.13297987
12.79,0.530758977,-2.535122871,1.144732833
12.8,1.216788411,-3.570222378,1.150338054
12.81,1.438472629,-4.339967728,0.954056621
12.82,1.52556479,-4.939888,0.464130282
12.83,1.351720452,-5.288377762,-0.058511592
12.84,1.019866228,-5.402107239,-0.389185429
12.85,0.428349197,-5.343304157,-0.780878902
12.86,0.012065977,-5.336984634,-0.875309765
12.87,0.068926752,-5.249168873,-0.562581062
12.88,0.095566258,-4.98412466,-0.425237149
12.89,0.142249614,-4.726185322,-0.348165214
12.9,0.21017538,-4.369957447,-0.3863042
12.91,0.203732401,-4.008810043,-0.293754488
12.92,0.053961962,-3.556551456,-0.395142585
12.93,-0.069711477,-3.063475609,-0.559675336
12.94,-0.415995568,-2.634970188,-0.689225674
12.95,-0.429431379,-2.634962559,-0.672062099
12.96,-1.098578453,-1.227053642,-1.272848725
12.97,-1.104675889,-1.226885796,-1.254799247
12.98,-1.441902518,0.164447784,-0.855649591
12.99,-1.688017368,0.741834641,-0.529109597
13,-1.988260984,1.410601616,-0.517221034
13.01,-1.836997271,1.845216751,-1.097732782
13.02,-1.516819596,2.254178047,-1.695540667
13.03,-1.140030861,2.637386322,-1.808971405
13.04,-0.656423271,2.999242783,-1.534874082
13.05,-0.240261823,3.415557861,-0.92635864
13.06,-0.233486548,3.656324387,-0.193722129
13.07,-0.797963679,3.661652565,-0.013989955
13.08,-1.885044098,3.53003788,-0.42092061
13.09,-1.882006884,3.530005455,-0.423253447
13.1,-4.392758846,3.439422607,-2.081818342
13.11,-3.44024682,3.951243401,-2.372362852
13.12,-1.023005247,4.121983528,-1.619633436
13.13,0.709680915,4.229056358,-0.971431673
13.14,1.226311207,4.224204063,-0.124680519
13.15,1.802066207,4.195503235,1.956783652
13.16,1.876353502,3.629891396,3.824131012
13.17,1.749860644,2.774583817,4.157095909
13.18,1.824233294,1.849476814,3.659204006
13.19,1.820051312,1.852137566,3.690433979
13.2,2.660830259,-0.327987671,2.191088915
13.21,2.649677992,-0.837697983,0.875325263
13.22,2.637259007,-0.837591171,0.88096118
13.23,1.58752346,0.066615105,-0.594734371
13.24,1.248544693,0.768619537,-0.045517802
13.25,1.212893248,1.347691536,0.099510849
13.26,1.25658989,1.864310265,0.332943678
13.27,1.195725203,2.134037971,0.421212256
13.28,0.804423094,2.142511368,0.572539032
13.29,0.332508415,1.715244293,0.685438275
13.3,0.320274085,1.711842537,0.643726528
13.31,-0.01374495,-0.680858612,0.54236567
13.32,-0.174326345,-2.101220608,0.394659251
13.33,-0.186981827,-2.103659153,0.359525949
13.34,-0.388615966,-4.234030247,0.2131432
13.35,-0.532146454,-4.955774307,0.066881746
13.36,-0.522958398,-4.956108093,0.05683586
13.37,-0.692080319,-5.710038185,0.367301643
13.38,-0.475713879,-6.030229568,0.469159156
13.39,-0.212574184,-6.084303856,0.411498815
13.4,0.226279885,-5.874936104,0.382047832
13.41,0.390978426,-5.466956615,0.574694276
13.42,0.550361216,-4.862884998,0.666661799
13.43,1.088957191,-4.412198544,0.197685748
13.44,1.120903969,-3.976031303,-0.272101641
13.45,0.849738598,-3.413101196,-0.529005647
13.46,0.752701342,-2.836020947,-0.869458795
13.47,0.781378627,-2.330976963,-1.07062161
13.48,0.816865325,-1.593839645,-1.100289345
13.49,0.508735657,-0.756206513,-0.910094976
13.5,0.509817004,-0.756410599,-0.915488958
13.51,0.116785258,0.397652626,-0.601445556
13.52,-0.154836714,0.848083496,-0.397296816
13.53,-0.110651821,1.169559479,-0.705540657
13.54,-0.048288345,1.426623344,-1.338807464
13.55,-0.099885762,1.9280653,-1.699516773
13.56,-0.099583566,2.510736465,-1.809762716
13.57,-0.41576016,3.03573513,-1.912087917
13.58,-0.455376655,3.658746719,-1.966645479
13.59,-0.460102499,3.658920288,-1.959373713
13.6,-0.419180512,4.16152668,-0.955623031
13.61,-0.772616863,3.727927208,-0.874758601
13.62,-1.308273196,3.412565231,-0.689960957
13.63,-1.292961359,3.413949966,-0.678749859
13.64,-1.002488375,4.275408745,-0.576942146
13.65,-0.496965647,4.577338219,-1.622603774
13.66,0.149241149,4.843978882,-0.296144426
13.67,-0.049881339,4.887475014,1.7946136
13.68,-0.331746161,4.193719864,3.555245161
13.69,-0.119690657,2.815994263,4.194454193
13.7,0.473918587,1.455304146,4.092110157
13.71,0.672192395,0.295201302,3.96569705
13.72,0.553341389,-0.023389816,4.083415985
13.73,0.196343541,0.01559639,3.877032042
13.74,0.194675624,0.015246391,3.874199152
13.75,-0.314160109,0.36104393,2.372909546
13.76,-0.691185296,0.809104919,1.721188068
13.77,-1.538696051,1.369293213,1.383092403
13.78,-1.548394203,1.367085457,1.361987948
13.79,-3.537999392,2.232216835,1.093121409
13.8,-3.480217934,2.274140358,0.85325259
13.81,-3.473186493,2.273294449,0.833217263
13.82,-1.936304688,1.051463127,0.730435312
13.83,-1.145927429,0.313145638,0.849745393
13.84,-1.14210701,0.312199593,0.829573572
13.85,0.311393231,-1.230754852,0.943363249
13.86,0.726064384,-1.880821705,1.039798737
13.87,1.018215656,-2.41386795,1.187196493
13.88,1.003290653,-2.41574955,1.171138525
13.89,1.844388247,-3.387681484,1.322067976
13.9,1.901053429,-3.545969009,1.353868484
13.91,1.614260793,-3.40747261,1.227097869
13.92,0.843994439,-3.185112476,1.118551135
13.93,0.558024287,-3.0822258,0.839179874
13.94,0.242441937,-3.237670898,0.330974728
13.95,-0.12692076,-3.371087074,-0.222780645
13.96,-0.434777439,-3.568491459,-0.506145775
13.97,-0.679749668,-3.715125084,-0.656241596
13.98,-0.761501551,-3.839832306,-0.895466089
13.99,-0.78000319,-3.839723587,-0.877886891
14,-1.184808016,-3.810435295,-1.039260149
14.01,-1.424144745,-3.648859024,-0.928260326
14.02,-1.254360914,-3.429160595,-1.118932724
14.03,-1.240873456,-3.426716328,-1.083986998
14.04,-0.418859094,-2.758218288,0.157280892
14.05,-0.076549858,-2.798680305,0.54186815
14.06,0.102258444,-2.714471817,0.414011329
14.07,0.355025441,-2.50835228,0.546556234
14.08,0.360046178,-2.506302834,0.571700215
14.09,0.464560986,-2.179102898,0.536376774
14.1,0.398238868,-0.935329437,-0.254510999
14.11,0.456431449,-0.041604996,-0.228513598
14.12,0.27569592,0.923026085,-0.247753441
14.13,-0.198179662,1.815682411,-0.298350096
14.14,-1.150134683,2.416213989,-0.403527141
14.15,-2.684256077,2.827560425,-0.631289125
14.16,-3.78270483,2.566126823,-0.639780164
14.17,-3.527906895,2.395772934,-0.632088125
14.18,-3.511178017,2.39597702,-0.63851583
14.19,-1.469228625,3.620972633,-1.366941929
14.2,0.257807255,4.693880081,-1.040506124
14.21,1.805766582,5.44635582,-0.155517757
14.22,1.814791918,5.449605942,-0.122311413
14.23,2.791512012,6.648571968,2.353684425
14.24,2.154738426,6.852406502,3.028861523
14.25,2.177168369,6.857844353,3.072555065
14.26,0.800137043,6.662148476,3.323568821
14.27,-0.221152663,5.763659477,3.53267765
14.28,-0.276596963,1.853034973,2.590077877
14.29,-0.286393583,1.851146698,2.577953339
14.3,0.486590922,0.131349564,1.979713917
14.31,1.863769293,-1.305128098,1.119840384
14.32,1.905326843,-1.066650391,0.441212714
14.33,1.634320259,-0.412822723,0.921956003
14.34,1.643938065,-0.412347794,0.921140015
14.35,1.7708745,0.629078865,1.062191129
14.36,-0.108862519,2.332650185,2.055111408
14.37,-0.664061189,2.433006287,2.316198826
14.38,-0.657552838,2.428929329,2.267987251
14.39,-0.184079468,1.492093086,2.182184458
14.4,0.406742364,0.372599602,1.623206139
14.41,0.734086335,-1.680665016,0.690227389
14.42,0.775118291,-2.296647072,0.588867009
14.43,0.545624018,-2.667479038,0.541783035
14.44,0.51700145,-2.881669521,0.498176545
14.45,0.216587946,-2.953715801,0.463623971
14.46,-0.10753873,-2.876523495,0.21047318
14.47,-0.000959069,-2.643335819,0.171779662
14.48,0.482418209,-2.307263374,0.809183538
14.49,0.658694148,-1.988187313,0.904172659
14.5,0.645236969,-1.989813328,0.878581166
14.51,0.443975091,-1.327960014,0.842114449
14.52,0.302964211,-1.20703125,1.047560692
14.53,-0.073659182,-1.188816071,0.353719264
14.54,-0.079994231,-1.189414024,0.342552841
14.55,-0.173537642,-1.163676262,0.174847543
14.56,0.148808911,-1.133363724,1.108853579
14.57,0.847385764,-1.383488655,1.725272775
14.58,1.436266184,-1.581279755,2.408261299
14.59,1.411822319,-1.582828522,2.374310732
14.6,1.779283047,-1.605813026,2.448243618
14.61,0.970060766,-0.314071655,1.140662313
14.62,0.275346875,0.456171989,0.330438346
14.63,-0.146871448,1.28037262,-0.367837876
14.64,-0.524358094,1.833025932,-0.421763241
14.65,-0.459919751,1.895261765,-0.294141144
14.66,0.161437273,1.725340843,-0.049542684
14.67,0.572335482,1.509933472,0.464126885
14.68,0.322406292,1.146094322,0.44430542
14.69,0.137546331,0.925818443,0.177053675
14.7,0.135759443,0.925747871,0.181696534
14.71,0.128480762,0.80352211,-0.153926611
14.72,0.268864453,0.76508522,-0.541109383
14.73,0.142593086,1.104974747,-0.840230048
14.74,-0.116767973,1.411390305,-0.593509316
14.75,-0.118625872,1.411410332,-0.59701705
14.76,-0.597460091,1.289356232,0.380143613
14.77,-0.992693603,0.719560623,0.428735554
14.78,-1.08145678,0.018074989,0.03623686
14.79,-0.944960773,-0.606799126,-0.476399303
14.8,-0.926408589,-0.606741905,-0.45971325
14.81,-0.53172946,-1.155011177,-0.892143905
14.82,-0.020050496,-1.672091484,-0.081081152
14.83,0.35949558,-1.846763611,0.261773884
14.84,0.367054641,-1.846629143,0.260533541
14.85,0.578607202,-1.726780891,0.513043404
14.86,0.224783078,-1.242884636,0.385018885
14.87,0.241653264,-1.242566109,0.386077464
14.88,-0.248598725,-0.650809288,0.198880062
14.89,-1.093043327,0.036698341,-0.093224004
14.9,-1.082837582,0.036976814,-0.098757967
14.91,-0.976372898,0.317268372,-0.245186925
14.92,-0.859281898,0.358009338,-0.176180005
14.93,-0.711641431,0.302978516,0.36235857
14.94,-0.898382962,0.221700668,0.360546142
14.95,-0.90780431,0.221918106,0.333334893
14.96,-1.087709308,0.021197319,0.057287753
14.97,-1.084435463,0.014570236,-0.139207542
14.98,-1.475529313,0.055938721,-0.523700297
14.99,-1.470180988,0.229052544,-0.567647934
15,-1.315877199,0.32797432,-0.395954251
15.01,-1.058220506,0.247338295,-0.368565381
15.02,-0.696734071,0.097207069,-0.217637897
15.03,-0.692738056,0.097924232,-0.235462308
15.04,-0.038020834,-0.282090187,0.338541687
15.05,-0.03708531,-0.281603813,0.326079667
15.06,-0.314062238,-0.367454529,0.343407065
15.07,-0.607767582,-0.477360725,0.202251613
15.08,-0.693768501,-0.467648506,-0.031321138
15.09,-0.649893999,-0.467599869,-0.136683047
15.1,-0.645976901,-0.46751976,-0.136023998
15.11,-0.877145827,-0.402732849,0.032677442
15.12,-0.777312875,-0.373888016,0.315886945
15.13,-0.234954655,-0.285357475,0.63020426
15.14,-0.233059347,-0.285572052,0.636820197
15.15,-0.552333355,0.137926102,0.046140343
15.16,-0.529960454,0.138328552,0.05220592
15.17,-0.734418392,0.543121338,-0.777320921
15.18,-1.227594852,0.670225143,-0.396930486
15.19,-1.512488365,0.709192276,-0.068847984
15.2,-0.932050824,0.750994682,0.402346134
15.21,-0.490763158,0.558157921,0.419239342
15.22,0.155383468,0.269304276,0.15549323
15.23,0.615312874,0.097195625,-0.294145227
15.24,0.328998983,0.140057564,-0.454355449
15.25,0.004462689,0.103898048,-0.764843702
15.26,-0.065078139,0.077303886,-1.350153089
15.27,-0.249860019,0.026614189,-2.036909103
15.28,-0.127855033,-0.158314705,-2.182612658
15.29,0.360381424,-0.130379677,-1.370772958
15.3,0.035400778,-0.362605095,-0.960198402
15.31,-0.042357594,-0.407698631,-0.703264833
15.32,-0.140883446,-0.249044418,-0.688956857
15.33,-0.797697306,-0.185905457,-1.348597765
15.34,-0.809715629,-0.184782028,-1.387016296
15.35,-0.839276314,-0.346266747,-2.877448797
15.36,-0.856072426,-0.55277729,-2.310563326
15.37,-0.547777832,-0.714622498,-2.11993742
15.38,-0.58428061,-0.710142136,-2.204996586
15.39,1.35240221,-0.778668404,-0.260876834
15.4,1.25812161,-0.816977501,0.931105316
15.41,1.249482989,-0.413084984,1.41070509
15.42,0.306004226,0.075695038,1.727075696
15.43,0.311996162,0.085764885,1.639174342
15.44,-1.542042017,1.102155685,2.270706654
15.45,-1.733460903,1.307472229,1.605430841
15.46,-1.742876053,1.319648743,1.517869473
15.47,-0.515894711,0.911977768,2.171052694
15.48,0.37142399,0.496461868,2.134184837
15.49,0.318887144,0.511777878,2.042928457
15.5,2.337049723,-0.52734375,2.688604355
15.51,2.299587727,-0.514228821,2.619772911
15.52,1.181263685,-0.93439579,2.375876904
15.53,0.632891893,-0.732585907,1.453119993
15.54,0.641279757,-0.72911644,1.435599446
15.55,-0.667142689,-0.351884842,-0.659265041
15.56,-0.534269035,-0.255504608,-0.894940138
15.57,0.037422046,-0.410161972,-0.904632211
15.58,0.596899927,-0.48544693,-0.549613118
15.59,0.704423845,-0.400237083,0.221633911
15.6,0.716281474,-0.399757385,0.219035626
15.61,0.081378087,-0.254672051,-0.114098787
15.62,-0.09794271,-0.106059074,-0.586986184
15.63,-0.075020976,-0.108654022,-0.574155092
15.64,-0.959311366,0.109457016,-1.827209473
15.65,-1.041612267,0.173194885,-1.786206603
15.66,-0.969330907,0.164088249,-0.875859737
15.67,-0.967416883,0.169026375,-0.899913549
15.68,-0.265480727,-0.028691292,0.214145184
15.69,-0.268361539,-0.023321152,0.188549519
15.7,0.118830308,-0.042726517,-0.007532835
15.71,0.123991922,-0.038743973,-0.025830746
15.72,-0.178095281,0.118694305,0.003100872
15.73,-0.618893743,0.247684479,0.069186211
15.74,-0.453102112,0.250165939,0.672374964
15.75,-0.070987053,0.137875557,1.150409937
15.76,0.181913525,0.000849724,1.342349529
15.77,0.183914036,0.002311707,1.336061239
15.78,0.156546578,-0.038801193,1.012495041
15.79,-0.113612503,-0.002020836,0.387681961
15.8,-0.047120586,-0.088176727,-0.156712055
15.81,-0.095402375,-0.052442551,-0.537369251
15.82,-0.393287599,0.058077812,-0.654718399
15.83,-0.342571437,0.030823708,-0.231068015
15.84,-0.139225677,-0.131770134,0.354954243
15.85,-0.160879716,-0.351365089,0.778256178
15.86,-0.283637822,-0.389185906,1.302905321
15.87,-0.277718931,-0.387271881,1.294844627
15.88,-0.159265116,-0.370566368,0.581231594
15.89,-0.116285294,-0.341163635,-0.448297024
15.9,0.013272807,-0.254685402,-1.084937096
15.91,0.071576536,-0.164733887,-1.483750582
15.92,0.070009142,-0.16748333,-1.471540451
15.93,0.064559489,-0.244348526,-0.314103842
15.94,0.064482346,-0.242939949,-0.3204
15.95,-0.614531755,-0.029910088,1.508204699
15.96,-1.04637146,0.154088974,1.938106775
15.97,-1.27707243,0.204575539,1.59529829
15.98,-0.797986567,0.126378059,0.525197268
15.99,-0.101148903,-0.062093735,-0.410200954
16,0.299401701,-0.212266922,-0.931635976
16.01,0.540961504,-0.328419685,-1.304283023
16.02,0.5313797,-0.332484245,-1.287172914
16.03,0.744371295,-0.434347153,-1.431717873
16.04,0.512975752,-0.422893524,-0.592659593
16.05,0.021882236,-0.211724281,-0.238844633
16.06,0.02746442,-0.212532997,-0.234566927
16.07,-0.571371615,0.194882393,0.262531757
16.08,-0.846595287,0.246230125,0.598119259
16.09,-0.753625453,0.252644539,0.887853622
16.1,-0.759327173,0.254110336,0.880507469
16.11,-0.24273026,0.163891792,0.899864912
16.12,0.55863905,-0.121137619,0.764914513
16.13,0.623046339,-0.069608688,0.534235239
16.14,0.612434983,-0.071882248,0.543514252
16.15,0.258222699,-0.008136749,-0.448363066
16.16,0.260236085,-0.014801979,-0.417159796
16.17,-0.09978731,0.026852608,-1.570056319
16.18,-0.388473511,0.055463791,-1.409694552
16.19,-0.75493294,0.030989647,-0.700960398
16.2,-0.82900238,0.056940079,0.016849637
16.21,-0.361301005,0.005304337,0.420995832
16.22,-0.035044357,0.001665115,0.673038125
16.23,0.196326658,0.06955719,0.672732353
16.24,0.267983258,0.187028885,0.632815599
16.25,0.358660162,0.121818543,0.431624293
16.26,0.356483102,0.118193626,0.449727655
16.27,-0.225757495,0.20003891,-0.44959259
16.28,-0.371526122,0.10146904,-0.881665051
16.29,-0.143235192,-0.221673966,-1.059870243
16.3,-0.229650989,-0.44350338,-0.87824744
16.31,-0.05666028,-0.496659279,-0.594518185
16.32,-0.16979003,-0.345543861,-0.429915786
16.33,-0.258219868,-0.201339722,-0.311840773
16.34,-0.227831602,-0.072459221,-0.331602454
16.35,-0.221749067,-0.075140953,-0.316057444
16.36,-0.422954798,-0.026761055,-0.170737267
16.37,-0.419683218,-0.027671814,-0.165225744
16.38,-0.227661267,-0.032165527,0.199208379
16.39,0.072830036,-0.263648033,0.65627861
16.4,0.09201923,-0.291664124,0.934005976
16.41,0.216907233,-0.207414627,0.573881269
16.42,0.460577548,-0.215011597,-0.049615145
16.43,0.565743268,-0.154150009,-0.497804403
16.44,0.730737209,-0.148818016,-0.483653069
16.45,0.527642012,-0.190768242,-0.290552616
16.46,0.524102151,-0.1916008,-0.286118627
16.47,0.177985594,-0.120184898,0.039505124
16.48,-0.726057887,-0.082304955,0.03052187
16.49,-1.148044348,0.005823135,0.471995235
16.5,-1.071088552,0.063191414,0.676305294
16.51,-1.070230842,0.063247681,0.676194668
16.52,0.168416321,0.002861977,-0.029981256
16.53,0.278494239,-0.031954765,-0.169590235
16.54,0.268598557,-0.0335989,-0.161134839
16.55,0.394423246,-0.085419655,-0.128780842
16.56,0.373817176,-0.146570206,-0.238908529
16.57,0.326548725,-0.161894798,-0.046773434
16.58,-6.78897E-05,-0.179221153,0.064352155
16.59,-0.246323228,-0.12197113,-0.249951005
16.6,-0.438587308,-0.004763603,-0.014007807
16.61,-0.584054589,0.112868309,0.580798745
16.62,-0.70240742,0.096302986,0.951438427
16.63,-0.546277046,0.132100105,1.156455874
16.64,-0.227243111,0.158201218,0.593639731
16.65,-0.222667471,0.156909943,0.601771832
16.66,0.144729748,0.015282631,-0.854254842
16.67,0.33128655,-0.028553963,-1.283538699
16.68,0.43453598,-0.133813858,-0.887023091
16.69,0.242064118,-0.268965721,-0.179296017
16.7,0.143465132,-0.24034214,0.606654286
16.71,-0.115223885,-0.134572029,1.533314705
16.72,-0.308421493,-0.187879562,2.033668041
16.73,-0.185777575,-0.07395649,2.07012701
16.74,-0.171482801,-0.074584961,2.075957775
16.75,-0.365913689,-0.06751442,1.89387095
16.76,-0.647486866,-0.077557564,1.470998287
16.77,-0.418874621,-0.187959671,0.022757411
16.78,-0.425490558,-0.195016861,0.070692301
16.79,0.84604454,-0.606510162,-1.373485088
16.8,1.269485474,-0.691942215,-1.540585756
16.81,1.164968252,-0.673797607,-1.475236058
16.82,0.676971555,-0.449062347,-0.895073116
16.83,-0.303766787,-0.134490967,0.001795053
16.84,-0.283154488,-0.137958527,0.035724163
16.85,-0.893763185,0.059432983,0.135150433
16.86,-0.980885506,0.07970047,-0.103114724
16.87,-0.743657231,0.035849571,-0.277296841
16.88,-0.338717639,-0.083926201,-0.119356334
16.89,-0.019605219,-0.179076195,0.020858169
16.9,0.208292127,-0.235928536,0.460562229
16.91,0.407718211,-0.269078255,0.564077437
16.92,0.536530912,-0.19037056,0.458083808
16.93,0.541072071,-0.193589211,0.494591296
16.94,0.014894754,0.056762695,0.192567289
16.95,-0.56730473,0.091868401,-0.610993743
16.96,-0.63636148,0.041323662,-0.748840332
16.97,-0.261703521,-0.140299797,-1.039408207
16.98,0.337842554,-0.400252342,-1.046767116
16.99,0.321376294,-0.400876999,-1.044596791
17,0.881488323,-0.40553093,0.470524907
17.01,0.271902055,-0.012433052,1.145576954
17.02,-0.021447361,0.159968376,1.159424663
17.03,-0.804030478,0.530382156,0.905094802
17.04,-0.787659764,0.52908802,0.929251611
17.05,-1.547920465,0.623279572,0.288115025
17.06,-0.902948082,0.231337547,-1.414841175
17.07,-0.912364721,0.229931831,-1.397277832
17.08,0.442635626,-0.290470123,-0.652849913
17.09,0.760311544,-0.535183907,-0.273211032
17.1,0.749639034,-0.535338402,-0.27519986
17.11,0.468281448,-0.434597015,0.857928574
17.12,0.013637334,-0.130425453,0.933566988
17.13,-0.546399474,0.168691635,0.60133934
17.14,-1.260833144,0.347805023,-0.096463919
17.15,-1.377077579,0.419059753,-0.404970735
17.16,-0.795685411,0.317989349,-0.110532522
17.17,-0.135219365,0.133728027,-0.117118835
17.18,0.332095742,0.056990623,0.069655359
17.19,0.570832849,-0.108598709,0.292428315
17.2,0.562872827,-0.109050751,0.296387017
17.21,0.834613204,-0.39676857,0.628597796
17.22,0.269542575,-0.289213181,0.326752186
17.23,0.273627788,-0.289270401,0.329586864
17.24,-0.951763392,0.036439896,-0.550424695
17.25,-0.827806115,0.141919136,-0.434313774
17.26,-0.824549437,0.142016411,-0.434258521
17.27,-0.348883063,0.0365839,-0.407023668
17.28,0.007535428,0.003095627,0.534320653
17.29,0.031594649,-0.042098045,0.993631721
17.3,0.231030688,-0.094314575,1.017129898
17.31,0.45961389,-0.129720688,0.736273766
17.32,0.456005931,-0.12925911,0.726743698
17.33,0.214440256,0.038888931,0.726362407
17.34,0.216198206,0.03946209,0.71773833
17.35,-0.648250639,0.377464294,0.539668679
17.36,-0.639794946,0.377614021,0.540913403
17.37,-0.633943439,0.207432747,-0.359475017
17.38,-0.630691707,0.206710815,-0.346101463
17.39,-0.224198282,0.038057327,-0.621720076
17.4,0.326115429,-0.089929581,-0.245039612
17.41,0.315851808,-0.090870857,-0.23369959
17.42,0.309327751,-0.151501656,0.034586906
17.43,0.359523267,-0.121031761,-0.045530051
17.44,0.131606415,-0.100082398,-0.120529115
17.45,-0.115698531,-0.052645683,-0.149464667
17.46,-0.426362634,-0.038590431,-0.074982464
17.47,-0.424725831,-0.067495346,0.187851727
17.48,-0.352846026,-0.168159485,0.369621337
17.49,0.017303452,-0.249688149,0.273315191
17.5,0.27319181,-0.225944519,0.137572765
17.51,0.332764506,-0.135186195,0.217674553
17.52,0.138194427,-0.044276237,0.464423716
17.53,-0.216176972,0.032352448,0.454577148
17.54,-0.400533885,0.135316849,0.369001389
17.55,-0.397823453,0.13531208,0.370249093
17.56,-0.057144046,0.194997788,-0.229293317
17.57,-0.103993982,0.153913498,-0.021165252
17.58,-0.104786307,0.153522492,-0.01383096
17.59,-0.300962538,0.08373642,0.328940868
17.6,-0.052066654,0.023533821,0.17297405
17.61,-0.054522529,0.023143768,0.180014908
17.62,0.28965348,-0.429758072,0.128219277
17.63,0.132016674,-0.389253616,-0.005645961
17.64,-0.122999862,-0.039833069,0.111580461
17.65,-0.392466545,0.012792587,0.096297383
17.66,-0.320623815,-0.054269791,0.344657153
17.67,-0.340717673,-0.06141758,0.298993498
17.68,-0.341033608,-0.061393738,0.298517972
17.69,-0.423280954,0.041440964,-0.106345445
17.7,-0.269357622,0.08672905,0.10434714
17.71,-0.00872013,0.031389236,0.028680027
17.72,0.24715142,-0.064760208,-0.25611791
17.73,0.393335313,-0.105940819,-0.201637611
17.74,0.38560611,-0.209180832,0.113617718
17.75,0.237655133,-0.127829552,0.603611112
17.76,0.007163018,0.008764267,0.664306641
17.77,-0.278943718,0.119022369,0.612973571
17.78,-0.44608438,0.245973587,0.530391932
17.79,-0.343093216,0.219592094,0.247598499
17.8,-0.342614532,0.219219208,0.256779879
17.81,-0.187321886,0.034338951,0.065672457
17.82,-0.188478664,0.0337677,0.079374224
17.83,0.132159293,-0.136856079,-0.315232068
17.84,0.150192171,-0.214162827,-0.473246545
17.85,0.207383335,-0.293757439,-0.551493764
17.86,0.283520311,-0.251143456,-0.378777266
17.87,0.281308174,-0.251436234,-0.371010453
17.88,-0.455892026,0.030972481,0.540287197
17.89,-0.236568958,0.081198692,0.310404271
17.9,0.038050473,0.023561478,-0.096307501
17.91,0.097509652,0.054404259,-0.012511611
17.92,-0.110375136,0.126026154,0.323516756
17.93,-0.235210881,0.118670464,0.535295904
17.94,-0.129127175,0.02268219,0.454049617
17.95,0.074559487,-0.106869698,0.185525209
17.96,0.155313373,-0.291537285,-0.289220482
17.97,0.139866084,-0.33497715,-0.434894592
17.98,0.064326927,-0.275369644,-0.351467311
17.99,0.062822357,-0.275506973,-0.347060323
18,0.218555808,-0.009773254,0.320489347
18.01,0.142656297,0.021404266,0.628552377
18.02,-0.192185327,0.1507864,0.598704219
18.03,-0.188916385,0.150826454,0.599547684
18.04,-0.248486623,0.011891365,0.179956108
18.05,0.073027752,-0.15583992,-0.213777185
18.06,0.214265779,-0.206331253,-0.237556204
18.07,0.298652411,-0.153847694,-0.112407863
18.08,0.316046119,-0.151582718,-0.016494915
18.09,0.312661409,-0.151697159,-0.014053077
18.1,-0.083427936,0.128351212,-0.23617214
18.11,-0.458784998,0.238456726,-0.105093606
18.12,-0.372835279,0.116313934,-0.066780955
18.13,0.081851259,0.015680313,-0.037156954
18.14,0.094541669,0.005981445,-0.03946574
18.15,0.094202057,0.005887032,-0.034971058
18.16,-0.060375124,0.115958214,0.048513353
18.17,0.131893709,0.120676041,0.267731428
18.18,0.131353319,0.12062645,0.270549119
18.19,0.305008709,-0.003957748,0.433935463
18.2,0.311367959,-0.037532806,0.395910204
18.21,0.20726262,-0.142916679,0.47132659
18.22,0.020291448,-0.114163399,0.532508969
18.23,-0.198785007,-0.123689652,0.364972651
18.24,-0.291560322,-0.051790237,-0.111908041
18.25,-0.266233504,-0.001548767,-0.4801507
18.26,-0.263734996,-0.001683235,-0.469607681
18.27,-0.120718896,-0.01380825,-0.223485813
18.28,-0.014419794,-0.001979828,0.067914501
18.29,-0.06408523,0.019446373,0.214685679
18.3,0.003638655,0.009766579,0.270479411
18.31,0.003991991,0.00962925,0.281886071
18.32,0.147786707,-0.024008751,0.00203874
18.33,-0.031333506,-0.103107452,-0.18996188
18.34,-0.240372881,-0.062449455,-0.120711446
18.35,-0.389002681,-0.019371033,-0.002573576
18.36,-0.298112094,-0.057672501,-0.105417721
18.37,-0.296809197,-0.057687759,-0.097616687
18.38,-0.338307738,0.01652813,-0.066641852
18.39,-0.40914005,0.090786934,0.183600903
18.4,-0.392726898,0.121991158,0.201316074
18.41,-0.203333542,0.086162567,0.153463095
18.42,-0.040937722,0.00483799,-0.01077705
18.43,0.003410608,-0.076510429,0.009898732
18.44,0.006368294,-0.076448441,0.017113194
18.45,-0.010527909,-0.186536789,0.02983027
18.46,0.060811311,-0.069156647,0.30808425
18.47,0.01383476,-0.047593117,0.497624487
18.48,0.009386405,0.019454956,0.668973565
18.49,0.009819537,0.019447327,0.669104219
18.5,-0.103708074,0.019486427,0.648696721
18.51,-0.381213158,0.024345398,0.417486876
18.52,-0.37572217,0.024482727,0.424333096
18.53,-0.354006052,0.019838333,-0.146558642
18.54,0.109161586,-0.083022118,-0.751839161
18.55,0.108380958,-0.082967758,-0.739242137
18.56,0.098684326,-0.078125954,-0.503637254
18.57,0.100065842,-0.078057289,-0.49915719
18.58,-0.02951616,-0.078014374,0.379514784
18.59,-0.049293831,-0.118692398,0.553316116
18.6,-0.056170374,-0.145050049,0.726543129
18.61,-0.056445971,-0.145086289,0.721252024
18.62,-0.252108097,-0.027807236,0.841180205
18.63,-0.09945035,-0.046942711,0.226390168
18.64,0.03567037,-0.066073418,-0.261830002
18.65,-0.126445308,-0.051645279,-0.60873735
18.66,-0.124991015,-0.05156517,-0.600129962
18.67,-0.2719841,0.07777977,-0.311611474
18.68,-0.163825259,0.063422203,0.530188918
18.69,-0.013321772,0.020301819,0.586655855
18.7,0.026324078,-0.006088257,0.696167707
18.71,0.02680485,-0.006074905,0.695892692
18.72,-0.251363337,0.063434601,0.370990515
18.73,-0.39918977,0.020445824,0.434442997
18.74,-0.221224099,-0.068014145,0.385883629
18.75,-0.220244139,-0.067923546,0.393049866
18.76,0.183634639,-0.163692474,0.172562331
18.77,0.340710878,-0.271469116,-0.151776016
18.78,0.213700473,-0.173308373,-0.37678963
18.79,0.051430911,-0.103888512,-0.565331399
18.8,0.047809795,-0.103923798,-0.56083703
18.81,-0.163661107,-0.032178879,-0.339438438
18.82,-0.152769253,0.020359993,-0.001245543
18.83,-0.231305316,0.161549568,0.422593176
18.84,-0.623668909,0.238185883,0.504618406
18.85,-0.620962262,0.238276482,0.507667899
18.86,-0.175983474,0.046855927,-0.030181348
18.87,-0.175698519,0.046975136,-0.021943972
18.88,0.112755805,-0.070263863,-0.019458443
18.89,0.146619141,-0.10853672,-0.118866935
18.9,0.144666538,-0.108489037,-0.113008857
18.91,-0.029288933,-0.118037224,0.092498839
18.92,-0.031140104,-0.118021965,0.095150813
18.93,0.253018796,-0.082162857,0.08682166
18.94,0.251192451,-0.082198143,0.086963117
18.95,0.066197321,-0.070227623,0.2241759
18.96,-0.026298225,-0.065412521,0.141208068
18.97,-0.216117635,-0.067728043,0.140977696
18.98,-0.403077185,-0.120314598,0.344078898
18.99,-0.020702884,-0.156181335,0.205785543
19,0.235155791,-0.122695923,0.087686539
19.01,0.004965886,0.020953178,0.021502227
19.02,-0.31107223,0.226945877,-0.074499503
19.03,-0.308123052,0.2271204,-0.068207711
19.04,-0.237880752,0.040581703,-0.24295494
19.05,-0.179865226,0.021517754,0.151025921
19.06,-0.180334598,0.021473885,0.14947167
19.07,-0.032549486,-0.129484177,0.938887239
19.08,-0.030871227,-0.060177803,0.691110611
19.09,0.019793734,-0.151223183,0.189241305
19.1,0.058357865,-0.16075325,-0.054873973
19.11,0.057680115,-0.160680771,-0.050514311
19.12,-0.050878271,-0.119936943,0.113235623
19.13,-0.12840046,-0.139113426,0.28295061
19.14,-0.358909041,-0.110458374,0.547767401
19.15,-0.300505638,-0.108153343,0.53710264
19.16,-0.306715518,-0.146513939,0.437344313
19.17,-0.026863381,-0.201564789,0.127010763
19.18,0.165447533,-0.273310661,-0.161747575
19.19,0.165045977,-0.273191452,-0.154984951
19.2,0.157579958,-0.241949081,-0.222357184
19.21,0.097768664,-0.198770523,-0.041291729
19.22,0.026258409,0.021509171,0.279740125
19.23,-0.066499323,0.023926735,0.335333347
19.24,-0.217848986,0.110185623,0.267026633
19.25,-0.215154633,0.110280991,0.268438548
19.26,-0.223180115,0.028953552,0.115154326
19.27,-0.043141589,0.079285622,0.093542933
19.28,-0.084560588,0.02186203,0.155405015
19.29,-0.084237069,0.021918297,0.158011109
19.3,-0.185374767,-0.040205956,0.162028521
19.31,-0.14196986,-0.224404335,-0.123366416
19.32,-0.106146693,-0.229027748,-0.176238179
19.33,-0.056918561,-0.204994202,-0.094247818
19.34,-0.056742325,-0.204975128,-0.093017101
19.35,0.110151395,-0.013465881,0.506693244
19.36,0.108705297,-0.013540268,0.504925966
19.37,0.055409595,0.027123451,0.544621468
19.38,0.041313708,-0.001568794,0.182124093
19.39,-0.030229852,-0.102045059,-0.034885809
19.4,-0.063111424,-0.121070862,-0.327055872
19.41,-0.074784696,-0.152054787,-0.474432826
19.42,-0.110970885,-0.132767677,-0.251050234
19.43,0.055871665,-0.053699493,0.130209848
19.44,0.161076039,-0.001092911,0.357671797
19.45,0.158615783,-0.001146317,0.357740194
19.46,0.056803629,0.022789001,0.518763661
19.47,-0.227751508,0.037189484,0.182582796
19.48,-0.132927805,0.090006828,-0.287428498
19.49,-0.051020354,0.013600349,-0.48597616
19.5,-0.06862171,-0.058112144,-0.14025262
19.51,-0.072915375,-0.101208687,0.392576665
19.52,-0.075741544,-0.101350784,0.389617831
19.53,0.194062501,-0.070432663,0.775157273
19.54,0.083642438,-0.032286644,0.507273972
19.55,-0.031244159,-0.022712708,0.033363909
19.56,-0.071632057,-0.068098068,-0.424784452
19.57,-0.058143198,0.001437187,-0.226283342
19.58,0.023528755,0.006194115,0.212504923
19.59,-0.034865201,-0.032299042,0.327797353
19.6,-0.090500429,0.022547722,0.51563406
19.61,-0.163914472,0.012810707,0.331580222
19.62,-0.10678333,0.029551506,0.086575955
19.63,-0.125755727,0.055958748,-0.044984147
19.64,-0.283127874,0.041702271,0.267235667
19.65,-0.075964391,0.020192146,0.524449825
19.66,0.25425294,-0.101900101,0.283339083
19.67,0.252767354,-0.073108673,0.203340054
19.68,-0.093126386,0.008419991,0.134000912
19.69,-0.130341739,0.018184662,0.11373882
19.7,-0.12951085,0.018344879,0.11930202
19.71,-0.065201834,-0.041371346,0.031292081
19.72,-0.022280231,0.006620407,0.212033123
19.73,-0.00782223,0.028253555,0.075738251
19.74,-0.007545158,0.028356552,0.079159439
19.75,-0.157361552,0.011731148,0.027920336
19.76,-0.156873182,0.011820793,0.030405134
19.77,0.003254473,-0.146187782,0.246324182
19.78,0.002838582,-0.146209717,0.24631834
19.79,-0.059417844,-0.107901573,0.2581985
19.8,-0.225507245,-0.007296562,0.280056477
19.81,-0.141447589,-0.019202232,0.134426296
19.82,-0.139075309,-0.019080162,0.136425078
19.83,-0.20601891,-0.002182007,-0.126157016
19.84,-0.127525225,0.01230526,-0.066386402
19.85,0.033611313,-0.013969421,0.1145318
19.86,-0.014806673,-0.025953293,0.258471191
19.87,-0.024499208,-0.011581421,0.347223043
19.88,0.00676927,0.024363518,0.257009834
19.89,0.059212729,0.024437904,0.139705196
19.9,0.070563629,0.024496078,-0.063521236
19.91,-0.109270319,0.019791603,0.111484915
19.92,-0.075297445,-0.013687134,0.184497684
19.93,-0.092099175,-0.032814026,0.084750637
19.94,-0.259788126,0.034273148,-0.078903586
19.95,-0.404557616,0.034374237,0.069151789
19.96,-0.278551102,0.022457123,0.330742061
19.97,0.03279525,-0.094885826,0.306112796
19.98,0.085686803,-0.133234978,0.270520479
19.99,0.083513558,-0.133270264,0.270898074
20,-0.008665696,-0.164482117,0.55158037
20.01,-0.0157585,-0.164505959,0.057328671
20.02,-0.103933394,-0.109318733,-0.269742489
20.03,-0.050539538,-0.025348663,-0.104568064
20.04,-0.015482306,-0.003752708,0.278098196
20.05,0.00609079,0.024841309,0.486304641
20.06,0.036359221,0.024590492,0.569608688
20.07,0.033265054,0.024354935,0.564260006
20.08,-0.082720444,0.050553322,0.388196766
20.09,-0.33560288,0.050531387,-0.00806123
20.1,-0.333024263,0.05062294,-0.007063746
20.11,-0.322946072,0.045960426,-0.048036814
20.12,-0.077446088,0.067604065,0.110088989
20.13,-0.018954143,0.00789547,0.269029349
20.14,-0.074577555,-0.030281067,0.619165897
20.15,-0.052722573,-0.039639473,0.152360529
20.16,-0.050924301,-0.039343834,0.159714967
20.17,-0.056582958,-0.168292999,-0.183371216
20.18,-0.015392214,-0.108212471,-0.201043814
20.19,-0.015661389,-0.10804081,-0.196187049
20.2,0.010575965,-0.021742821,0.122797102
20.21,-0.114020437,-0.043213844,0.309240371
20.22,-0.232992098,0.021522522,0.299227119
20.23,-0.310341418,-0.021450996,0.153245837
20.24,-0.306649178,-0.009366035,0.083426893
20.25,-0.268127739,-0.097919464,0.041295022
20.26,0.046539992,-0.081203461,0.217855841
20.27,0.042097047,-0.08141613,0.215206772
20.28,0.256811798,-0.01940918,0.310009897
20.29,-0.02523461,0.025887489,0.218464911
20.3,-0.082098886,0.097623825,0.12870799
20.31,-0.138152123,0.049715996,0.016102284
20.32,-0.028297797,0.009075165,-0.144925952
20.33,-0.050394848,-0.014779091,-0.089592606
20.34,-0.050323531,-0.014730453,-0.088124871
20.35,-0.174299181,0.026045799,0.126181677
20.36,-0.173458338,0.026091576,0.126955316
20.37,-0.151444003,0.018913269,0.139300197
20.38,-0.010394856,-0.017024994,0.366200417
20.39,0.144275576,-0.088903427,0.427350611
20.4,-0.025469154,0.004400253,0.326111257
20.41,-0.026110962,0.004374504,0.325999618
20.42,-0.108102888,0.054688454,0.125982091
20.43,-0.10962908,0.054663658,0.12640731
20.44,0.152866796,-0.144219399,0.442408711
20.45,0.108672194,-0.149205208,0.168222249
20.46,0.105965562,-0.149345398,0.166148663
20.47,0.140258223,-0.108694077,0.133885622
20.48,0.222335845,-0.05609417,0.054059446
20.49,0.047774792,-0.027393341,-0.010179162
20.5,-0.023262516,0.025276184,0.22494258
20.51,-0.060029954,0.025079727,0.334082961
20.52,-0.064490154,0.024805069,0.328368694
20.53,0.11011114,0.067631722,0.600629091
20.54,-0.057665646,0.024215698,0.59444654
20.55,-0.211299852,0.024059296,0.239362896
20.56,-0.211774185,0.024139404,0.241820067
20.57,-0.211084157,0.024359703,-0.077878028
20.58,-0.181817755,-0.198095322,-0.270300686
20.59,0.026211485,-0.262570381,-0.140898347
20.6,0.153449208,-0.166768074,0.140817165
20.61,0.076535836,-0.104589462,0.370045453
20.62,-0.18620567,0.024625778,0.729765534
20.63,-0.119504407,0.043690681,0.739775002
20.64,0.075689226,0.024418831,0.358708233
20.65,0.090368256,-0.025892258,-0.084176213
20.66,-0.028999373,-0.052147865,-0.495247185
20.67,-0.124042869,-0.054405212,-0.358618587
20.68,-0.065616325,-0.028043747,-0.092166126
20.69,-0.12457265,0.012612343,0.020093441
20.7,-0.137568116,-0.040078163,0.211323008
20.71,-0.138289124,-0.040122986,0.210597739
20.72,-0.32671231,-0.040143967,0.262159288
20.73,-0.325550288,-0.040185928,0.260744184
20.74,-0.366525322,-0.054610252,0.388312429
20.75,-0.10294871,-0.092988014,0.378127307
20.76,0.063796908,-0.033157349,0.026530415
20.77,0.061220333,-0.033163071,0.027308583
20.78,-0.048615202,0.017079353,-0.104208201
20.79,-0.050653145,0.017050743,-0.104680628
20.8,-0.017435998,0.02408886,0.206371576
20.81,0.101549208,0.02394104,0.253237903
20.82,0.098422021,0.02383709,0.251784921
20.83,0.022471935,-0.028860092,0.294807047
20.84,-0.360612035,0.02383709,0.446111381
20.85,-0.188786045,0.023899078,0.277284116
20.86,-0.188456968,0.024011612,0.280307561
20.87,-0.121544987,0.017000198,-0.365957081
20.88,-0.160554498,0.04351902,-0.300926358
20.89,-0.074451208,0.122709274,0.252426297
20.9,0.066549726,0.019879341,0.466686606
20.91,0.066449769,0.020027161,0.470712364
20.92,-0.037109688,0.060954094,0.260485679
20.93,-0.42610842,0.03247261,0.004598141
20.94,-0.421282619,0.032736778,0.009395003
20.95,-0.198941961,0.054489136,0.063588291
20.96,-0.074264094,0.026008606,0.061818451
20.97,0.130111724,0.040576935,0.229431123
20.98,0.129173577,0.040651321,0.231422752
20.99,-0.003641427,0.021469116,0.676625729
21,0.096613586,-0.019332886,0.5041641
21.01,0.051156543,-0.079245567,0.294331342
21.02,-0.035400108,-0.004906654,-0.081694543
21.03,-0.166207641,-0.014187813,-0.176283479
21.04,-0.293505609,0.034122467,-0.045439929
21.05,-0.429894954,0.027396202,0.262506872
21.06,-0.187739298,-0.029689789,0.288688183
21.07,-0.038679421,-0.041219711,0.050925076
21.08,-0.102827802,-0.007146835,-0.050736636
21.09,-0.099058509,-0.006543159,-0.039037287
21.1,-0.131181419,0.0060606,-0.135124594
21.11,-0.055860937,0.030595779,-0.293833762
21.12,-0.053623676,0.031229019,-0.28225264
21.13,-0.052103624,0.036496162,-0.273133934
21.14,0.008767083,0.031991005,0.088667244
21.15,-0.207288221,-0.08754158,0.591765285
21.16,-0.204854563,-0.087415695,0.593334138
21.17,-0.264565945,-0.254877091,0.520703614
21.18,0.014329612,-0.22120285,0.037288725
21.19,-0.223702014,-0.101286888,-0.040827274
21.2,-0.3216286,0.032958984,-0.093590915
21.21,-0.251277864,0.093035698,-0.066968024
21.22,-0.033050835,0.095643044,-0.064115167
21.23,-0.0315115,0.095873833,-0.060324073
21.24,0.033859611,0.033882141,0.097217768
21.25,-0.054832965,0.094046593,0.142600119
21.26,-0.140077978,0.036929131,0.204941005
21.27,-0.113067076,0.034827232,0.496739984
21.28,0.083356023,-0.041561127,0.566495538
21.29,0.158764839,-0.098835945,0.444859147
21.3,0.087991953,-0.120080948,0.181739569
21.31,-0.018563241,-0.160431862,-0.071203291
21.32,-0.010130137,-0.212779999,-0.259799004
21.33,-0.148337558,-0.212519646,-0.327572167
21.34,-0.506776452,-0.056759834,-0.347233653
21.35,-0.508653283,0.053459167,-0.208043456
21.36,-0.252608538,0.101439476,0.194981307
21.37,-0.251997411,0.101532936,0.196026713
21.38,0.204039782,-0.03250885,0.570772052
21.39,0.202025816,-0.032544136,0.5710392
21.4,0.064021885,-0.109380722,0.673338831
21.41,0.197678357,-0.066537857,0.312257826
21.42,0.240343362,-0.076231003,-0.240011632
21.43,0.162628532,-0.102414131,-0.256163418
21.44,0.161055863,-0.10225296,-0.25279808
21.45,0.001177296,-0.063985825,0.149251133
21.46,-0.011524066,-0.033171654,0.523432851
21.47,-0.043893442,-0.074213982,0.502313972
21.48,-0.051402643,-0.033771515,0.283547312
21.49,-0.146343842,-0.017086983,-0.024054646
21.5,-0.276323229,0.037988663,0.098814964
21.51,-0.093833163,0.035685539,0.301078826
21.52,-0.093563408,0.03577137,0.302485913
21.53,0.14432174,0.007182121,0.5584988
21.54,0.255250126,-0.045320511,0.237890601
21.55,0.255221486,-0.045018196,0.242964983
21.56,0.032374755,-0.020703316,-0.143336058
21.57,-0.053436548,-0.058681488,0.113595605
21.58,-0.053405568,-0.058493614,0.1164006
21.59,-0.063704863,-0.008066177,0.052303553
21.6,-0.226967096,0.037534714,0.003950477
21.61,-0.288791239,0.011325836,-0.032682955
21.62,-0.228483111,0.006576538,0.236240059
21.63,-0.043821752,-0.029373169,0.374224365
21.64,-0.011149466,-0.017499924,0.236524224
21.65,-0.056490168,-0.065276146,0.202503383
21.66,-0.132174358,-0.086699486,0.23520276
21.67,-0.030036613,-0.048329353,0.075279415
21.68,0.035163507,-0.005135536,-0.129223883
21.69,0.032967389,0.05488205,-0.055016637
21.7,-0.041032404,0.095609665,0.273423493
21.71,0.012456164,0.042925835,0.376017064
21.72,-0.104034752,0.038183212,0.278339475
21.73,-0.133276418,0.019221306,0.15359804
21.74,-0.130991519,0.019468308,0.156827658
21.75,-0.085793495,-0.030623436,0.264409781
21.76,-0.005563408,-0.00657177,0.349412948
21.77,0.152606309,-0.02564621,0.348515451
21.78,0.17589353,-0.061445236,0.283435822
21.79,0.012396619,-0.142789841,0.22485745
21.8,-0.130909458,-0.22892189,0.000579476
21.81,-0.129997596,-0.228809357,0.002038717
21.82,-0.326799035,-0.171174049,-0.273745298
21.83,-0.324673712,-0.170987129,-0.271714687
21.84,-0.289755404,-0.127784729,-0.124331176
21.85,-0.179059953,-0.125421524,0.464099407
21.86,-0.034943148,-0.096877098,0.709938407
21.87,0.065650865,-0.12592411,0.563541293
21.88,0.231230214,0.000757217,0.169770449
21.89,0.271543592,0.034194946,-0.027800024
21.9,0.270479471,0.034191132,-0.02735579
21.91,-0.170637876,0.084480286,0.269891322
21.92,-0.171064287,0.084294319,0.267106175
21.93,-0.262877911,0.03843689,0.393194795
21.94,-0.27577579,-0.028842926,0.109428376
21.95,-0.414537907,-0.014554977,0.069809437
21.96,-0.448500305,0.023805618,0.105976522
21.97,-0.28265214,-0.090948105,-0.031463265
21.98,-0.280198336,-0.090621948,-0.027138233
21.99,0.090077445,-0.207536697,-0.114273012
22,0.090209261,-0.207125664,-0.10810411
22.01,0.109557524,-0.130208969,0.478471875
22.02,-0.156678468,-0.02449894,0.361550152
22.03,-0.100047201,-0.076664925,0.039637208
22.04,-0.154885009,-0.10007,-0.108693898
22.05,-0.076736182,-0.006310463,-0.144284368
22.06,-0.040504083,0.041802406,0.040954113
22.07,-0.040470183,0.041833878,0.041508853
22.08,-0.152371556,0.118434906,0.069766402
22.09,-0.270917416,0.065879822,-0.04379946
22.1,-0.376347721,0.042154312,-0.067957401
22.11,-0.373487055,0.042356491,-0.065834582
22.12,-0.017124534,-0.029251099,0.054002285
22.13,-0.015619367,-0.029107094,0.055550396
22.14,-0.030743808,0.040398598,0.443658173
22.15,0.108762413,0.071508408,0.47914809
22.16,0.125156164,0.042746544,0.510121822
22.17,0.047956884,0.035533905,0.308853984
22.18,-0.057708919,-0.012300491,0.087049186
22.19,-0.069829613,-0.139083862,9.16719E-05
22.2,-0.082458884,-0.208436966,-0.055985034
22.21,-0.084331393,-0.208496094,-0.056139767
22.22,0.082584918,-0.117678642,0.055336237
22.23,-0.064341694,0.044924736,0.458052605
22.24,0.081432968,0.04462719,0.52641201
22.25,0.008811295,0.037197113,0.337065607
22.26,-0.069761902,0.041874886,0.223803043
22.27,-0.150094271,-0.037201881,0.115352213
22.28,-0.150910839,-0.037248611,0.114976823
22.29,-0.264021337,0.001101494,-0.212109268
22.3,-0.263556659,0.001247406,-0.209990501
22.31,-0.211102054,0.080420494,-0.126188636
22.32,0.07833609,0.001469612,0.610675216
22.33,0.049359366,-0.029694557,0.711580575
22.34,0.040858731,-0.091990471,0.464724541
22.35,0.086352587,-0.139863014,0.017296076
22.36,-0.006294355,-0.137243271,-0.444332004
22.37,-0.058289766,-0.031524658,-0.393586695
22.38,-0.181304082,0.057077408,0.327798605
22.39,-0.144675612,0.090270996,0.864639759
22.4,-0.029692188,0.041836739,0.75447458
22.41,-0.055419177,0.038949966,0.335708916
22.42,-0.055988789,0.03866291,0.331520796
22.43,-0.127230763,0.038667679,-0.075431407
22.44,-0.15467903,0.010070801,0.131919444
22.45,-0.153492734,0.010185242,0.133128703
22.46,0.068897963,-0.061526299,0.203741759
22.47,0.101229996,-0.082828522,0.18770349
22.48,0.102526173,-0.082530975,0.191770852
22.49,-0.008622065,-0.029621124,0.247460067
22.5,-0.004765615,-0.036538124,0.236506254
22.51,0.01774469,-0.041038513,0.139711022
22.52,0.018446699,-0.040745735,0.143833339
22.53,-0.298587561,-0.023666382,0.138663113
22.54,-0.155212581,-0.066484451,-0.114576817
22.55,-0.155276582,-0.066269875,-0.111335337
22.56,-0.103240237,-0.070916176,0.027250052
22.57,-0.103802249,-0.070853233,0.028449893
22.58,-0.087515786,-0.034897804,0.223183006
22.59,-0.193129271,0.001113892,0.224528879
22.6,-0.080000088,-0.041953087,0.207894057
22.61,-0.080705911,-0.042013168,0.207479328
22.62,-0.041163221,0.003426552,0.123394728
22.63,-0.135725319,0.029652596,0.284854621
22.64,-0.014735505,0.036623001,0.217612147
22.65,-0.016472995,0.036445618,0.215659678
22.66,-0.027899519,-0.009202003,0.111235082
22.67,0.011160925,0.002597809,0.071016788
22.68,-0.021553367,0.043113709,0.064074695
22.69,-0.023158759,0.042949677,0.062124729
22.7,0.037497222,0.047513962,0.507092416
22.71,0.035513639,0.047245026,0.503888369
22.72,-0.023532406,0.042314529,0.281949282
22.73,-0.024662584,0.042154312,0.280029297
22.74,-0.092527628,0.010886192,0.163264155
22.75,-0.13908881,-0.056292534,0.154496431
22.76,-0.211698562,-0.068342209,0.009913504
22.77,-0.211843818,-0.068324089,0.010398209
22.78,-0.245002747,0.022802353,-0.102840364
22.79,-0.079774395,-0.036978722,0.176292658
22.8,0.036328688,-0.132777214,0.434792787
22.81,0.048605263,-0.154489517,0.385129333
22.82,0.051455542,-0.164225578,0.615639269
22.83,0.107370906,-0.123829842,0.606841922
22.84,0.027440667,-0.064191818,-0.088240743
22.85,-0.107426658,-0.011508942,-0.377644241
22.86,-0.070805207,0.057893753,-0.138006866
22.87,-0.088993326,0.059913635,0.317274869
22.88,-0.093622744,0.059288025,0.309153259
22.89,0.012168869,0.039430618,0.424435318
22.9,-0.084437624,0.036586761,0.207589775
22.91,-0.238882631,0.029168129,0.00085777
22.92,-0.199839503,0.02436924,-0.071327627
22.93,-0.198622242,0.024511337,-0.069571972
22.94,0.03261669,0.039021492,0.253142983
22.95,0.162654251,-0.003972054,0.48674953
22.96,0.165410921,0.020092011,0.474151373
22.97,-0.00683102,0.027478218,0.141965658
22.98,-0.161603436,0.027830124,0.075216532
22.99,-0.160079584,0.028183937,0.080256701
23,-0.01361236,-0.079222679,-0.024990916
23.01,0.012285396,-0.045458794,0.024342358
23.02,-0.024485335,0.024113655,0.117776752
23.03,-0.024984524,0.024183273,0.118885875
23.04,-0.135417208,0.040999413,0.234642386
23.05,-0.216810852,0.031495094,0.211825758
23.06,-0.215923548,0.031588554,0.213016123
23.07,-0.202726752,-0.085635185,0.132714093
23.08,-0.164816484,-0.119092941,0.051600873
23.09,-0.169882447,-0.066397667,0.161227346
23.1,-0.072249755,-0.049744606,0.235852838
23.11,-0.071034253,-0.049891472,0.233359814
23.12,-0.163492397,0.024240494,0.20760712
23.13,-0.161466733,0.024195671,0.206444651
23.14,-0.078522056,0.005002022,-0.017237067
23.15,-0.111319423,-0.016533852,-0.024644196
23.16,-0.111049369,-0.016594887,-0.025535285
23.17,0.093922153,-0.10286808,-0.047973692
23.18,0.194544599,-0.045502663,0.080479085
23.19,0.19222872,-0.045655251,0.078951001
23.2,-0.048747748,0.018828392,0.460067302
23.21,-0.049419358,0.018658638,0.457742363
23.22,-0.041036144,-0.007803917,0.173557162
23.23,-0.116717041,0.040044785,0.022646844
23.24,-0.042833477,0.013608933,-0.05456543
23.25,-0.046045125,0.013550758,-0.054508448
23.26,-0.090101793,0.106877327,-0.11391449
23.27,-0.102431402,0.073339462,0.140259862
23.28,0.038488641,0.018168449,0.589541793
23.29,0.02516973,-0.226336479,0.481138468
23.3,0.024443537,-0.164156914,0.241320789
23.31,0.048667803,-0.133044243,0.138725758
23.32,0.047618598,-0.133059502,0.138837099
23.33,0.090629324,-0.025251389,0.139582217
23.34,-0.040862039,0.027535439,-0.062233984
23.35,-0.047218561,0.039325714,0.220579863
23.36,0.028820798,0.034136772,0.387439251
23.37,-0.053802624,0.03840065,0.511999726
23.38,-0.245592371,0.045033455,0.496814668
23.39,-0.248639539,0.037391663,0.264640093
23.4,-0.149936244,0.034753799,-0.148836017
23.41,-0.149230138,0.034834862,-0.147803366
23.42,-0.095474139,0.015825272,-0.004458725
23.43,-0.077278614,0.037486076,0.339123428
23.44,-0.075806499,0.037531853,0.339607596
23.45,0.188204944,0.042358398,0.42139709
23.46,0.140211895,0.037677765,0.155027717
23.47,0.140776247,0.03791523,0.158620745
23.48,0.016576752,-0.110403061,0.201484561
23.49,0.016563594,-0.110425949,0.201048076
23.5,-0.141599417,-0.103419304,0.332417756
23.51,-0.007979468,-0.108472824,0.253916115
23.52,-0.010029674,-0.108766556,0.249846071
23.53,-0.102784097,-0.05873394,0.217417955
23.54,-0.282867611,-0.025471687,0.345256209
23.55,-0.224911109,-0.061621666,0.228723198
23.56,-0.224330396,-0.061760902,0.226240307
23.57,-0.066162691,-0.248570442,-0.054710686
23.58,-0.039746463,-0.234240532,-0.010030031
23.59,-0.099235088,-0.114637375,0.177414388
23.6,-0.09844628,-0.114741325,0.175422937
23.61,-0.131233126,-0.023832321,0.192802817
23.62,-0.130346701,-0.02395916,0.190656453
23.63,-0.109933734,-0.129454613,0.027305603
23.64,-0.145952195,-0.175104141,-0.111654341
23.65,-0.182232529,-0.10101223,0.027252674
23.66,-0.182641402,-0.10121727,0.024039567
23.67,-0.022527188,0.035116196,0.165337801
23.68,0.019507095,0.032598495,0.067746878
23.69,-0.119939223,0.034976959,0.027033865
23.7,-0.119565427,0.035004616,0.027457297
23.71,-0.081617966,-0.053589821,-0.085101664
23.72,-0.009036496,-0.101541519,-0.21501708
23.73,-0.011959985,-0.101675034,-0.216556132
23.74,-0.062759608,0.070510864,0.000908434
23.75,-0.313967854,0.118232727,0.02506876
23.76,-0.230146006,0.063220024,0.212702692
23.77,-0.013298675,-0.04927063,0.304786235
23.78,-0.015594676,-0.049241066,0.305729061
23.79,-0.113508821,-0.166434288,-0.390525341
23.8,-0.114062652,-0.166417122,-0.390199661
23.81,-0.180836693,-0.12575531,-0.225556254
23.82,-0.199772567,-0.039533615,-0.313732803
23.83,-0.003213197,0.034810066,-0.347738922
23.84,-0.004721552,0.03487587,-0.346281111
23.85,-0.188424513,0.16400528,0.262262702
23.86,-0.189726248,0.16367054,0.256656826
23.87,-0.165104792,0.036482811,-0.099711061
23.88,-0.166396871,0.036377907,-0.101440668
23.89,-0.269267112,-0.061774254,-0.419537783
23.9,-0.267665505,-0.061650276,-0.418027699
23.91,-0.225709349,-0.085503578,-0.225225508
23.92,0.193208963,-0.135738373,0.247319758
23.93,0.144524723,-0.183619499,0.34570992
23.94,0.144563586,-0.183643341,0.34558028
23.95,-0.083928064,-0.166786194,0.147917569
23.96,-0.111514285,-0.23611927,-0.219264507
23.97,-0.014406413,-0.293600082,-0.482841551
23.98,0.022054598,-0.262643814,-0.338873804
23.99,0.005586416,-0.133605003,-0.17291075
24,-0.008682996,-0.02622509,-0.085300207
24.01,-0.13332668,0.033239365,-0.024692833
24.02,-0.223601759,0.035263062,-0.042969465
24.03,-0.225121811,0.034998894,-0.047349751
24.04,-0.101530805,0.001302719,-0.196388304
24.05,-0.110029668,-0.120896339,-0.291270733
24.06,-0.196700826,-0.19519043,-0.256504417
24.07,-0.299187899,-0.214443207,-0.196194947
24.08,-0.087005585,-0.20263958,-0.190127611
24.09,-0.11916925,-0.246015549,-0.242906094
24.1,-0.170022726,-0.200782776,-0.195085704
24.11,-0.217953235,-0.210669518,-0.253508329
24.12,-0.2483356,-0.215736389,-0.244758904
24.13,-0.258882225,-0.168113709,-0.209780008
24.14,-0.197147548,-0.185192108,-0.233401924
24.15,-0.195426703,-0.18548584,-0.239662886
24.16,-0.259938955,-0.168942452,-0.206626743
24.17,-0.266765565,-0.109276772,-0.235031039
24.18,-0.113740742,-0.102232933,-0.49712199
24.19,-0.178446442,-0.037628174,-0.616161764
24.2,-0.306293279,0.003125191,-0.602213621
24.21,-0.392172277,-0.013521194,-0.455206126
24.22,-0.500881672,-0.056437492,-0.429801315
24.23,-0.492866397,-0.056141853,-0.426345319
24.24,-0.341596842,-0.134631157,-0.529656053
24.25,-0.27428481,-0.280060768,-0.482669711
24.26,-0.264890075,-0.279455185,-0.474474579
24.27,-0.273011923,-0.346055985,-0.282584369
24.28,-0.419089556,-0.479733467,-0.247873485
24.29,-0.337393135,-0.390789032,-0.413050711
24.3,-0.327034235,-0.39034462,-0.409172535
24.31,-0.277186513,-0.353776932,-0.919322074
24.32,-0.167731494,-0.443922997,-0.847034752
24.33,-0.157884657,-0.443228722,-0.839372516
24.34,-0.440234274,-0.569867134,-0.032725453
24.35,-0.603711009,-0.63462162,-0.073058367
24.36,-0.674321413,-0.634752274,-0.311429143
24.37,-0.576874375,-0.613044739,-0.498553336
24.38,-0.625851095,-0.665322304,-0.548644245
24.39,-0.616347671,-0.726893425,-0.481476069
24.4,-0.446754932,-0.821907044,-0.227961659
24.41,-0.446247548,-0.886013985,0.035770983
24.42,-0.427901477,-0.885809898,0.024966687
24.43,-0.238334835,-0.637050629,-0.081136227
24.44,-0.194838643,-0.482895851,-0.088359058
24.45,-0.188412458,-0.446136475,-0.096377313
24.46,-0.149063796,-0.385501862,-0.084152102
24.47,-0.151433468,-0.387131691,-0.126075625
24.48,-0.295284838,-0.398281097,-0.214750499
24.49,-0.437464714,-0.368699074,-0.161800712
24.5,-0.391254067,-0.365299225,-0.146851718
24.51,-0.408683389,-0.519684792,0.061322123
24.52,-0.268322945,-0.522886276,0.058831397
24.53,-0.27984494,-0.631083489,-0.167778686
24.54,-0.124548584,-0.592826843,-0.256478846
24.55,-0.136521339,-0.592488289,-0.329315543
24.56,0.254059881,-0.605989456,-0.406918794
24.57,0.268396378,-0.690525055,-0.399487495
24.58,0.213108808,-0.826687813,-0.492345631
24.59,0.234275058,-1.064464569,-0.63892597
24.6,0.284039289,-1.309973717,-0.4529863
24.61,0.104916267,-1.974625111,0.224101245
24.62,0.031522244,-2.955029488,0.357527256
24.63,-0.030339032,-3.800914764,0.019800544
24.64,-0.104120746,-4.63668251,-0.313003004
24.65,-0.156319127,-4.61677742,-0.467001617
24.66,-0.247717753,-5.159872532,-0.646037698
24.67,0.029097065,-5.41174221,-1.331461787
24.68,0.175327569,-4.77806139,-1.02103579
24.69,0.322578311,-3.832859516,-1.056221843
24.7,0.435846657,-2.256155968,-1.28514123
24.71,0.50228703,-0.455823898,-1.57717967
24.72,0.416401207,-0.407074928,-1.748330116
24.73,0.450293183,2.245810509,-0.979802728
24.74,0.365171909,2.301571846,-1.146805406
24.75,-0.022902727,2.729995728,-0.904584408
24.76,0.486357212,2.368641853,0.127788782
24.77,0.789418221,2.08081913,-0.187083006
24.78,0.719852567,2.131113052,-0.303038359
24.79,1.206998706,2.903896332,-0.865043163
24.8,1.756430387,4.018137932,-0.503286362
24.81,1.901220441,5.324172974,-0.280202389
24.82,1.86641562,5.347901344,-0.326557875
24.83,0.217966795,7.915440559,-0.099879265
24.84,0.223592877,7.91928196,-0.110817432
24.85,0.497564197,8.766611099,0.688399077
24.86,0.493040681,8.303390503,0.876469374
24.87,0.539918661,7.054168701,0.401628494
24.88,0.90026176,5.526632309,0.219391584
24.89,1.084189892,4.072522163,0.085279465
24.9,1.006246448,2.627693176,-0.518278122
24.91,0.172263026,1.456314087,-1.551319122
24.92,-1.228063345,0.67457962,-1.846945286
24.93,-1.167826176,0.659579277,-1.825381517
24.94,-0.479664445,-0.375925064,0.736045599
24.95,-0.410937786,-0.394842148,0.767499924
24.96,-2.178052425,-0.722658157,1.485586405
24.97,-2.543554068,-2.275379658,1.243040562
24.98,-2.475610495,-2.302401066,1.300232887
24.99,-2.302702904,-5.958703041,1.055904388
25,-1.855780482,-7.366286755,0.584055662
25.01,-1.31604743,-7.645806313,1.670370579
25.02,-0.169824719,-6.960834026,2.953273773
25.03,-0.156582981,-6.940916538,2.902528524
25.04,0.560929835,-2.597344875,2.923021317
25.05,0.525054693,0.378278732,2.309653759
25.06,-0.347866386,3.058585167,1.089174032
25.07,-0.341255724,3.082237244,1.034090757
25.08,-2.841333151,6.040538788,0.496879339
25.09,-5.626683712,8.151309013,1.190335751
25.1,-5.835958958,9.917852402,4.483822823
25.11,-4.191931725,9.382019043,5.09172678
25.12,-2.058789253,8.50295639,4.802443981
25.13,0.781549573,7.635032654,2.651786327
25.14,2.000625134,7.195215225,1.525653362
25.15,2.0534904,7.19011879,1.539278507
25.16,1.754000068,8.359452248,-0.273840904
25.17,1.477078438,7.671057701,-2.475589275
25.18,-0.768538833,8.313734055,-1.694783926
25.19,-3.028301716,8.605837822,0.122453213
25.2,-3.864934444,8.027439117,2.092860222
25.21,-3.431790829,5.42466259,3.504738331
25.22,-3.451196194,5.406484604,3.543320656
25.23,-0.559769273,1.688008308,3.842099667
25.24,2.06972909,-1.855120659,2.442584276
25.25,1.558983326,-4.671746254,-0.089269876
25.26,0.085776389,-9.078907967,-4.452293396
25.27,0.583720982,-11.96568584,-4.764682293
25.28,0.523845434,-11.99796772,-4.678390503
25.29,1.622811198,-13.19018936,-4.525025845
25.3,1.132272363,-13.3683548,-3.478928089
25.31,0.582859814,-13.2793951,-2.927153587
25.32,0.021297857,-12.90685081,-1.752901077
25.33,-0.450000912,-11.73081017,-1.65675962
25.34,-0.3925758,-10.65416718,-3.22282052
25.35,0.086895466,-9.684821129,-4.868783474
25.36,-0.007418036,-9.663331985,-4.91347599
25.37,3.153558016,-7.144458771,-5.160294056
25.38,4.882692814,-2.893825531,-1.978558183
25.39,6.617985725,0.529830933,1.314179659
25.4,10.16104507,3.280343056,3.605762959
25.41,11.34439373,6.856399536,5.097093582
25.42,8.287779808,9.747681618,5.68446064
25.43,4.786203861,12.54654312,6.621184349
25.44,0.7372154,14.77268696,5.429381371
25.45,0.756679773,14.7592535,5.454849243
25.46,-1.366580486,15.54641247,4.462938786
25.47,1.103493452,10.86813736,1.369435549
25.48,0.848045349,8.118803978,0.179148436
25.49,0.241711378,6.386714935,1.069921017
25.5,-0.232073546,5.831122398,3.278757811
25.51,-0.17348361,5.857804298,3.20076704
25.52,-0.106463552,3.046626091,8.576032639
25.53,0.059471965,0.950211525,8.463779449
25.54,1.091034651,-0.109107018,6.581154823
25.55,-0.027970672,-1.513234615,4.061628819
25.56,-2.619035721,-3.195107937,0.857823372
25.57,-3.387253523,-5.539822578,-1.492001534
25.58,-3.369817257,-5.56180191,-1.442735434
25.59,-4.160790443,-8.992735863,-3.69846797
25.6,-4.685409546,-10.02367306,-3.751646757
25.61,-4.612849236,-10.04736423,-3.707397699
25.62,-4.523525715,-11.7830658,-3.551251411
25.63,-5.535787582,-11.94147301,-2.711987495
25.64,-5.451817989,-11.97235298,-2.640755653
25.65,-5.90484333,-12.89723015,-1.663556576
25.66,-3.362528801,-13.63872337,-2.121908665
25.67,-3.358764887,-13.63764191,-2.125305176
25.68,-3.006742477,-13.76065636,-2.622278214
25.69,-0.439442545,-10.52801228,-3.897548199
25.7,0.797748685,-7.255218983,-2.907893658
25.71,0.790625453,-7.244339466,-2.936517715
25.72,5.846762657,2.337439537,2.178672552
25.73,5.844971657,2.348702431,2.148940563
25.74,3.527902365,11.55936623,7.211039543
25.75,3.509554148,11.5886097,7.138419151
25.76,-0.953961968,16.45651627,7.802595139
25.77,-3.887265682,20.19940948,14.27029896
25.78,-3.853586912,20.19186783,14.28567886
25.79,-4.992708683,17.60501671,5.1673522
25.8,-6.074584484,15.91299915,-2.675369978
25.81,-4.841877937,13.28192711,-4.794113159
25.82,-2.003540277,9.53187561,-2.747331381
25.83,0.048157156,6.472336769,0.454740286
25.84,0.015434146,6.471699715,0.45968318
25.85,1.907936573,1.483413696,3.115449429
25.86,1.063404679,0.552960396,4.666604519
25.87,1.067368984,0.537329674,4.71191597
25.88,0.437247872,-1.271083832,4.875082016
25.89,1.642878175,-4.994671822,1.226031542
25.9,1.731299877,-7.537513733,-1.278423905
25.91,1.084968328,-9.442670822,-2.924319267
25.92,0.033362269,-11.04458714,-4.670095444
25.93,-0.367652953,-12.07721519,-5.590232849
25.94,-0.051172853,-13.01351357,-5.53075695
25.95,0.968347907,-13.66608238,-4.037146568
25.96,1.186894894,-14.08914375,-1.105506301
25.97,1.129531145,-14.07944679,-1.126232028
25.98,0.710199535,-14.0111618,1.852669716
25.99,1.27976048,-13.41863441,-0.992349029
26,0.308204293,-12.47941303,-3.119307756
26.01,0.275009573,-12.47755623,-3.114311695
26.02,-0.120990276,-11.25542355,-5.418940067
26.03,-0.483823031,-6.677200317,-6.015766144
26.04,1.715589166,-1.225041389,-1.964272618
26.05,1.712139606,-1.223391533,-1.969177842
26.06,4.29675436,1.862627029,0.871589422
26.07,6.743268013,9.759823799,0.955857992
26.08,6.64678812,9.765234947,0.977464199
26.09,5.097123146,13.7818594,8.87478447
26.1,3.830054045,13.65873146,8.526071548
26.11,3.86062932,13.65056801,8.541449547
26.12,1.466891646,13.36245537,2.68265605
26.13,1.535234213,13.34862232,2.703983545
26.14,0.79588747,12.56659603,1.270028591
26.15,0.837616205,12.57194138,1.232446432
26.16,1.169188738,12.33984947,1.624545574
26.17,1.04103303,9.290043831,7.079175949
26.18,1.441279054,6.404184341,8.460292816
26.19,-0.761017442,4.524585724,7.216427803
26.2,-0.672419131,4.496362686,7.294633865
26.21,-2.600332737,2.288306236,5.7257514
26.22,-2.051570654,-7.80719614,3.875851631
26.23,-1.971910238,-7.846059322,4.028259754
26.24,-3.110370159,-13.9994278,-1.56273365
26.25,-3.042842865,-14.0190382,-1.478628278
26.26,-4.182464123,-15.91560364,-8.537312508
26.27,-4.648404121,-15.30764771,-6.400935173
26.28,-4.160099983,-14.73022842,-2.381395817
26.29,-3.327927828,-14.38122845,0.430059433
26.3,-3.32147193,-13.94385147,2.029987335
26.31,-4.169229984,-13.28915501,1.94271934
26.32,-4.184253216,-13.27476025,1.872891665
26.33,-4.187402248,-10.60778618,-0.351165295
26.34,-3.635692596,-9.181513786,-1.131237745
26.35,-2.836157799,-7.371965408,-2.008306265
26.36,-2.505581617,-4.320931911,-2.153619051
26.37,-1.182931542,0.234519959,-0.48266089
26.38,2.019315958,3.869152069,2.960776567
26.39,2.465325117,7.016324997,4.58793354
26.4,-0.711098552,12.95215702,4.112170219
26.41,-4.994906902,16.48776054,5.146327019
26.42,-4.660106182,18.19466782,11.30428219
26.43,-3.92695713,17.25041962,15.58647728
26.44,-4.175096989,15.90159798,12.41233826
26.45,-4.147690773,15.90516472,12.39805984
26.46,-4.210404396,13.92889786,-5.807815552
26.47,-3.535061598,12.84366226,-6.10744381
26.48,-1.747402191,10.02126789,-1.799722552
26.49,-1.737668991,10.02292252,-1.806191802
26.5,0.348446667,6.76035881,2.564901352
26.51,1.992853522,2.79795742,5.202886581
26.52,1.471452236,0.698738098,3.670428753
26.53,1.632414103,-1.985125542,2.566495895
26.54,2.34346199,-4.612277985,2.373287678
26.55,2.303241253,-4.62906456,2.446556807
26.56,1.352160692,-9.18847084,-0.089849472
26.57,0.955610633,-11.33672333,-0.930443049
26.58,0.615748704,-13.00742817,-1.988158107
26.59,1.304621339,-14.0730629,-2.123148441
26.6,1.241915107,-14.82861137,-2.182198524
26.61,1.207235813,-14.84019852,-2.115831852
26.62,1.123630285,-15.16367149,-2.180066109
26.63,1.566252351,-15.1676178,-2.491741657
26.64,1.694202304,-14.73792171,-2.13732338
26.65,1.600214124,-14.71584606,-2.22361064
26.66,-0.625582039,-9.791008949,-3.352482796
26.67,-0.687926829,-9.771083832,-3.4246068
26.68,-0.545644522,-1.335115433,-6.224105835
26.69,-0.577986598,-1.327453613,-6.246376038
26.7,9.876620293,7.665109634,3.241914034
26.71,9.693291664,7.690808296,3.212146044
26.72,14.06813622,9.352723122,5.701334
26.73,10.39355278,10.66333199,6.671498775
26.74,1.016849518,12.66158581,5.268270969
26.75,1.034004092,12.6927824,5.870797157
26.76,1.070125818,12.69009686,5.859006882
26.77,1.475869298,10.10981083,3.172177076
26.78,0.496596217,10.19580555,0.090901852
26.79,-0.92301923,11.31569958,-1.812561274
26.8,-1.926385403,12.20178413,-0.228415251
26.81,-1.8430264,12.21051693,-0.298882246
26.82,0.030790687,10.24804401,9.156438828
26.83,0.994956255,8.417551994,11.42441559
26.84,1.302004814,4.706871986,10.80855274
26.85,0.120469511,0.207093239,9.218880653
26.86,0.187509775,0.163815498,9.348945618
26.87,-1.671977997,-4.636043549,5.861219406
26.88,-3.98148632,-9.018408775,1.318000078
26.89,-3.666627407,-15.05463886,-4.509709358
26.9,-3.260206461,-16.19240952,-5.835632324
26.91,-3.188161373,-15.72167397,-7.119134426
26.92,-4.130960464,-14.57637978,-6.282723427
26.93,-5.371007442,-13.7501564,-3.015687704
26.94,-7.006356716,-12.66621494,0.504888415
26.95,-7.399168015,-12.68297863,2.29816246
26.96,-6.270397663,-12.90895748,2.057943344
26.97,-6.318650723,-12.89302731,1.990775585
26.98,-3.750538826,-11.89550304,-1.99598062
26.99,-2.898295403,-9.563789368,-2.143727064
27,-3.051538944,-7.119559288,-0.745524049
27.01,-2.751655102,-3.851791859,0.22809267
27.02,-2.76378417,-3.842283726,0.190455914
27.03,3.157844305,5.618006706,4.371703625
27.04,3.694153309,10.29423809,4.850871086
27.05,0.218752921,16.00370026,4.61594677
27.06,-1.080262661,18.4028492,8.868558884
27.07,-1.767925262,17.88530159,17.05147171
27.08,-3.968188524,15.73363018,18.55535889
27.09,-4.172282696,14.03731537,11.07547188
27.1,-4.145298958,14.01704884,11.14267731
27.11,-4.794883251,13.26115894,-0.079568386
27.12,-4.514661312,10.9720602,-6.226437569
27.13,-3.009290695,8.779666901,-3.105799437
27.14,-1.833783269,6.629654884,0.680435896
27.15,-1.810800791,6.629944801,0.676182509
27.16,-0.746659517,4.154646873,3.069315195
27.17,-0.613422394,2.509839058,4.095866203
27.18,1.478522539,-1.977172375,4.520797253
27.19,2.853973389,-4.266560078,3.955200911
27.2,3.170618296,-6.826345444,2.487303734
27.21,2.656434774,-9.213575363,0.376065731
27.22,2.616954803,-9.224124908,0.432399511
27.23,1.66381216,-12.3893795,-3.391827106
27.24,1.568978071,-14.14920044,-4.802019119
27.25,1.531589627,-14.16187096,-4.727684498
27.26,2.128518105,-14.90113354,-2.425029993
27.27,2.07640028,-14.89792156,-2.423655748
27.28,1.683447599,-14.14470577,0.513763309
27.29,2.023212194,-13.55603027,-0.849695802
27.3,1.414979339,-12.36179352,-3.358546257
27.31,-0.142063856,-9.81952858,-5.598488331
27.32,-1.380839109,-6.18579483,-5.992799759
27.33,-1.338561654,-1.675368786,-5.128240108
27.34,2.214939594,3.140323639,-4.665729046
27.35,8.417265892,6.468705177,2.371844769
27.36,12.27685928,6.479705811,7.763748169
27.37,12.10448647,6.501566887,7.761367321
27.38,6.671193123,9.88804245,10.83871174
27.39,5.455037117,10.83414555,8.670026779
27.4,4.717639923,10.55805588,2.464939594
27.41,4.829697132,10.51420116,2.638731718
27.42,-2.632958412,14.35746384,-5.860733032
27.43,-2.544263124,14.34803295,-5.863182545
27.44,-3.997667551,15.00817394,-1.748113275
27.45,-3.832200766,14.50750351,3.965503216
27.46,-2.64411068,11.30636215,9.649186134
27.47,-3.384409428,8.41639328,13.52533436
27.48,-3.379525661,8.438441277,13.42163181
27.49,-0.820054174,-0.706623077,7.856437683
27.5,-3.086574078,-5.104637623,4.018698215
27.51,-6.241613388,-8.876239777,1.808129549
27.52,-5.94979763,-11.62686443,-0.378013849
27.53,-5.024697304,-13.12718201,-1.964649677
27.54,-4.470318317,-13.51578426,-4.38626194
27.55,-3.882297039,-13.23395729,-5.803322315
27.56,-3.763662577,-13.24151039,-5.781788826
27.57,-3.725644827,-12.00133038,-2.018467903
27.58,-4.027533054,-12.05852699,-0.060740113
27.59,-4.220826626,-12.37620735,1.101240873
27.6,-4.226495743,-12.36530876,1.034876585
27.61,-3.840435743,-12.87652588,-1.680631638
27.62,-3.292110682,-12.629179,-2.400736809
27.63,-2.402808428,-11.49592876,-1.950178146
27.64,-2.471339464,-9.383684158,-0.962786079
27.65,-3.793731928,-6.635808945,-0.263790369
27.66,-3.790173292,-6.631608009,-0.286099315
27.67,-4.292363644,-4.41113472,-0.74985671
27.68,-3.885816097,-1.734569073,-0.656511903
27.69,3.5364995,6.871519089,6.064918518
27.7,4.487585545,10.68771362,5.180921555
27.71,2.669410229,17.98472214,1.965276957
27.72,1.805173039,19.24464417,7.04429245
27.73,-0.165485233,19.19028664,17.83796883
27.74,-4.324211121,19.114048,20.55145836
27.75,-4.31529808,19.13707733,20.4603672
27.76,-7.855749607,17.62730026,9.753904343
27.77,-7.594683647,13.23383141,-11.08272743
27.78,-3.851990461,10.07346439,-8.014698029
27.79,-0.417670935,6.041753769,-2.352223158
27.8,1.443363547,3.401114464,3.025386095
27.81,1.43282783,3.419172287,2.952920675
27.82,1.49932313,0.986440659,6.435851574
27.83,2.040856123,-1.570641994,6.708667755
27.84,2.006021261,-1.574868679,6.730281353
27.85,2.276714325,-6.096819878,2.185405254
27.86,0.668878198,-7.79271841,-0.726704121
27.87,0.076709867,-9.663555145,-3.540405273
27.88,0.547521174,-11.39662361,-4.085082054
27.89,0.807734191,-12.81760788,-3.135734558
27.9,1.133886099,-14.43543816,-3.929857731
27.91,1.108823657,-14.45209122,-3.84188509
27.92,1.380812764,-14.62603188,-4.655899525
27.93,2.227049828,-15.03982162,-2.411588192
27.94,2.150788784,-15.02942276,-2.436497688
27.95,3.03139019,-13.91308022,-0.280388951
27.96,2.938039303,-13.88612747,-0.368289709
27.97,0.513092279,-9.532414436,-3.847826481
27.98,0.050229192,-6.041088581,-5.043753147
27.99,1.237962246,-2.107102394,-4.435692787
28,3.926983833,4.544000626,-0.183320761
28.01,8.833607674,9.025811195,6.250369072
28.02,11.52639961,10.1458559,7.921077251
28.03,9.263025284,12.97696018,6.292315483
28.04,3.197346687,15.77295208,3.333059072
28.05,3.186687469,15.7539587,3.421485662
28.06,-3.135373116,18.80483246,2.579064846
