Time (s),Linear Acceleration x (m/s^2),Linear Acceleration y (m/s^2),Linear Acceleration z (m/s^2)
0,-0.045395672,0.074697495,0.141842127
0.01,-0.025797844,0.074730873,0.476997912
0.02,-0.025478244,0.074660301,0.47494334
0.03,-0.022478104,0.062624931,0.535407007
0.04,-0.074041367,-0.045040131,0.14961198
0.05,-0.071894586,-0.04477787,0.150790364
0.06,-0.066635132,-0.01573658,0.149087548
0.07,-0.107063055,-0.058446884,0.110924631
0.08,-0.072832465,-0.086634636,0.201073408
0.09,0.021642923,-0.10044384,0.004159391
0.1,0.024436355,-0.099836349,0.009600699
0.11,-0.113331437,-0.142241478,-0.113823831
0.12,-0.112412572,-0.057837486,0.034591138
0.13,-0.109489501,-0.057294846,0.038923621
0.14,0.028763533,0.079683304,0.087168515
0.15,0.030577123,0.080202103,0.092659473
0.16,-0.079719424,0.090272903,0.190551668
0.17,-0.032248557,0.105121613,0.22113052
0.18,-0.095059156,0.081613541,0.131863594
0.19,-0.092904627,0.082056999,0.135472417
0.2,-0.227206051,0.068140984,0.091091752
0.21,-0.132116318,-0.012925148,0.155915976
0.22,-0.018979371,-0.089356422,0.040661037
0.23,-0.018887877,-0.089142799,0.043805778
0.24,-0.142358959,-0.045754433,0.125591517
0.25,-0.127920628,-0.076490402,0.068021894
0.26,-0.163505435,-0.071247101,0.094775617
0.27,-0.066934824,-0.008536339,0.190392196
0.28,0.022087395,0.02299881,0.3813169
0.29,-0.001201689,0.054517746,0.421258986
0.3,0.002148688,0.055006027,0.423528731
0.31,-0.039701402,-0.088061333,-0.003850639
0.32,-0.146996498,-0.168784142,-0.122713447
0.33,-0.1443277,-0.168130875,-0.116989851
0.34,-0.0737921,-0.15585804,-0.104844868
0.35,0.074337423,-0.100711823,0.059401989
0.36,0.053985417,-0.029018402,0.416089833
0.37,0.040305793,0.011383057,0.81641376
0.38,0.038581729,0.010866165,0.811517775
0.39,-0.029186308,-0.149748802,0.215723336
0.4,-0.103633523,-0.133072853,-0.08687824
0.41,-0.012723923,-0.192868233,-0.131230235
0.42,0.0286448,-0.135452271,0.081176877
0.43,0.113948524,-0.080693245,0.51725167
0.44,0.135740459,0.016832352,0.638883412
0.45,-0.050130486,-0.010108948,0.544449925
0.46,-0.214991272,0.011021614,0.139173389
0.47,-0.203222632,-0.051272392,-0.091212392
0.48,-0.197717071,-0.065477371,-0.137558281
0.49,-0.175603151,-0.077192307,0.051937163
0.5,-0.012588859,-0.120094299,0.24840793
0.51,0.09382385,-0.158367157,0.380046189
0.52,0.091975629,-0.158381462,0.3824597
0.53,0.032382131,-0.12966156,0.299006611
0.54,-0.026881397,-0.124840736,0.067176878
0.55,-0.033798337,-0.112863541,0.014930606
0.56,-0.081715465,-0.017166138,0.036398947
0.57,-0.083643675,-0.017282486,0.03721261
0.58,-0.23159492,0.111931801,0.007439613
0.59,-0.218349636,0.085707664,-0.070864797
0.6,-0.219433487,0.085923195,-0.066466272
0.61,-0.201167882,0.081398964,-0.04736656
0.62,-0.119170249,-0.021399498,-0.002105832
0.63,-0.002167821,-0.105161667,0.006518364
0.64,-0.005171835,-0.047823906,0.185752809
0.65,-0.008413613,-0.048083305,0.186340809
0.66,0.007820487,-0.002905846,0.252748638
0.67,-0.025747418,0.08054924,0.332716078
0.68,-0.001533508,0.082731247,0.284425527
0.69,-0.003022611,0.082637787,0.285127491
0.7,-0.112111211,0.041982651,0.093580782
0.71,-0.021661043,-0.000921249,0.034463227
0.72,0.053381085,-0.003203392,0.004531205
0.73,0.031591594,0.001595497,0.108293891
0.74,-0.033885837,-0.02731514,0.169678748
0.75,-0.037390769,-0.027550697,0.170765936
0.76,-0.043176651,0.096805573,0.08182174
0.77,-0.045930624,0.096757889,0.084570169
0.78,-0.149098396,0.127913475,-0.045864761
0.79,-0.109134913,-0.003884315,0.540271938
0.8,-0.0179106,-0.181519508,0.537276745
0.81,-0.022591352,-0.182049751,0.535831809
0.82,0.197650075,-0.197034836,0.12391901
0.83,-0.049107254,-0.070642471,-0.344006181
0.84,-0.160611868,0.082393646,-0.110023201
0.85,0.006405473,0.141648293,0.34312436
0.86,-0.005278707,0.18149662,0.545731783
0.87,0.08410728,0.075338364,0.403181911
0.88,-0.038936853,-0.004378319,0.194383264
0.89,-0.201215863,-0.098327637,0.122277439
0.9,-0.192058981,-0.11311245,0.05997318
0.91,-0.195007205,-0.113393784,0.059388101
0.92,-0.066410661,-0.065683365,0.012902558
0.93,0.136121452,0.027541161,0.292225927
0.94,0.132423759,0.027401924,0.294416755
0.95,0.005313098,0.032200813,0.045953989
0.96,-0.090037465,-0.013057709,-0.046968162
0.97,-0.030852616,-0.026979446,-0.004586875
0.98,0.046974361,0.014092445,-0.043996751
0.99,-0.174897611,0.064731598,0.017417133
1,-0.176143825,0.065068245,0.023064196
1.01,-0.099297941,0.086812973,0.061233282
1.02,-0.099197328,0.120330811,0.154651463
1.03,-0.102190554,0.120184898,0.155867279
1.04,0.08577168,0.040984154,0.343795598
1.05,-0.139422298,-0.009426117,0.316108286
1.06,-0.323488593,-0.08357048,0.218473136
1.07,-0.326079965,-0.143202782,-0.010811388
1.08,-0.085058331,-0.224411011,-0.108143687
1.09,-0.048841596,-0.150173187,0.143127739
1.1,-0.048429191,-0.150372505,0.140208602
1.11,-0.097455859,-0.042870522,0.334854633
1.12,-0.096186876,-0.04299736,0.331967086
1.13,-0.085214555,0.00250721,0.167808533
1.14,0.102069378,0.079154968,0.323208988
1.15,-0.038044989,0.079137802,0.345843524
1.16,-0.081801057,0.079255104,0.201790214
1.17,-0.144274533,0.002928734,-0.002651453
1.18,-0.223471999,0.005742073,-0.219970584
1.19,-0.233160198,0.039755821,-0.25441289
1.2,-0.160795867,0.097421646,0.073213339
1.21,0.134765446,-0.075109482,0.724112928
1.22,0.25298202,-0.078125954,0.672397673
1.23,0.248620927,-0.078743935,0.669109762
1.24,-0.023423254,-0.107718468,0.308499605
1.25,-0.1522398,-0.012151718,0.070739329
1.26,-0.150612176,-0.012129784,0.069273353
1.27,-0.115843773,0.079064369,-0.039534688
1.28,-0.115373552,0.079043388,-0.040384531
1.29,-0.117821574,0.083604813,0.59119606
1.3,0.027801454,0.121663094,0.701210082
1.31,0.026962817,0.121436119,0.699195266
1.32,-0.07319808,-0.007927895,0.312396526
1.33,-0.069539368,-0.050889015,-0.041597784
1.34,-0.101073861,-0.060065269,-0.088922858
1.35,-0.16121012,-0.083597183,0.184711814
1.36,-0.199348509,-0.078588486,0.477043062
1.37,-0.079576612,-0.114395142,0.197957575
1.38,-0.090136051,-0.123756409,-0.018716753
1.39,-0.088740647,-0.12339592,-0.015486121
1.4,0.075030982,-0.075171471,-0.01933074
1.41,0.04366678,-0.0486269,0.009741843
1.42,-0.083540022,0.071227074,0.126789451
1.43,-0.084002674,0.071256638,0.127721191
1.44,0.045770764,-0.022283554,0.146862507
1.45,-0.126311839,0.022990227,0.213384867
1.46,-0.213650942,0.070713997,0.119100452
1.47,-0.21522516,0.070561409,0.118885338
1.48,0.003839612,0.012816429,0.080673993
1.49,-0.133109629,-0.049768448,0.402700454
1.5,-0.195851028,-0.037968636,0.288419485
1.51,-0.195376098,-0.038038254,0.286849439
1.52,-0.284907877,-0.083530426,0.118023276
1.53,-0.250172019,-0.052340508,0.050359309
1.54,-0.151438654,-0.064301491,-0.053015351
1.55,-0.107967317,0.017086029,-0.017693341
1.56,-0.071715653,0.079200745,0.260387421
1.57,-0.030655563,0.086249352,0.421006769
1.58,0.003406167,0.043117523,0.151872456
1.59,0.004003227,0.043128967,0.15142411
1.6,-0.156612515,-0.081484795,-0.019813836
1.61,-0.101930261,-0.002667427,-0.256424367
1.62,-0.103297055,-0.002900124,-0.258117735
1.63,-0.009464264,-0.036786079,0.263509274
1.64,0.192100346,-0.00155735,0.728446424
1.65,0.186041355,-0.002497673,0.722581387
1.66,0.249992192,-0.175383568,0.321872413
1.67,0.043004155,0.011054039,0.096427143
1.68,-0.028213799,0.075440407,0.233686447
1.69,-0.01578331,0.005735397,-0.088660836
1.7,-0.018908739,0.005497932,-0.088670194
1.71,-0.121486902,0.074388504,-0.028813839
1.72,0.110553503,0.006258011,0.570104003
1.73,-0.031007767,0.072142601,0.626673102
1.74,-0.096570849,0.071079254,0.460229188
1.75,-0.048143744,0.04397583,0.10210228
1.76,-0.051469266,0.043563843,0.09990567
1.77,-0.108887851,-0.002054214,-0.105334461
1.78,-0.034644604,-0.014177322,0.155922055
1.79,0.046059608,-0.031170845,0.187138856
1.8,0.042917252,-0.033752441,0.091831923
1.81,0.040436804,-0.033854485,0.093133092
1.82,-0.00935477,-0.048267365,0.230925471
1.83,0.096417189,-0.007728577,0.340846986
1.84,0.033537865,0.063828468,0.282563686
1.85,0.030480385,0.063546181,0.281964004
1.86,-0.010821939,0.094447136,0.166731298
1.87,-0.047242641,0.067883492,0.1643067
1.88,-0.052140951,0.058098793,0.15909791
1.89,-0.104378343,0.014856339,0.185302198
1.9,-0.058074057,0.005192757,0.128324747
1.91,-0.093185604,-0.013998985,0.170075476
1.92,-0.221054375,0.002729416,0.132294357
1.93,-0.048838437,-0.021203041,0.216365159
1.94,-0.013699412,-0.033287048,0.29705739
1.95,-0.013934493,-0.033388138,0.295708895
1.96,-0.049722075,-0.028641701,0.239995271
1.97,0.048271179,0.009610176,0.193827748
1.98,0.047202826,0.009552956,0.194262087
1.99,0.038773775,0.052649498,0.202561259
2,-0.010404646,0.047859192,0.242099494
2.01,0.084129691,0.043081284,0.023250103
2.02,-0.006271958,0.00484848,0.018769026
2.03,-0.141618609,-0.081250191,0.007017314
2.04,-0.192675114,-0.009339333,0.01859349
2.05,-0.092327595,-0.011597633,0.015715718
2.06,-0.057620525,-0.057008743,0.12806946
2.07,-0.018533885,0.050690651,0.485988975
2.08,-0.137403786,-0.172106743,0.444963068
2.09,-0.109781027,-0.014167786,0.236560017
2.1,-0.291731596,-0.011716843,0.074442625
2.11,-0.173037469,-0.08332634,0.083292425
2.12,-0.043535233,-0.176470757,-0.215369463
2.13,0.13721925,-0.176259041,-0.273656428
2.14,0.120151699,-0.027892113,0.161275029
2.15,0.004250526,0.088977814,0.431167096
2.16,-0.054039359,0.220054627,0.497804165
2.17,-0.057056069,0.219430924,0.492165864
2.18,0.043304682,0.164018631,0.188384771
2.19,-0.02568692,0.104094505,-0.040779412
2.2,-0.17503649,0.065981865,-0.159297288
2.21,0.099885583,0.004014015,0.115452647
2.22,0.097483337,0.004068375,0.118547082
2.23,0.020562232,0.118973732,0.340969086
2.24,0.019337237,0.119282723,0.346126318
2.25,-0.000130296,0.06948185,0.321673632
2.26,-0.191227555,0.067706108,0.207169056
2.27,-0.23394233,0.068575859,-0.049611866
2.28,-0.318808436,0.069714546,-0.246727288
2.29,-0.309071481,0.05426693,-0.315729559
2.3,-0.304033935,0.055624008,-0.303223133
2.31,-0.291355968,-0.108298302,-0.112578154
2.32,-0.13535136,-0.138288498,-0.194028318
2.33,-0.148174584,-0.096510887,-0.096064985
2.34,-0.103952169,-0.040595055,0.205560863
2.35,0.020083725,-0.09277153,0.324772954
2.36,0.075985432,-0.123552322,0.399796158
2.37,0.076267123,-0.123361588,0.401903957
2.38,0.226883948,-0.163951874,0.266808629
2.39,0.023131907,-0.118415833,0.265140295
2.4,0.041300237,-0.041605949,0.223178446
2.41,0.042493522,-0.041265488,0.226089358
2.42,0.091284335,-0.036017418,0.170647442
2.43,0.091689169,-0.035622597,0.175026119
2.44,0.111038685,0.077232361,0.089822888
2.45,0.110461652,0.077432632,0.092729688
2.46,0.128174126,0.079898834,0.089918554
2.47,-0.026049376,0.079842567,0.181023836
2.48,-0.081527591,0.347997665,0.231519818
2.49,-0.167684794,0.280960083,0.499534249
2.5,-0.16676873,0.280982971,0.499192894
2.51,0.091543198,0.087039948,0.549736261
2.52,-0.16693902,-0.281311989,0.226151943
2.53,-0.163104534,-0.280847549,0.228286624
2.54,-0.27471602,-0.208385468,-0.042149007
2.55,-0.268412709,-0.207587242,-0.038490474
2.56,-0.233701766,-0.141963959,-0.499313772
2.57,-0.230382979,-0.14134407,-0.495259523
2.58,0.123138666,0.083321571,0.410963655
2.59,0.008716404,0.147197723,0.801294982
2.6,0.03642869,0.155926704,0.450310677
2.61,0.035315454,0.155385017,0.444993287
2.62,-0.123177528,-0.067613602,0.398516625
2.63,-0.188723147,-0.137237549,0.332987547
2.64,-0.147312701,-0.175292015,0.105599165
2.65,-0.144003868,-0.174797058,0.108676672
2.66,-0.093130827,-0.09984684,-0.299765885
2.67,-0.09024781,-0.098952293,-0.292219162
2.68,-0.125893951,0.064656258,-0.151456356
2.69,-0.038307667,0.086788177,0.260783672
2.7,-0.03715384,0.087306023,0.26577723
2.71,-0.040743232,0.085487366,0.105831862
2.72,-0.040122032,0.085982323,0.110663474
2.73,-0.18280822,0.091145515,0.360629499
2.74,-0.182163537,0.091340065,0.362056911
2.75,-0.065505445,0.050738335,0.423647523
2.76,-0.120807409,-0.133432388,0.248535097
2.77,-0.120635867,-0.13325882,0.250350595
2.78,-0.115330577,-0.125804901,-0.132631719
2.79,-0.114611447,-0.125511169,-0.130131126
2.8,-0.094436109,-0.005654335,0.062073708
2.81,-0.093859792,-0.005805969,0.060214341
2.82,-0.114940882,0.034729958,0.237450957
2.83,0.00942266,-0.008461952,0.231724858
2.84,0.008810401,-0.008434296,0.232528567
2.85,0.00836587,0.006083488,0.181827307
2.86,-0.076525033,0.087766647,0.135498285
2.87,-0.077227175,0.087994576,0.138499796
2.88,0.036049962,0.088119507,0.186689198
2.89,-0.07817626,0.088232994,-0.076547205
2.9,-0.079259694,0.088337898,-0.074545801
2.91,-0.244606495,0.088330269,-0.098556459
2.92,-0.312854707,0.018749237,-0.228191555
2.93,-0.317212999,0.018390656,-0.228600144
2.94,0.184580684,-0.188512802,0.866263986
2.95,0.329062134,-0.336454392,1.11826992
2.96,0.285115302,-0.295222282,0.797347486
2.97,0.109543443,-0.164526939,0.192260206
2.98,-0.008728623,-0.076327324,-0.185212135
2.99,-0.073681295,-0.047541618,-0.144211471
3,-0.079246283,0.024251938,0.240969241
3.01,-0.008569181,0.076511383,0.387511015
3.02,-0.012646377,0.0759058,0.384043038
3.03,-0.13793385,0.08037281,0.19383508
3.04,-0.147340238,0.080184937,0.293999493
3.05,-0.110190094,0.020295143,0.162713587
3.06,-0.050569177,-0.065659523,0.019588947
3.07,-0.050549626,-0.06522274,0.024363875
3.08,-0.00045222,-0.124773026,0.135532737
3.09,0.142238617,-0.311408043,0.214298189
3.1,0.140223801,-0.311291695,0.216899872
3.11,0.046860754,-0.275324822,0.018270314
3.12,0.003681004,-0.124480248,0.024839938
3.13,-0.096872032,0.059814453,0.057100594
3.14,-0.098178864,0.059705734,0.056813002
3.15,-0.273620904,0.169763565,0.178601921
3.16,-0.011376977,0.076221466,0.16077292
3.17,0.119861901,-0.053275108,0.072094679
3.18,0.116522193,-0.053452492,0.072532535
3.19,-0.046230078,-0.012960434,0.210974872
3.2,0.135773301,-0.02767086,0.333358288
3.21,-0.004691064,0.024736404,0.240670204
3.22,-0.026910007,0.031729698,0.119271934
3.23,-0.027719915,0.031532288,0.117734015
3.24,0.102175415,-0.028557777,0.080641508
3.25,-0.017450809,0.009480476,0.306753814
3.26,-0.011876285,-0.043540955,0.280259013
3.27,-0.013629735,-0.043795586,0.27868253
3.28,-0.05820936,-0.053504944,0.139478564
3.29,0.061836541,0.078048706,0.175367534
3.3,0.059695125,0.077846527,0.174702346
3.31,0.055713654,0.082374573,0.400360465
3.32,-0.170055986,0.051100731,0.054415822
3.33,-0.169483304,0.051208496,0.055318952
3.34,-0.301799655,0.022675514,-0.128093839
3.35,-0.301832259,0.022725105,-0.127637923
3.36,-0.005541742,-0.147504807,0.32915473
3.37,0.007251561,-0.095601082,1.089765549
3.38,0.079143882,-0.132460594,0.882144928
3.39,-0.009904146,-0.133069038,0.281863153
3.4,-0.077771187,-0.154660225,-0.315970719
3.41,-0.035221994,-0.159036636,-0.528068721
3.42,-0.030324757,-0.091669083,-0.141359031
3.43,-0.011904895,0.037110329,0.465567619
3.44,0.024883688,0.093642235,0.786010206
3.45,0.008906305,0.073441505,0.446453631
3.46,-0.125772059,-0.001515388,0.155311585
3.47,-0.134549916,-0.095332146,0.010117829
3.48,-0.05403316,-0.129171372,0.059772849
3.49,0.088045716,-0.117580414,0.145103514
3.5,0.093280494,0.006585121,0.286259353
3.51,0.068122029,0.092475891,0.633110702
3.52,0.093437314,0.075313568,0.569290161
3.53,0.092466414,0.075007439,0.566382766
3.54,-0.042184412,0.065554619,0.094152391
3.55,-0.257176101,0.070659637,0.102279723
3.56,-0.253349781,0.006393433,-0.016407669
3.57,-0.168716788,-0.017105103,-0.275191248
3.58,-0.228489161,-0.007013321,-0.300282776
3.59,-0.238068342,0.065309525,0.040458739
3.6,-0.22385937,0.024812698,0.102846623
3.61,-0.223614156,0.025093079,0.105921209
3.62,-0.320591092,0.044557571,0.142269552
3.63,-0.177956939,-0.012651443,0.084219992
3.64,-0.153600335,-0.067660332,0.034161806
3.65,-0.031592011,-0.034227371,0.090737045
3.66,0.000424027,-0.08010006,0.204946876
3.67,-0.017881095,-0.099655151,0.297187984
3.68,-0.123970866,-0.123889923,0.313466311
3.69,-0.068939507,-0.121706009,0.179325581
3.7,0.052656233,-0.148125649,0.08544445
3.71,0.051239908,-0.148145676,0.086278558
3.72,-0.010540187,0.005057335,0.075218439
3.73,0.04266274,0.062451363,0.176375985
3.74,0.042663634,0.071936607,0.167368829
3.75,-0.124642193,0.071927071,0.032338262
3.76,-0.142290711,0.119943619,-0.13312453
3.77,-0.219991744,0.14409256,-0.381383359
3.78,-0.088276744,0.077249527,-0.116707921
3.79,0.067277014,0.067426682,0.570968568
3.8,0.127163291,-0.000285149,0.680765629
3.81,0.06015861,-0.072755814,0.491431594
3.82,-0.04437089,-0.099621773,0.420273244
3.83,0.036333442,-0.028172493,-0.088052988
3.84,-0.039297342,0.026770592,-0.418224514
3.85,-0.045805275,0.026752472,-0.414234519
3.86,0.217150599,0.064696312,0.529769063
3.87,0.208348304,0.0639534,0.526863933
3.88,0.054544151,0.00565052,0.699208081
3.89,-0.117516279,-0.059594154,0.371505886
3.9,-0.222629786,-0.107793808,0.106030762
3.91,-0.366383016,-0.148423195,0.008585632
3.92,-0.364765644,-0.14812088,0.011172712
3.93,-0.34848249,-0.056812286,0.114316464
3.94,0.047098368,0.005746841,0.306705892
3.95,0.047432393,0.006040573,0.309890986
3.96,-0.01391679,-0.000647545,-0.005870521
3.97,-0.008473933,-0.004833221,-0.068958342
3.98,0.053957284,-0.023400307,0.040570796
3.99,0.094483703,-0.001361847,-0.066370964
4,0.093348593,-0.000954628,-0.061166346
4.01,-0.084490299,0.059214592,0.02633208
4.02,-0.21289438,0.090501785,0.280512095
4.03,-0.021747589,0.071629524,0.083983898
4.04,-0.186676621,0.069635391,0.106282175
4.05,-0.17085588,-0.068828583,-0.025128961
4.06,-0.061853111,-0.092334747,-0.170759022
4.07,-0.063629329,-0.10871315,-0.117852449
4.08,-0.02989471,-0.053432465,0.01497066
4.09,-0.018443584,0.05676651,0.256618083
4.1,-0.155324459,0.075896263,0.406193614
4.11,0.07531178,0.066297531,0.179336011
4.12,0.073297352,0.066493988,0.182741463
4.13,-0.040312171,0.06674099,0.200096369
4.14,-0.040722936,0.066849709,0.20154947
4.15,0.047478318,0.028730392,0.172538161
4.16,0.046886027,0.029031754,0.175996184
4.17,-0.003882378,-0.054231644,0.057385266
4.18,-0.174109727,-0.103951454,-0.06602174
4.19,-0.17315343,-0.10323143,-0.059111536
4.2,-0.387146473,0.060388565,-0.27430892
4.21,-0.256841064,-0.104026794,-0.125781715
4.22,0.192416936,-0.165708542,0.634600282
4.23,0.1380319,-0.295062065,0.379882991
4.24,0.135270029,-0.294916153,0.382762909
4.25,-0.094713598,-0.148636818,0.193549037
4.26,-0.193283856,0.076589584,0.088816524
4.27,-0.236840189,0.021866798,-0.320537448
4.28,-0.211043596,-0.044614792,-0.258516073
4.29,-0.215530574,-0.094884872,0.167579532
4.3,-0.170576811,-0.068980217,0.30253464
4.31,-0.346406162,-0.01445961,0.185086727
4.32,-0.460668802,-0.043599129,0.077671826
4.33,-0.269396514,-0.053551674,-0.13304168
4.34,-0.195886612,-0.034637451,-0.220112383
4.35,-0.076613367,-0.018028259,-0.121945262
4.36,0.010496885,0.024875641,-0.01670289
4.37,0.010003835,0.024576187,-0.019531965
4.38,-0.125079721,0.076920509,0.114203215
4.39,-0.123506129,0.076672554,0.049804509
4.4,-0.072551727,0.00230217,-0.056046844
4.41,-0.017853796,-0.124726296,-0.120733798
4.42,0.095780849,-0.189580917,-0.049239278
4.43,0.153116465,-0.130180359,0.063835919
4.44,0.046525538,-0.044586182,0.287937403
4.45,-0.074311227,-0.042898178,0.355597436
4.46,-0.291497976,-0.096021652,0.07271713
4.47,-0.45165804,-0.163306236,-0.076960683
4.48,-0.452549875,-0.163490295,-0.078578055
4.49,-0.409138888,-0.316948891,-0.210255504
4.5,-0.325312555,-0.333993912,-0.115075409
4.51,-0.366172999,-0.296042442,0.099054575
4.52,-0.415729731,-0.279823303,0.282300949
4.53,-0.413527131,-0.280353546,0.275552034
4.54,-0.34333235,-0.161147118,0.098471165
4.55,-0.406862974,-0.063445091,0.036572754
4.56,-0.40311867,-0.063961983,0.029020131
4.57,-0.43187502,0.031095505,0.213886917
4.58,-0.429373115,0.03041172,0.204980552
4.59,-0.628215969,0.068045616,0.299097002
4.6,-0.743792951,0.05077076,0.228708148
4.61,-0.855140626,0.0097332,0.176077604
4.62,-0.847053349,0.009587288,0.169761837
4.63,-0.701593995,-0.064517021,0.242283464
4.64,-0.768514276,0.065228462,-0.055404544
4.65,-0.652410626,-0.032208443,-0.003444195
4.66,-0.614754379,-0.287853241,0.049816668
4.67,-0.446452677,-0.718502045,-0.066524208
4.68,-0.264803886,-0.938692093,0.20521903
4.69,-0.325567365,-0.924739838,0.503463268
4.7,-0.586646259,-0.724040985,-0.084264159
4.71,-0.633524716,-0.50110054,-0.781673074
4.72,-0.519509554,-0.18180275,-0.682721496
4.73,-0.594174027,0.068702698,-0.171918869
4.74,-0.271289885,0.289937973,0.252669632
4.75,0.325491935,0.359955788,-0.007947624
4.76,0.311734349,0.358237267,-0.019261658
4.77,0.294686496,0.375881195,-0.280938149
4.78,0.306312114,0.245182991,-0.605494201
4.79,0.460745126,0.061963081,-0.805052817
4.8,0.452657253,0.060750008,-0.815365553
4.81,0.574092567,0.057146072,-0.46694386
4.82,0.683343887,-0.037343025,-0.579176903
4.83,0.8437742,-0.186828613,-0.696884871
4.84,0.833287358,-0.187961578,-0.705150604
4.85,1.056402087,-0.742344856,-0.545483828
4.86,1.284239531,-1.036231041,-0.372548401
4.87,1.489180923,-1.237002373,-0.22697407
4.88,1.568643689,-1.267874718,-0.260483265
4.89,1.665980577,-1.143119812,-0.421510398
4.9,1.645942688,-1.145233154,-0.442403555
4.91,1.851769686,-0.433794975,-0.76523149
4.92,1.725878,-0.067110062,-0.69346875
4.93,1.601629257,0.239793778,-0.751275599
4.94,1.575607061,0.237938881,-0.770690501
4.95,0.714263558,1.05988884,-0.828690827
4.96,0.695477486,1.05837059,-0.84928
4.97,0.112964034,1.315663338,-1.087108135
4.98,-0.20592013,1.21163559,-1.358247042
4.99,-0.476596803,0.899477005,-1.384060383
5,-0.620992065,0.388616562,-1.119082093
5.01,-0.568054915,-0.124668121,-0.9257707
5.02,-0.574504376,-0.125598908,-0.947312117
5.03,-0.241684184,-0.686750412,-1.012557745
5.04,0.144992128,-1.322118759,-0.701740861
5.05,0.140576646,-1.323007584,-0.729745269
5.06,-0.091187477,-1.314287186,-0.641309261
5.07,-0.090929702,-1.315036774,-0.674897671
5.08,0.067087919,-1.03564167,-0.337976575
5.09,0.25893569,-1.021959305,0.003262728
5.1,0.288901508,-1.106275558,-0.502153516
5.11,0.285764933,-1.106562614,-0.544994831
5.12,-0.017340943,-0.891154289,-0.79317981
5.13,0.171445102,-0.721033096,-1.202147722
5.14,0.170510888,-0.720789909,-1.23824656
5.15,0.293474138,-0.576832771,-1.703604221
5.16,0.291743934,-0.576521874,-1.729872584
5.17,0.266474903,-0.31276989,-0.768808961
5.18,0.457444221,-0.250090599,-0.657556295
5.19,0.334168106,-0.18514061,-0.628776074
5.2,0.228006363,-0.084311485,-0.81028825
5.21,0.233302563,-0.084137917,-0.814104021
5.22,0.233329445,-0.225313187,-1.151322007
5.23,0.549998939,-0.416808128,-1.074076891
5.24,0.551690698,-0.416743279,-1.075973749
5.25,0.554058731,-0.282485962,-0.772282362
5.26,0.380157173,-0.243973732,-0.687425077
5.27,0.374052465,-0.092902184,-0.646342814
5.28,0.453774214,0.036601067,-1.037858009
5.29,0.361528188,0.26429081,-1.161908269
5.3,0.303213358,0.585413933,-1.255821943
5.31,0.259534091,0.956866264,-1.360291839
5.32,0.02507095,1.294782639,-1.279805064
5.33,-0.16872336,1.508292198,-1.128242493
5.34,-0.082839414,1.638086319,-1.075559378
5.35,-0.201045349,1.79424572,-1.048203826
5.36,-0.327345848,1.926525116,-1.174466491
5.37,-0.452762753,2.113890648,-1.335774302
5.38,-0.42864126,2.114504814,-1.332632542
5.39,-0.382196277,2.380934715,-1.097955704
5.4,-0.262508392,2.82710743,-0.693832755
5.41,-0.228811145,2.828139305,-0.683971882
5.42,0.418734253,3.753482819,-0.170047224
5.43,0.450565547,3.754712105,-0.161616087
5.44,0.800978541,3.916539192,0.649207711
5.45,0.590900302,3.709873199,2.926999807
5.46,0.619598627,3.711508751,2.924572229
5.47,0.238328904,3.631468773,3.718598127
5.48,0.245827466,3.632110596,3.711515427
5.49,0.623221695,3.131914139,4.121280193
5.5,0.820043802,2.801606178,4.523830414
5.51,0.029794157,2.016371727,4.497071743
5.52,0.023175895,2.016673088,4.478239059
5.53,-1.615298152,1.093047142,3.731198549
5.54,-1.908371925,0.260392189,3.213623762
5.55,-1.99152565,-0.325600624,2.895498514
5.56,-1.545190334,-0.650463104,2.639760733
5.57,-1.247866392,-0.776638031,2.351737976
5.58,-1.245777607,-0.77589035,2.336981535
5.59,-0.985344946,-0.456458092,2.236375809
5.6,-1.089706182,0.888032913,2.156132698
5.61,-1.173334599,1.445230484,2.158243418
5.62,-1.458461046,1.698548317,1.799835205
5.63,-1.940357208,1.659809113,1.188191295
5.64,-2.146533012,1.17328167,0.557549536
5.65,-1.953606248,0.284183502,0.21716547
5.66,-1.409306407,-0.782446861,0.047570884
5.67,-0.978657305,-1.820738792,-0.030569077
5.68,-1.242867231,-2.722965717,0.517440319
5.69,-0.651373804,-3.299441338,0.286480963
5.7,-0.641093552,-3.299221992,0.2934286
5.71,0.374098092,-4.846344948,-0.599588335
5.72,0.432507992,-5.357394695,-0.599839211
5.73,0.433867157,-5.358654499,-0.576893807
5.74,0.791199863,-5.506247044,-0.585162342
5.75,0.812161207,-5.311902046,-0.695555329
5.76,0.68261528,-5.177607536,-0.438807249
5.77,0.690114915,-5.000110149,-0.136821508
5.78,0.660248697,-4.791521549,-0.119196206
5.79,0.643150985,-4.793681622,-0.09226495
5.8,0.910444319,-4.570845127,-0.307996512
5.81,0.845798254,-3.991204739,-0.205912441
5.82,0.737521887,-3.617247105,-0.191618979
5.83,0.401159793,-3.123426437,-0.353412837
5.84,-0.002759397,-2.677378178,-0.604516804
5.85,-0.028334111,-2.678934574,-0.592339456
5.86,-0.338929325,-2.163266659,-0.906422496
5.87,-1.163255453,-0.819108009,-1.411663651
5.88,-1.360318422,-0.121274948,-1.383758664
5.89,-1.422219515,0.567100525,-1.302474618
5.9,-1.312405825,1.088039398,-1.148709774
5.91,-1.204909563,1.376951218,-0.974701166
5.92,-1.083022714,1.670913696,-0.865782321
5.93,-1.083881855,1.67064476,-0.820950687
5.94,-0.812156737,2.068003654,-0.422707409
5.95,-0.75165385,2.259543419,-0.45893082
5.96,-0.537400484,2.611463547,-0.223451182
5.97,-0.826767445,2.831507683,-0.114645138
5.98,-1.39871335,3.072997093,-0.288195431
5.99,-1.752149343,3.149231911,-0.742931366
6,-1.766205549,3.148826599,-0.742329836
6.01,-3.110943556,2.97871685,-2.124433279
6.02,-3.057217121,3.421975136,-2.117181301
6.03,-1.517621756,4.081108093,-1.19637835
6.04,0.479201436,4.283056259,-0.443593919
6.05,0.473476946,4.284070015,-0.39526096
6.06,2.479958534,4.965156555,2.395112753
6.07,2.62877512,4.719851494,4.446583271
6.08,2.614855528,4.25442028,5.7915802
6.09,2.598765135,4.25557518,5.827584267
6.1,3.346070528,1.981843948,4.927765846
6.11,3.318194151,1.982690811,4.955846786
6.12,2.820574045,-0.042217255,1.945647478
6.13,2.799643517,-0.041906357,1.957212925
6.14,1.463548899,-0.73155117,-0.638295054
6.15,1.492156982,-0.547719002,-0.939126492
6.16,1.384984255,-0.158553124,-0.250134826
6.17,1.36084199,-0.160546303,-0.286710709
6.18,1.354773164,0.519739151,1.078251123
6.19,1.332935095,0.51781559,1.032578945
6.2,0.064114966,1.318189621,1.89602685
6.21,-0.505935073,1.230543137,1.737467051
6.22,-0.780284524,0.400996208,1.009286761
6.23,-0.786447585,0.400290489,0.979650855
6.24,-0.806780577,-1.893870831,0.3566567
6.25,-0.806470037,-1.894153118,0.342000425
6.26,-0.703278601,-2.971731186,0.126826271
6.27,-0.587643504,-4.726763248,0.126227722
6.28,-0.484236866,-5.282166481,0.20301798
6.29,-0.045396164,-5.564593792,0.279557467
6.3,-0.007884398,-5.538154602,0.394165158
6.31,0.025068901,-5.392048359,0.53036654
6.32,0.049230114,-5.392024517,0.521902084
6.33,0.28701818,-5.044857502,0.501679719
6.34,0.510709524,-4.678534508,0.330927968
6.35,0.671618938,-4.292970657,0.05848901
6.36,0.515737474,-3.332671642,-0.862831175
6.37,0.64559108,-2.863192558,-0.459058225
6.38,0.607685924,-2.625965118,-0.499775052
6.39,0.62284404,-2.625741005,-0.511680007
6.4,0.339670777,-2.007787228,-1.312460661
6.41,0.270471722,-1.636419296,-1.403292656
6.42,-0.058573633,-1.183645248,-1.337075233
6.43,-0.069513023,-0.603993416,-0.831521869
6.44,0.042910859,-0.036380768,-0.152472392
6.45,0.049055919,-0.036225319,-0.157824278
6.46,0.277457357,0.512223244,0.011246856
6.47,0.183868095,1.522834778,-0.784743846
6.48,0.444763899,2.205435753,-0.988771737
6.49,0.63620007,3.019655228,-1.052071691
6.5,0.735000491,3.589606285,-1.208637714
6.51,0.647749424,3.891309738,-1.552417755
6.52,0.300992101,4.020581245,-2.007431507
6.53,-0.564434052,3.83861351,-1.819718599
6.54,-0.997502327,3.625631332,-1.582454801
6.55,-1.277744293,3.683381081,-1.00383532
6.56,-0.862659991,4.095684052,0.045603815
6.57,-0.845501781,4.096304893,0.040739425
6.58,0.401371449,4.494452477,0.938808203
6.59,0.120435834,4.591144562,1.753719449
6.6,-0.951793015,4.623512268,3.223107815
6.61,-1.62191534,4.019300461,4.952918053
6.62,-1.424584866,2.713235855,5.992571831
6.63,-0.353113085,1.140746117,5.942477226
6.64,1.143262148,-0.39175415,5.758534908
6.65,1.124712586,-0.392443657,5.719712257
6.66,1.957607269,-0.972541809,5.272154808
6.67,-0.175578326,0.205478668,2.410346508
6.68,-0.727717459,1.096508026,0.831086516
6.69,-1.371229529,2.126700401,-0.375646949
6.7,-2.460282803,2.987239838,-0.302266061
6.71,-4.368196011,3.936867714,0.775812268
6.72,-4.620521545,3.977318764,1.693273067
6.73,-2.86215353,2.935088158,1.355506539
6.74,-1.374463558,1.604372025,0.538406432
6.75,-0.553155839,0.035721779,0.336518854
6.76,0.213520438,-1.461670876,0.504681647
6.77,0.776165545,-2.648184299,0.584207296
6.78,0.748058498,-2.649697781,0.588169754
6.79,2.021599531,-4.976127625,0.764371872
6.8,2.277407408,-5.865840912,0.572087467
6.81,1.914742827,-6.412912369,-0.12812224
6.82,1.217817545,-6.399407387,-0.209881276
6.83,1.181385756,-6.39993,-0.227359057
6.84,0.307877839,-5.93582058,0.152804345
6.85,0.260011941,-5.747231483,0.070582479
6.86,0.233638883,-5.748019218,0.077405602
6.87,0.213382855,-5.456773281,0.283598691
6.88,0.019412115,-4.839984894,-0.395010978
6.89,-0.258695573,-4.505758286,-0.961621225
6.9,-0.535727918,-4.123485088,-1.292141676
6.91,-0.636126638,-3.618934631,-1.42304647
6.92,-0.658005893,-3.619433403,-1.408225894
6.93,-0.615522683,-2.604718685,-1.274386048
6.94,-0.739802837,-1.903694153,-1.141365409
6.95,-1.13492012,-1.073404312,-0.806337357
6.96,-1.131293654,-1.073900223,-0.770892501
6.97,-1.447634459,0.25929451,-0.319308698
6.98,-1.345115185,0.816916466,-0.557468474
6.99,-0.999651492,1.283802986,-0.798990727
7,-0.897987187,1.631203651,-0.906577289
7.01,-0.85812515,1.988396645,-0.815654099
7.02,-0.616433382,2.510900497,-0.8194291
7.03,-0.547227144,3.098096848,-0.855299294
7.04,-0.682401657,3.781083107,-0.959123313
7.05,-1.36555779,4.25574398,-0.966004193
7.06,-1.369256258,4.256168365,-0.947478354
7.07,-3.718075752,4.579631805,-1.613760948
7.08,-4.685664654,4.580037117,-2.232425213
7.09,-3.928641081,4.810791969,-2.361125708
7.1,-3.903950453,4.812280655,-2.324642897
7.11,-1.331611276,4.766324043,-1.15403223
7.12,1.216232061,4.507436752,-0.180351913
7.13,2.256415844,4.557229996,0.601711214
7.14,2.731635094,4.599236488,1.900735378
7.15,3.032873154,4.336590767,3.491001606
7.16,2.8581779,2.267812729,5.348252773
7.17,2.877232075,1.194261551,4.750201702
7.18,2.691213369,0.07029438,2.886376143
7.19,2.059458971,-0.200781822,1.061546803
7.2,1.018866658,0.318417549,0.029674798
7.21,0.352934688,0.732319832,-0.646907091
7.22,0.53165561,1.220523834,0.028197408
7.23,0.474817962,1.354244232,0.408676893
7.24,0.619645715,1.399155617,0.570668995
7.25,1.072930694,1.242707253,1.105639219
7.26,1.409974337,0.755560875,1.663607597
7.27,1.404282928,0.75428009,1.631012917
7.28,1.2502985,0.408340454,1.564829588
7.29,0.236239642,-0.603053093,0.753724814
7.3,0.23821561,-0.603791237,0.729160309
7.31,-0.418289512,-1.332205772,0.438640595
7.32,-1.054229259,-3.382095337,0.093126029
7.33,-1.039578676,-3.382320404,0.083077505
7.34,-1.188472986,-4.900362968,-0.209642306
7.35,-1.167633891,-4.900290489,-0.211150363
7.36,-0.637814045,-5.965643883,-0.235438496
7.37,-0.29656741,-6.185808182,-0.166188493
7.38,0.044351697,-6.183355808,0.202586815
7.39,0.065016001,-6.183377743,0.18779023
7.4,0.492519468,-5.489078999,0.354718387
7.41,0.510108471,-5.489100933,0.334901333
7.42,0.368009508,-4.54817009,0.085082054
7.43,0.384272516,-4.548171043,0.057377476
7.44,0.830912948,-3.734087944,-0.210357159
7.45,0.984888554,-3.161817074,-0.311966121
7.46,1.006502032,-2.594279766,-0.586242974
7.47,0.759225607,-1.839975357,-0.830063105
7.48,0.50683558,-0.997053146,-1.310451388
7.49,0.12793693,-0.103849411,-1.473781943
7.5,-0.194366634,0.595472336,-1.197165251
7.51,-0.375965208,1.239779472,-0.639321744
7.52,-0.367102265,1.240074158,-0.645315409
7.53,-0.378789306,1.989732742,-1.033649802
7.54,-0.441578537,2.595775604,-1.779188037
7.55,-0.230359435,3.448462486,-1.87514329
7.56,-0.047633916,4.195790291,-1.9857862
7.57,0.426175803,4.873639107,-2.468951464
7.58,0.382451445,5.232896805,-2.546350002
7.59,-0.056499302,5.37653923,-1.792752624
7.6,-0.185392529,5.326245308,-1.066511512
7.61,-0.176817805,5.453166008,-0.168106899
7.62,-0.00168547,5.659216881,0.479773343
7.63,0.274553061,5.69310379,0.382642806
7.64,0.144504681,5.310713768,0.616723299
7.65,-0.047228426,4.828440666,2.770806074
7.66,-0.582711816,3.403282166,3.694386959
7.67,-0.895561576,1.956882477,4.032892704
7.68,-0.805928409,0.273335457,4.403499126
7.69,-0.047802806,-1.075633049,5.284024715
7.7,-0.046744227,-1.075674057,5.277219296
7.71,1.485699654,-2.144348621,5.398122787
7.72,1.471033812,-2.145493031,5.364094734
7.73,0.451133251,-0.822454453,3.003778696
7.74,-0.575178623,0.579913139,1.168903232
7.75,-2.503521681,2.452075958,-0.542775571
7.76,-3.529275417,3.884466171,-1.405729175
7.77,-3.512180328,3.885445595,-1.42491734
7.78,-4.826004505,4.911425591,-0.916898251
7.79,-4.738091946,4.754581451,0.409173071
7.8,-1.362783909,1.68343544,1.517435551
7.81,-0.656471312,0.254302979,0.830655575
7.82,-0.655353248,0.254364014,0.831180453
7.83,0.265663564,-2.281389236,0.474619389
7.84,0.723971069,-3.383233547,0.102758005
7.85,0.709407151,-3.384001255,0.100244567
7.86,1.103673816,-4.989143848,0.105841652
7.87,1.080697775,-4.990220547,0.099604219
7.88,0.974758387,-5.477376938,0.526602984
7.89,1.10429275,-5.773165703,0.314388037
7.9,0.796009481,-6.054700851,-0.562879801
7.91,0.773971677,-6.055940628,-0.538065136
7.92,0.41410023,-5.980399132,-0.562191725
7.93,0.109225661,-5.773055077,-0.62145853
7.94,0.341889769,-5.491410732,-0.706476092
7.95,0.320081264,-5.492186069,-0.675516844
7.96,-0.161520422,-4.781625271,-0.859787583
7.97,-0.179231584,-4.781982899,-0.829445005
7.98,-0.445518553,-4.382378578,-0.983694315
7.99,-0.724084139,-3.355350971,-1.348669529
8,-0.767233193,-2.399894238,-1.190844178
8.01,-0.762771428,-1.307636261,-1.070155382
8.02,-0.907285631,-0.191204071,-1.149558783
8.03,-0.912474275,-0.190217972,-1.107460976
8.04,-1.244901061,1.618753433,-1.398210168
8.05,-1.39638412,2.350631714,-1.544048309
8.06,-1.712878346,2.977448463,-1.529459715
8.07,-1.84142375,3.460803986,-1.102075815
8.08,-1.137339234,3.664059639,-0.328455716
8.09,-0.957642257,3.455277443,-0.363850117
8.1,-1.163705945,3.320622444,-0.947320044
8.11,-1.673669338,3.261973381,-1.211469054
8.12,-2.666041851,2.987130165,-1.766499281
8.13,-3.455152988,2.84608078,-2.656226635
8.14,-3.741670847,3.112577438,-2.469237804
8.15,-2.858002901,3.920872688,-1.113615751
8.16,-0.992611527,4.603877068,-0.135450959
8.17,1.356724858,4.933879852,0.39379552
8.18,3.047926188,5.303232193,1.136367798
8.19,3.412735939,5.903171539,2.456352711
8.2,2.523885727,6.398406982,3.747596025
8.21,2.544978857,5.244329453,4.287779331
8.22,3.33155942,3.874100685,3.79883337
8.23,2.757699013,2.569246292,2.954620361
8.24,2.508470535,1.048411369,2.066739559
8.25,2.360416412,-0.290734291,0.946627975
8.26,2.059486389,-1.032684326,-0.226095796
8.27,1.314056516,-0.829735756,-0.739562988
8.28,1.291501641,-0.83408165,-0.774569988
8.29,0.669483841,-0.455539703,-0.519328952
8.3,0.355013788,0.495149612,0.730769634
8.31,0.589811564,0.6795187,1.071941137
8.32,0.606042445,0.725201607,0.998128712
8.33,0.594408393,0.72106266,0.952599168
8.34,-0.178764418,-0.400934219,1.055166841
8.35,-0.526191413,-1.489276886,1.103191733
8.36,-0.599517822,-2.50549221,0.686921954
8.37,-0.595549524,-2.508412361,0.643281519
8.38,-0.531126559,-3.624208927,0.387836576
8.39,-0.535763025,-5.239873409,0.671242952
8.4,-0.309753001,-5.827979565,0.790609837
8.41,-0.292480111,-5.829164982,0.762525916
8.42,0.107182168,-6.481301308,0.80712235
8.43,0.26828891,-6.391052246,0.914505959
8.44,0.449396074,-6.094762802,0.744811297
8.45,0.610865951,-5.692842484,0.152950823
8.46,0.477720022,-5.175881386,-0.082939655
8.47,0.497778863,-5.176145554,-0.104629517
8.48,0.171130911,-4.23798275,-0.595866561
8.49,0.260620207,-3.752487659,-0.892314315
8.5,0.357233256,-3.087544918,-0.997277379
8.51,0.360601723,-3.08835268,-1.031498194
8.52,0.52365911,-1.664583206,-1.016646981
8.53,0.519752383,-1.665248871,-1.041756392
8.54,0.154416427,0.026947975,-0.817676425
8.55,0.152883515,0.026502609,-0.841409802
8.56,-0.053504735,1.304780006,-0.872277141
8.57,-0.05382672,1.304615974,-0.884408295
8.58,0.130829141,1.809598923,-0.512898982
8.59,0.279506832,2.146924973,-0.42324838
8.6,0.249209821,2.386049271,-0.899338782
8.61,0.309760511,2.91000843,-1.208871484
8.62,0.571809948,4.43711853,-1.244709373
8.63,0.337521285,5.03774929,-1.546615601
8.64,-0.59805131,5.322478294,-1.596425176
8.65,-1.152104855,4.984974861,-1.669245601
8.66,-1.139430165,4.278940201,-1.528096437
8.67,-1.413054824,3.879590034,-0.359922886
8.68,-0.703782916,4.08644104,1.428892612
8.69,0.330514252,4.319779396,2.147237301
8.7,0.69660151,4.0601511,2.007782936
8.71,0.732229054,3.686191559,2.743900299
8.72,0.384217709,3.162047386,3.677728176
8.73,-0.190882802,2.063838959,4.401115894
8.74,-0.694498181,0.812595367,4.645941734
8.75,-0.366905034,0.02541256,4.906667709
8.76,-0.319249511,-0.472949028,4.32004261
8.77,-0.642985702,-0.385437965,3.075251102
8.78,-1.11700654,0.079632759,1.659261823
8.79,-1.643382668,0.775798798,0.333491296
8.8,-2.062781096,1.792407036,-0.652202606
8.81,-2.220772266,2.722584724,-0.579299092
8.82,-2.236418247,2.721224785,-0.610341251
8.83,-1.553485632,3.651158333,1.808792233
8.84,-1.414488554,3.412965775,2.764412403
8.85,-1.216652155,2.732498169,2.483987093
8.86,-0.778458417,1.444094658,0.86402595
8.87,-0.784627199,1.443688393,0.873313367
8.88,0.207764566,-1.394189835,-0.559733033
8.89,0.191103458,-1.395180702,-0.545086086
8.9,0.492694914,-2.469065666,-0.541570425
8.91,0.644231439,-4.23505497,-0.223960295
8.92,0.751110256,-4.854195118,0.034071196
8.93,1.063000917,-5.262613297,0.927331865
8.94,0.756140471,-5.778586864,1.121603251
8.95,0.283571869,-5.891977787,0.549105585
8.96,0.143211216,-5.925879002,-0.1104737
8.97,0.129138708,-5.925915241,-0.070219427
8.98,0.178776905,-6.081575394,-0.701886535
8.99,0.179245815,-5.997787476,-0.615553379
9,0.394910961,-5.756159306,-0.358577609
9.01,0.641294897,-5.354264259,-0.283605665
9.02,0.349497646,-4.885294437,-0.533812523
9.03,-0.251305908,-4.164655209,-0.746094465
9.04,-0.785795689,-3.316901684,-1.088979125
9.05,-1.255743623,-2.607831001,-1.41510272
9.06,-1.433514357,-1.776226044,-1.560240507
9.07,-1.258759379,-0.877183914,-1.27609098
9.08,-1.262969971,-0.876093864,-1.24786973
9.09,-0.907935619,-0.173601151,-0.959041178
9.1,-1.079506755,1.268652916,-0.163585544
9.11,-1.449137807,2.062158585,-0.601510525
9.12,-1.448902011,2.063529968,-0.57487911
9.13,-1.616563439,3.310450554,-1.894169331
9.14,-1.508450031,3.786631584,-1.388761044
9.15,-1.511529803,3.788524628,-1.356981277
9.16,-1.072309375,4.137277603,-0.803081453
9.17,-1.526934028,3.963833809,-1.232244968
9.18,-2.697250128,3.603450775,-1.744677544
9.19,-3.967466354,2.915003777,-2.170590639
9.2,-4.306667328,2.689256668,-1.663709164
9.21,-2.926181555,3.192076683,-0.217529476
9.22,-0.511172175,3.597514153,0.819976211
9.23,1.206065893,4.054135323,0.848995507
9.24,2.174129963,4.413967133,0.931372881
9.25,2.791820288,4.493675232,1.650320053
9.26,2.622245073,4.333374023,2.755016327
9.27,2.632658005,4.33691597,2.786410332
9.28,2.577587128,2.459082603,3.092801809
9.29,2.487938881,1.386191368,2.258417368
9.3,2.406500101,0.419166565,1.38375771
9.31,2.393488407,0.416067123,1.357582808
9.32,2.257624626,0.132192612,0.635246992
9.33,2.050321579,0.084903717,-0.111182809
9.34,1.935130954,0.41557312,-0.20416069
9.35,1.753217578,1.076159477,0.202939987
9.36,1.636243105,1.672203064,0.707983375
9.37,1.505067587,2.546013832,1.996669054
9.38,0.182483867,2.261374474,1.212793589
9.39,-0.174915105,1.184926987,1.200197935
9.4,-0.31135422,-0.161949158,1.235677242
9.41,-0.852863312,-1.395647049,0.290876299
9.42,-1.381637335,-2.669064522,-0.783632159
9.43,-1.459309816,-3.690359592,-0.692461073
9.44,-1.182535172,-4.608447552,-0.412828773
9.45,-1.178007364,-4.609375477,-0.438020498
9.46,-0.532170236,-5.915019035,-0.121285737
9.47,-0.40033564,-6.215013981,0.566984892
9.48,-0.378047377,-6.215694904,0.53802532
9.49,0.111131132,-5.938474655,1.082572341
9.5,0.266589463,-5.53414011,0.743256033
9.51,0.296377361,-5.534160137,0.718774557
9.52,0.899563193,-4.686487675,0.016857609
9.53,0.925098181,-4.686320782,-0.007709265
9.54,1.079510093,-3.783484459,-0.335873157
9.55,0.914253354,-3.158379555,-0.55332458
9.56,1.066830754,-2.698497772,-0.887988031
9.57,0.969753981,-2.229166508,-0.848965824
9.58,0.973343611,-2.229121685,-0.867701531
9.59,0.691176295,-1.570563316,-0.618653774
9.6,0.526549578,-0.947817802,-0.582415402
9.61,0.070317402,0.022195816,-0.32441631
9.62,0.084328964,0.022672653,-0.329680532
9.63,0.013833016,0.461277962,-0.365116507
9.64,-0.054379106,1.345149994,-1.639406204
9.65,-0.022050738,2.054164886,-2.076081753
9.66,0.146528006,2.992842674,-1.746721625
9.67,0.144936055,2.99277401,-1.749203444
9.68,0.025997043,3.86415863,-1.282321334
9.69,-0.271398336,5.183148384,-1.667515039
9.7,-0.458108813,5.144654274,-1.577597737
9.71,-0.637088358,4.675356865,-1.443168759
9.72,-0.6360811,4.675544739,-1.464153647
9.73,-1.072521448,4.43898201,-1.020588636
9.74,-0.246627748,5.356633186,1.164043427
9.75,0.189702421,5.443541527,1.430658817
9.76,0.026491761,5.085303307,1.346564651
9.77,-0.202417821,4.234182358,1.806249619
9.78,-0.616717696,3.218101501,2.575118065
9.79,-0.689400315,1.900326729,4.381365299
9.8,-0.287489951,0.385634422,5.178094387
9.81,-0.282608569,0.385957718,5.162711143
9.82,0.307858318,-1.639568329,4.669195652
9.83,0.028238893,-1.239819527,4.523723602
9.84,-0.505170405,-0.564549446,3.469573498
9.85,-0.523362279,-0.564186096,3.4118402
9.86,-1.393750906,1.509577751,0.478649378
9.87,-1.413891196,1.509952545,0.438140273
9.88,-1.445545316,2.319670677,-0.003074557
9.89,-1.35661912,3.057594299,0.783007145
9.9,-1.013439894,2.85228157,1.107224703
9.91,-1.023020387,2.852787971,1.086878657
9.92,-0.245355457,1.210317612,0.759789765
9.93,0.101143092,0.106113434,0.672750592
9.94,0.085605502,0.1052742,0.678741992
9.95,0.410475254,-1.938248158,0.114838421
9.96,0.489042521,-2.959667206,-0.098329782
9.97,0.512779117,-3.83292675,-0.261501372
9.98,0.724261046,-4.663100719,-0.486276507
9.99,0.794756413,-5.181992054,-0.621106744
10,0.542685926,-5.466036797,-0.35444063
10.01,0.438715756,-5.484044075,0.225140244
10.02,0.266160369,-5.528196812,0.319001377
10.03,0.113526359,-5.572341442,-0.02373217
10.04,-0.186751172,-5.556518078,-0.225621
10.05,-0.731893778,-5.437547207,-0.078014091
10.06,-0.83260268,-5.256101131,-0.324953347
10.07,-0.523681045,-5.134414673,-0.928582251
10.08,-0.507205725,-4.876142979,-1.130287528
10.09,-0.683842957,-4.359171391,-0.91204381
10.1,-0.696326315,-4.359323978,-0.896335363
10.11,-0.826690316,-2.783990383,-0.937193394
10.12,-0.835384011,-2.784011364,-0.92010957
10.13,-1.208700061,-1.639510155,-0.783045411
10.14,-1.42166698,-0.672129631,-0.494140059
10.15,-1.720306635,0.213927269,-0.564904988
10.16,-1.670972466,0.805541039,-0.585615158
10.17,-1.115291953,1.988602638,-0.728105485
10.18,-1.067459941,2.649866104,-1.405598879
10.19,-1.428748012,3.256362915,-1.552133441
10.2,-1.399529815,3.257566452,-1.51026535
10.21,-1.640536904,3.766719818,-1.096737027
10.22,-1.336842299,3.598520279,-1.368853927
10.23,-1.341868877,3.250666618,-0.755518675
10.24,-1.826427579,2.662914276,-1.027263284
10.25,-2.415625811,2.333490372,-1.94178164
10.26,-2.276367426,2.911425591,-1.552174568
10.27,-1.165848613,3.752885818,-0.032736361
10.28,-0.232688278,4.479515076,0.239419594
10.29,1.061869383,4.926568985,0.843293905
10.3,1.896810293,5.369153976,1.975311399
10.31,2.406799078,5.59894371,2.839091301
10.32,2.420103788,5.601289749,2.872801781
10.33,1.726712704,4.137512207,3.649522066
10.34,2.07955718,2.519095421,3.555783987
10.35,2.200559616,0.704981804,3.270123005
10.36,1.91630888,-0.561537743,2.251323223
10.37,1.505867004,-1.075826645,0.795553982
10.38,0.852742076,-0.548191071,-0.511750341
10.39,0.850076914,-0.549197197,-0.530725062
10.4,0.675314426,0.898694992,-0.528799713
10.41,0.679453671,1.690593719,0.087117404
10.42,0.88440752,2.094457626,0.881220579
10.43,1.210389853,1.992699623,1.440392137
10.44,1.169867754,1.42146492,1.613253117
10.45,0.958000183,0.349768639,1.298314095
10.46,0.94596684,0.348357201,1.264716864
10.47,0.439190567,-1.929846287,0.23069106
10.48,0.25330016,-3.130375385,-0.161717713
10.49,0.252890557,-3.13099432,-0.188208833
10.5,-0.080790132,-4.033841133,-0.511408329
10.51,-0.690312266,-4.993785858,-0.452607811
10.52,-0.794227839,-5.467432022,-0.32295531
10.53,-0.850342512,-5.61287117,0.090673015
10.54,-0.710266233,-5.645744801,0.631442308
10.55,0.156856611,-5.592590809,0.908038855
10.56,0.707426965,-5.312101364,0.90175736
10.57,1.310582519,-5.103497028,0.866635263
10.58,1.376420379,-4.777562618,0.488059878
10.59,1.388119102,-4.777161121,0.468074501
10.6,0.555762529,-3.720673561,-0.604129851
10.61,0.532898724,-3.164639473,-1.175351977
10.62,0.540292025,-3.164280891,-1.194309831
10.63,0.466133505,-1.988501072,-1.118835807
10.64,0.333336234,-1.2821455,-1.035413742
10.65,0.210071504,-0.484880447,-0.936816037
10.66,0.211709142,0.027413368,-0.467413425
10.67,0.103431255,0.460762978,0.075899951
10.68,-0.207067102,0.599744797,-0.084589012
10.69,-0.049929023,0.748416901,-0.875199139
10.7,0.103060693,1.119628906,-1.604074478
10.71,0.051246107,1.833098412,-2.270703316
10.72,-0.032876313,3.015598297,-1.812066674
10.73,-0.042298406,3.015149117,-1.809201956
10.74,0.183202267,5.052061081,-0.951755106
10.75,0.169587582,5.051499367,-0.955485523
10.76,-0.117190123,5.410194397,-1.149501681
10.77,-0.362759411,4.976661682,-1.203683972
10.78,-0.758529902,4.318553925,-1.27679038
10.79,-1.277775168,3.385499954,-1.24072957
10.8,-0.750190973,3.748069763,0.315427244
10.81,-0.723090172,3.749274254,0.328203708
10.82,0.412314355,3.937385559,0.403850734
10.83,0.527060032,3.800226212,2.022981882
10.84,0.566120327,3.802431107,2.038704395
10.85,0.259130567,1.228804588,3.993002653
10.86,0.410786092,0.039089203,4.071660042
10.87,0.889437497,-0.662784576,4.273812294
10.88,1.090117455,-0.522917748,4.322952747
10.89,1.087643147,-0.523180008,4.309871197
10.9,0.565295517,0.057837486,3.846406698
10.91,-0.774305642,2.000872612,1.754118681
10.92,-1.741966724,2.852071762,1.220281005
10.93,-3.001230478,3.397250175,0.872928798
10.94,-3.002595425,3.397248268,0.855193257
10.95,-3.888523102,3.541272163,0.754285038
10.96,-2.662259102,2.033238411,-0.144987807
10.97,-1.288406849,0.603943825,-0.329739928
10.98,-0.553380609,-0.653254509,-0.240016818
10.99,-0.173976541,-1.558587074,-0.246215597
11,-0.180383921,-1.559045792,-0.236720622
11.01,0.592575133,-3.329234123,0.198979378
11.02,1.167262793,-4.07504797,0.389584452
11.03,1.202869773,-4.481254578,0.714960039
11.04,1.171627998,-4.482972145,0.700595975
11.05,1.022651792,-4.827088356,1.178348422
11.06,1.380420685,-5.173763752,1.422695875
11.07,1.836680889,-5.453345776,1.390333056
11.08,1.580659032,-5.677665234,0.470351517
11.09,0.719884515,-5.746032238,-0.537411273
11.1,0.071588725,-5.490841389,-0.528814614
11.11,-0.167392165,-5.4436903,-0.832300901
11.12,-0.318354666,-5.109063148,-1.156537294
11.13,-0.156843752,-4.640275478,-0.895730436
11.14,-0.143570691,-3.915295601,-0.616872847
11.15,-0.480925143,-3.130409241,-1.088347435
11.16,-0.501078248,-3.130694389,-1.064632773
11.17,-0.897484541,-1.414089203,-1.200112462
11.18,-1.141668916,-0.53542614,-1.252483249
11.19,-1.335407495,0.15177536,-1.301465869
11.2,-1.561259389,0.875016213,-0.939913988
11.21,-1.565927386,0.87526989,-0.923094332
11.22,-2.145278692,1.883684158,-0.7950176
11.23,-2.140506268,2.107235909,-1.173673987
11.24,-1.892336249,2.311932564,-1.468895078
11.25,-1.429016113,2.454559326,-1.410680532
11.26,-1.061569214,2.58037281,-0.874081671
11.27,-0.793642402,2.871071815,-0.231863767
11.28,-0.850693226,3.192503929,-0.464024812
11.29,-0.856395185,3.192862511,-0.452184707
11.3,-1.375655055,3.451666832,-1.105169654
11.31,-3.891756535,3.593209267,-2.330452919
11.32,-4.281877518,3.632120132,-1.660610199
11.33,-2.707175016,3.999354362,0.007678837
11.34,-0.418671489,3.991066933,0.518438637
11.35,1.560963392,3.708510399,0.440588296
11.36,2.566273451,3.622699738,0.794870973
11.37,3.106946945,3.917689323,1.643332243
11.38,2.724611044,3.688471794,2.591115236
11.39,2.346837759,3.372787476,3.38567543
11.4,2.295712233,2.349655151,3.729270458
11.41,2.471626759,1.159240723,3.358337402
11.42,2.407011747,0.372214317,2.327565193
11.43,2.382866621,0.370089531,2.304675341
11.44,2.004577875,-0.029660225,0.986098349
11.45,1.421958089,0.667092323,-0.537220597
11.46,1.577152491,1.265526772,-0.30098474
11.47,1.557257533,1.263069153,-0.339531064
11.48,1.747208834,1.962183952,1.144216299
11.49,1.724995852,1.959895134,1.100770473
11.5,0.341122508,1.804619789,1.567577124
11.51,-0.241355896,0.921761513,0.732678473
11.52,-0.257854879,0.920386314,0.694765806
11.53,-0.909721792,-1.307437897,0.235335618
11.54,-0.917419493,-1.308358192,0.202314794
11.55,-1.014044523,-3.952283382,-0.517073393
11.56,-1.211629987,-4.71882534,-0.287174046
11.57,-1.087432146,-5.363203049,0.24801001
11.58,-1.067873836,-5.363430023,0.233878017
11.59,-0.692163289,-6.412199497,0.555903077
11.6,-0.664963961,-6.41218996,0.544750333
11.61,0.657127023,-6.584522247,0.950132608
11.62,1.156211853,-6.428813457,0.924480498
11.63,1.249419212,-5.794182777,0.767011166
11.64,0.927569628,-4.977493763,0.445721746
11.65,0.743240237,-4.273251057,0.03528079
11.66,0.879455805,-3.703050137,-0.469263971
11.67,1.096690893,-3.0538764,-1.011150241
11.68,0.95974195,-2.270709991,-1.274514437
11.69,0.574474931,-1.494840622,-1.027119756
11.7,0.152316481,-0.613534927,-0.631598473
11.71,0.162056893,-0.613209724,-0.647974432
11.72,-0.368360579,0.469452858,-0.724379838
11.73,-0.354422778,0.469923019,-0.729717732
11.74,-0.18520996,1.018658638,-0.945328713
11.75,-0.035892487,1.22487545,-1.352478981
11.76,-0.02908814,1.225085258,-1.346680999
11.77,0.148665279,1.565071106,-1.790691614
11.78,0.351676911,3.281583786,-1.357822537
11.79,0.206032693,4.08577919,-1.339357853
11.8,0.194817483,4.085467339,-1.348595619
11.81,-0.721255899,4.954339981,-1.477571607
11.82,-0.79971683,4.573533058,-1.564994216
11.83,-0.805254519,4.573537827,-1.582552671
11.84,-1.356932282,3.517855644,-0.827078462
11.85,-1.347762823,3.518238068,-0.834960163
11.86,-0.844629645,3.85861969,0.271136761
11.87,0.056726158,4.273255348,1.156825066
11.88,0.279933333,4.343310356,0.981369555
11.89,0.13640216,3.975611687,1.062576056
11.9,-0.662135303,3.299461365,2.038784981
11.91,-1.202831626,1.244380951,3.789190531
11.92,-0.475168914,0.0291996,4.100218773
11.93,-0.464138687,0.029761314,4.103286266
11.94,0.995026827,-1.215296745,4.595178127
11.95,0.555059671,-0.497369766,3.906267881
11.96,-0.179032207,0.325853348,2.476201296
11.97,-0.195408076,0.325491905,2.437492609
11.98,-0.848201513,2.353072166,1.411123872
11.99,-2.479713678,3.35147953,0.859249473
12,-3.654693604,4.223465919,0.738618374
12.01,-3.654435635,4.224205971,0.710809767
12.02,-3.509267092,4.038340569,1.261974335
12.03,-2.558612108,3.287249565,1.277697444
12.04,-0.882137537,0.471669197,0.140356213
12.05,-0.88560313,0.471351624,0.145579517
12.06,0.427933246,-2.335488319,-0.23236315
12.07,1.076558709,-3.751586437,0.346615046
12.08,1.750363588,-4.688797951,0.61603117
12.09,1.927914858,-5.261989594,0.701933622
12.1,1.727148175,-5.641111851,0.582474411
12.11,1.215399027,-5.898071289,0.611281872
12.12,0.546827257,-5.690482616,0.418103218
12.13,0.4696275,-5.741511822,-0.303464502
12.14,0.281550318,-5.699465752,-0.605297923
12.15,0.251521975,-5.700709343,-0.576441228
12.16,-0.38228026,-5.460020542,-0.294384897
12.17,-0.56545037,-5.145008087,-0.570676923
12.18,-0.548817635,-4.901649475,-1.036113739
12.19,-0.570586026,-4.902324677,-0.995549738
12.2,-0.420260429,-4.572341919,-1.22868228
12.21,-0.654114127,-3.303576469,-0.829950571
12.22,-0.721981883,-2.547055244,-0.821799994
12.23,-0.817165196,-1.689876556,-1.073914528
12.24,-0.826270104,-1.689789772,-1.045613766
12.25,-1.698294759,0.029414177,-1.325565815
12.26,-2.047008276,0.726337433,-1.26652956
12.27,-2.032022238,1.31795311,-0.934128404
12.28,-2.011078119,1.900113106,-0.673155189
12.29,-1.991799116,1.900630951,-0.63935113
12.3,-1.678158045,2.837587357,-1.318267107
12.31,-1.65811193,2.838684082,-1.274909019
12.32,-0.848198295,3.249398232,-0.97538352
12.33,-0.690153003,3.494991302,-0.890205026
12.34,-1.037287235,3.814776421,-1.122706652
12.35,-1.650075674,3.98120594,-1.358487606
12.36,-2.500595331,3.828924179,-1.705233335
12.37,-3.406441212,3.87514019,-1.740369678
12.38,-3.001389503,4.297156334,-1.096265674
12.39,-1.31229341,4.482419014,-0.361070752
12.4,-1.306061983,4.48377037,-0.334889412
12.41,0.95875895,4.919075012,0.441056192
12.42,1.7692734,4.708114624,2.226370811
12.43,2.260162592,4.097135544,3.120881081
12.44,2.466642141,3.220394135,3.529741764
12.45,2.190115213,2.072603226,3.793473721
12.46,2.07290411,0.655842781,3.532358408
12.47,2.198914289,-0.46715641,1.692780972
12.48,2.19225502,-1.053882599,0.410662562
12.49,1.798438549,-0.695061684,0.05663389
12.5,1.51114285,-0.186401367,0.262018353
12.51,1.247545481,0.436888695,0.256195933
12.52,1.328585267,1.096048355,0.23423326
12.53,1.70018661,1.44630146,0.308697492
12.54,1.693908215,1.444480896,0.276910573
12.55,1.84661603,1.966773987,0.842792988
12.56,0.972689927,1.828230858,1.256018281
12.57,0.965622604,1.826263428,1.212347984
12.58,0.227350354,1.101496696,1.215611696
12.59,-0.308522373,-1.33480835,0.183043748
12.6,-0.90095973,-2.604740143,-0.380745113
12.61,-1.125553012,-3.584544182,-0.570636928
12.62,-1.004566908,-4.580833435,-0.487512022
12.63,-0.985153258,-4.580896378,-0.495123684
12.64,-0.239154205,-5.995747566,0.151004434
12.65,-0.103573442,-6.340132236,0.40919441
12.66,-0.070579737,-6.339503765,0.413986325
12.67,0.152096033,-6.403348923,0.80485338
12.68,0.1913836,-6.402425766,0.805320382
12.69,0.411491871,-5.690357685,0.374881148
12.7,0.626000524,-4.96389389,0.132126644
12.71,0.704155803,-4.484261513,-0.35914588
12.72,0.834730268,-3.940010548,-0.946921766
12.73,0.948564291,-3.233083248,-1.357658625
12.74,0.897814035,-2.497636795,-1.282835245
12.75,0.755203903,-1.537354469,-1.06066227
12.76,0.633848727,-0.579490662,-1.176834583
12.77,0.640894771,-0.579179764,-1.177659273
12.78,0.080327421,1.054226875,-0.75209111
12.79,0.074183434,1.490605354,-0.438879728
12.8,0.083773971,1.491231918,-0.430685908
12.81,0.137035817,1.848571777,-1.013831258
12.82,0.048402816,2.083741188,-1.699170709
12.83,-0.132222563,2.526945114,-2.091674328
12.84,-0.228621006,3.24288559,-1.628294826
12.85,-0.041998357,3.927377701,-1.100434065
12.86,0.131720752,4.451223373,-0.949993551
12.87,-0.102718383,4.340500832,-1.408941507
12.88,-0.357263833,3.851616859,-1.230765104
12.89,-0.687926352,3.712436676,-0.552435875
12.9,-0.732902885,3.990150452,-0.198366493
12.91,-0.723432422,3.990645409,-0.196179211
12.92,-0.543773711,4.946918488,-0.151872605
12.93,-0.257929772,4.895665169,0.987968326
12.94,-0.342784464,4.368443489,2.360007048
12.95,-0.456115425,3.118616104,3.021627188
12.96,-0.38424772,1.924360275,3.221314669
12.97,-0.348286688,1.927461624,3.246269464
12.98,-0.458536744,0.960591316,3.680159569
12.99,-0.308739364,-0.176985741,4.147722721
13,-0.222407877,0.154335022,4.042005062
13.01,-0.216560483,0.154397965,4.03288269
13.02,-0.421585143,1.125805855,2.756447315
13.03,-0.880379319,1.852585793,1.566005349
13.04,-1.402870417,2.505162239,0.904137909
13.05,-1.695596218,2.954262733,0.947147012
13.06,-1.827234983,2.986589432,1.157277346
13.07,-1.692553997,2.695812225,1.026852369
13.08,-1.702557206,2.694856644,1.016336799
13.09,-1.542973757,2.10505867,0.721439004
13.1,-0.903909087,0.076273918,0.214913726
13.11,-0.614135981,-0.860761643,0.210854083
13.12,-0.298505962,-1.898499966,0.159341455
13.13,0.183111846,-2.905354977,0.125856683
13.14,0.594573081,-3.673096657,0.252672672
13.15,1.093623996,-4.426783562,0.486681044
13.16,1.365571618,-4.941187382,0.784207344
13.17,1.170882463,-5.177641392,0.918647468
13.18,0.988485754,-5.322785378,0.811925173
13.19,0.760330319,-5.28326273,0.618742883
13.2,0.548175275,-5.135698795,0.346163005
13.21,0.299262643,-5.121925354,0.10595651
13.22,0.272555023,-5.122157097,0.125749573
13.23,0.260275185,-5.062294483,-0.280887991
13.24,0.083601028,-4.892047405,-0.438501209
13.25,-0.146903411,-4.692903042,-0.725292385
13.26,-0.247865439,-4.397929192,-0.903972924
13.27,-0.332285404,-4.033540726,-0.908997119
13.28,-0.646063149,-3.480010509,-1.127096534
13.29,-0.664284825,-3.479391575,-1.108193636
13.3,-1.164434075,-1.682787895,-0.782333851
13.31,-1.253092885,-0.917937279,-1.336353183
13.32,-1.176461697,-0.210138321,-1.388684273
13.33,-1.193386674,0.344483376,-0.750712097
13.34,-1.462869406,0.956395149,-0.646468878
13.35,-1.707005978,1.468061447,-1.1256181
13.36,-1.617467046,1.941860199,-1.247571468
13.37,-1.296983004,2.30324173,-0.976799667
13.38,-0.868453085,2.661979675,-0.612205565
13.39,-0.870408893,2.663427353,-0.591530442
13.4,-1.166425347,3.373022079,-0.111364126
13.41,-1.936578393,3.351859093,-0.864089608
13.42,-1.940581203,3.351819038,-0.86381489
13.43,-3.723011017,2.853556633,-2.773804188
13.44,-3.659483671,2.798618317,-2.812770367
13.45,-2.738509655,3.235269547,-1.284078598
13.46,-0.941114008,3.955558777,-0.290819943
13.47,1.652356863,4.085922241,0.386043102
13.48,2.870056152,4.411008835,0.944499731
13.49,2.952411175,4.442094803,2.447309494
13.5,3.195741653,4.068813324,3.549240589
13.51,3.384812117,3.353002548,3.632537842
13.52,2.828510523,2.368110657,3.112240076
13.53,2.325787544,1.608925819,2.424578667
13.54,1.980151892,0.579834938,1.478639841
13.55,1.471935511,0.164646149,0.531469405
13.56,1.448181033,0.162025452,0.509044826
13.57,1.035320997,0.683433533,-0.178393602
13.58,1.31756711,1.42289257,0.224118948
13.59,1.302984118,1.420315742,0.198827267
13.6,1.678748488,1.935029984,1.416680932
13.61,1.553359509,2.006971359,1.821139932
13.62,1.547083616,2.004644394,1.796084404
13.63,0.704115987,1.183315277,1.440553546
13.64,0.02265366,0.27317524,0.949635267
13.65,-0.431318283,-0.797522545,0.317213953
13.66,-0.543253303,-1.791473866,-0.032674134
13.67,-0.540482998,-1.794084072,-0.066449583
13.68,-0.843325496,-3.608754158,0.121613562
13.69,-0.880989969,-4.228153706,0.397346944
13.7,-0.799732387,-4.650685787,0.581409097
13.71,-0.78737098,-5.14215374,0.795467317
13.72,-0.681288719,-5.314844131,0.679881275
13.73,-0.527453065,-5.386681557,0.602138817
13.74,0.027545303,-5.27649641,1.205392838
13.75,0.239372864,-5.228579521,0.719177067
13.76,0.277985066,-5.122831821,0.344428212
13.77,0.5987643,-4.787043095,0.30091992
13.78,0.63254416,-4.78661871,0.292072564
13.79,0.903964937,-4.376898289,-0.197489083
13.8,0.723908365,-3.526808739,-0.713179588
13.81,0.691677511,-2.851925373,-0.4635759
13.82,0.640888333,-2.198966503,-0.497262836
13.83,0.510771692,-1.661109924,-0.550377488
13.84,0.449624687,-0.950853348,-0.669777274
13.85,-0.01840511,-0.343375206,-0.576164484
13.86,-0.011600822,-0.343774796,-0.590233326
13.87,-0.233329415,0.783802986,-0.502138794
13.88,-0.183375657,1.432870865,-0.915502966
13.89,-0.241912127,1.907405853,-1.234378815
13.9,-0.130532593,2.427430153,-1.247152925
13.91,0.052497268,3.007123947,-0.954521298
13.92,0.155909687,3.47413826,-0.980978847
13.93,0.177909672,3.771074295,-1.253716946
13.94,0.061883301,3.964940071,-1.527228951
13.95,-0.231468946,3.890499115,-1.549824834
13.96,-0.43843475,3.648359299,-1.541077256
13.97,-0.976948619,3.420850754,-1.645467043
13.98,-0.968095601,3.421367645,-1.642886996
13.99,-1.008732796,4.418514252,-0.048217773
14,-0.281139582,4.946886063,0.380594194
14.01,-0.051333785,4.932435036,0.083620876
14.02,-0.021744668,4.936112404,0.12269792
14.03,-0.964871466,3.104133606,0.829369664
14.04,-1.131013036,1.85913372,1.495176792
14.05,-1.160201311,0.666962624,2.33318305
14.06,-1.122811317,0.67160511,2.363172054
14.07,-0.274472415,-0.41903019,2.799421072
14.08,1.749016643,-2.108692169,4.501353264
14.09,1.825626612,-1.543091774,4.698577881
14.1,1.368763447,-0.535932541,3.970151424
14.11,1.353921652,-0.53963089,3.930139303
14.12,-0.222038627,2.203064919,1.363752007
14.13,-0.232170284,2.20030117,1.328042388
14.14,-3.274625778,4.468127251,0.411661506
14.15,-3.274353266,4.466870308,0.387137353
14.16,-4.048987389,4.47292614,0.42325902
14.17,-1.875817299,1.897623062,0.288920701
14.18,-1.033280849,0.423444748,0.605381072
14.19,-0.740978479,-0.602885246,0.593780637
14.2,-0.58090359,-1.765436172,0.092456162
14.21,-0.599850953,-1.766746521,0.088767827
14.22,0.606604457,-3.667169571,0.156998485
14.23,0.999248624,-4.339960098,0.518996239
14.24,1.326112151,-4.759109497,0.649029493
14.25,1.291931748,-4.76129055,0.635013223
14.26,1.135265231,-4.636137962,0.854632616
14.27,0.599623919,-4.697211742,0.624293506
14.28,0.572019875,-4.697921276,0.634939432
14.29,0.038181365,-4.667000771,0.089661509
14.3,-0.390188336,-4.52073288,-0.202508569
14.31,-0.407056361,-4.520079613,-0.174235821
14.32,-0.47042954,-4.167161465,-0.605214953
14.33,-0.485552371,-4.165926456,-0.570845127
14.34,-0.5309968,-3.324097157,-0.49504596
14.35,-0.543382585,-3.322357655,-0.458319247
14.36,-0.99691844,-2.846446991,-0.536695421
14.37,-1.256933451,-1.929963589,-1.249365568
14.38,-1.260004401,-1.927965641,-1.218102455
14.39,-1.566986322,-0.886669159,-1.642596722
14.4,-1.344210625,-0.288078308,-1.420070887
14.41,-1.337205648,0.272488594,-1.074230671
14.42,-1.430431247,0.728298187,-0.581263721
14.43,-1.435779572,1.141324043,-0.418156564
14.44,-1.112182617,1.315398216,-0.484489024
14.45,-0.382827729,1.348640442,-0.599747002
14.46,-0.056086123,1.353374481,-0.676289141
14.47,-0.051533759,1.358147621,-0.630553842
14.48,0.055581838,1.563427925,-0.540486217
14.49,-0.025786906,1.86373806,-0.533843398
14.5,-0.232904375,2.134236336,-0.85038054
14.51,-0.827791631,2.484641075,-1.306672096
14.52,-2.677370787,2.965359688,-1.870973229
14.53,-3.668765783,2.688920975,-1.687611103
14.54,-3.732769489,2.566394806,-1.164425611
14.55,-2.837351084,3.049048424,-0.374586225
14.56,-0.79539001,3.790214539,0.546071172
14.57,-0.779338002,3.796186447,0.591559887
14.58,1.50560379,4.144593239,0.42780143
14.59,2.725997686,4.176546097,0.519347966
14.6,2.591464043,3.875220299,2.467433929
14.61,2.355229855,3.363740921,2.933243752
14.62,2.14779973,2.428323746,3.379839897
14.63,2.322281599,1.13999176,3.384666443
14.64,2.194415092,-0.158205032,2.494618654
14.65,1.586837053,-1.122707367,1.16100955
14.66,0.871922553,-1.287997246,0.433431029
14.67,0.867392778,-1.291022301,0.414266348
14.68,0.812448621,-1.16242218,-0.100934148
14.69,2.110354185,0.331280708,-0.280650377
14.7,2.577820063,1.561400414,0.80795151
14.71,2.947804928,2.35247612,1.785547018
14.72,2.601524353,3.291776657,2.045004368
14.73,2.589592934,3.287891388,2.019351959
14.74,-0.14249143,3.628620148,1.892808914
14.75,-0.425669342,2.190086365,1.578184366
14.76,-0.644888997,0.612204552,0.86792922
14.77,-0.807766557,-1.134894371,0.234389007
14.78,-0.687832177,-2.711197376,-0.025168657
14.79,-0.658948898,-3.764716625,-0.185954571
14.8,-0.603887022,-4.561041832,0.129415035
14.81,-0.381589115,-5.057313919,0.531383395
14.82,-0.220106572,-5.222296715,0.620283723
14.83,-0.081650704,-5.168891907,0.625820458
14.84,0.087593317,-5.002847672,0.695234656
14.85,0.185551405,-4.585702419,0.822746873
14.86,0.361198366,-4.154658318,0.648084879
14.87,0.419062138,-3.628223896,0.222679377
14.88,0.470626175,-3.243130207,-0.199322701
14.89,0.474815428,-2.76245594,-0.465151548
14.9,0.531255543,-2.342043877,-0.420734167
14.91,0.648472369,-1.931499004,-0.373360038
14.92,0.793835878,-1.552122116,-0.288663626
14.93,0.646942973,-1.151012421,-0.057934165
14.94,0.659186244,-1.152085304,-0.075257659
14.95,0.741690457,-0.738779068,0.261585593
14.96,0.336053729,-0.248319626,0.275122643
14.97,0.120142371,0.012729645,0.041402817
14.98,0.129275709,0.013113976,0.039635241
14.99,0.31620568,0.449177742,-1.076042414
15,0.186075002,1.002085686,-1.479413033
15.01,0.236250639,1.592459679,-1.451919317
15.02,0.590991974,2.605595589,-0.681587398
15.03,0.738367081,3.486132622,0.309832871
15.04,0.906607866,3.87101841,0.60482496
15.05,0.884823203,3.868735313,0.592410862
15.06,0.314902961,2.600901604,-0.417612255
15.07,-0.325787753,1.406126976,-1.258310318
15.08,-0.326695532,1.407336235,-1.244514942
15.09,-0.729506373,-0.211432457,-1.239917755
15.1,-0.721142173,-0.208206177,-1.210218906
15.11,-0.463152051,-0.223890305,-0.384364367
15.12,0.571464956,1.266145706,0.711277366
15.13,0.484165549,2.205277443,0.427962959
15.14,0.203647047,2.967010498,0.905489802
15.15,0.199873179,3.186384201,1.524565578
15.16,0.428021431,2.806383133,1.809393406
15.17,0.49548018,2.433186531,1.941351533
15.18,0.431421518,2.174478531,1.993960142
15.19,0.4058806,1.864943504,1.680915833
15.2,0.159390271,1.437582016,1.714026213
15.21,-0.178709388,0.992558479,2.04188776
15.22,-0.625376165,0.431954384,2.468976736
15.23,-0.948935628,0.002550125,2.844695091
15.24,-1.052086473,-0.376953125,3.049282551
15.25,-1.056144953,-0.380509377,3.014530659
15.26,-1.270107269,-0.60135746,2.468008518
15.27,-1.541701794,-0.399858475,2.010160208
15.28,-1.547746181,0.06538105,1.399971008
15.29,-1.560834408,0.559585571,0.689778149
15.3,-1.613250375,0.948534012,0.287828267
15.31,-1.203104734,0.912103653,0.279002518
15.32,-0.632462204,0.780758858,0.863154411
15.33,-0.583665729,0.779213905,0.764612794
15.34,-0.443338454,-0.260564804,0.865138233
15.35,-0.409454465,-0.844632149,0.497406662
15.36,-0.32006675,-1.404123306,0.156450719
15.37,-0.062815607,-1.733437538,0.035839006
15.38,0.089102328,-1.885760784,0.134350538
15.39,0.236525536,-1.842088699,0.506614685
15.4,0.241881847,-1.841825485,0.469831318
15.41,0.433991134,-1.665325165,0.537802935
15.42,0.47214812,-1.32361412,0.424516797
15.43,0.351933181,-1.04413414,0.285492688
15.44,0.28868109,-0.91313076,0.349387467
15.45,0.415985495,-0.842041016,0.480050683
15.46,0.441727907,-0.768591881,0.830327213
15.47,0.430710584,-0.769393921,0.812665939
15.48,0.45986408,-0.717514992,0.863959253
15.49,0.40295428,-0.687110901,1.180952311
15.5,0.333695889,-0.709359169,1.233437538
15.51,0.259257495,-0.690885544,1.228307486
15.52,0.258876741,-0.562217712,1.426209927
15.53,0.221549451,-0.352160454,1.671053171
15.54,-0.005438685,-0.118109703,1.398302436
15.55,-0.387850046,0.115860939,0.502051473
15.56,-0.400848687,0.115172386,0.491355836
15.57,-0.825805008,0.75373745,-0.109232172
15.58,-1.252403259,1.076236725,-0.560023189
15.59,-1.169723749,1.278989792,-0.671749234
15.6,-1.199415207,1.225418091,-0.303477705
15.61,-1.288740873,0.939767838,0.322167814
15.62,-1.231544495,0.352633476,0.306259275
15.63,-1.250859499,-0.100276947,0.088183612
15.64,-1.215369582,-0.301625252,0.001203239
15.65,-1.016121387,-0.332855225,-0.056961581
15.66,-0.843709946,-0.253914833,-0.125144169
15.67,-0.843751609,-0.253987312,-0.121824667
15.68,-0.765853047,0.040532112,0.430935323
15.69,-0.733833253,0.112541199,0.421251774
15.7,-0.365253031,0.263584137,0.366892904
15.71,-0.001533151,0.24209404,0.065539509
15.72,0.002789617,0.242085457,0.082553193
15.73,-0.172477424,0.804727554,-0.571262717
15.74,-0.048262417,0.572367668,-0.588782489
15.75,0.00764513,0.129127502,-0.45985806
15.76,0.118886888,-0.23281002,-0.185764849
15.77,0.171309352,-0.716906548,-0.213468283
15.78,0.128435671,-1.275161743,-0.24047026
15.79,-0.042046487,-1.656115532,-0.117584541
15.8,0.01351285,-1.766442299,-0.023267549
15.81,0.257652193,-1.7474823,-0.104889393
15.82,0.495276421,-1.498790741,-0.12725991
15.83,0.683518231,-1.106532097,-0.338739514
15.84,0.751348257,-0.711892128,-0.372553438
15.85,0.880506635,-0.274197578,-0.300703496
15.86,0.871709824,-0.274719238,-0.308005333
15.87,1.016425371,0.035928726,-0.259643078
15.88,1.078095913,0.269897461,-0.522687912
15.89,0.973127902,0.379356384,-0.478351116
15.9,1.049057484,0.292559624,-0.641199648
15.91,1.082247972,0.210520744,-0.665935993
15.92,1.197328687,0.288881302,-0.492166817
15.93,1.17597127,0.288227081,-0.517498791
15.94,1.163651228,0.416883469,-0.588279426
15.95,1.007905006,0.607843399,-0.694362283
15.96,0.929264247,0.739059448,-0.699743509
15.97,1.015499234,0.755382538,-0.711285293
15.98,1.26581192,0.829148293,-0.433589816
15.99,1.394487858,0.735267639,-0.166347101
16,1.632300138,0.634099007,-0.099902168
16.01,1.567173958,0.561560631,-0.223160386
16.02,1.231005788,0.524960518,-0.316958457
16.03,0.97985518,0.373447418,-0.401766449
16.04,0.808324635,0.042301178,-0.348817915
16.05,0.840602458,-0.217058182,-0.259946019
16.06,0.87011373,-0.51239872,-0.106162325
16.07,0.741100073,-0.63292408,-0.072507456
16.08,0.525045931,-0.729455948,-0.231937274
16.09,0.30880338,-0.639165878,-0.449904174
16.1,0.153464764,-0.438640595,-0.459739924
16.11,0.15511407,-0.439119339,-0.431329846
16.12,0.154235959,-0.010964394,-0.290728331
16.13,0.251371175,0.431599617,-0.065435767
16.14,0.025583684,1.714574814,-0.76406908
16.15,0.017557547,1.71422863,-0.74014926
16.16,-0.364808619,1.594185829,-1.046036601
16.17,-0.841814399,0.957070351,-0.759953737
16.18,-1.40418601,0.025539398,-0.361739636
16.19,-1.477819204,-0.783808708,-0.082884401
16.2,-1.477418065,-0.783813477,-0.079719216
16.21,-0.704210997,-1.6217556,0.107076593
16.22,-0.382768631,-1.583333969,0.138393968
16.23,-0.079068094,-1.262267113,-0.026867915
16.24,-0.014512599,-0.75196743,-0.027065776
16.25,-0.003335983,-0.75157547,-0.000806712
16.26,0.065539002,0.074830055,0.047035448
16.27,0.252957463,0.242733955,0.155265391
16.28,0.307632297,0.283642769,0.233241409
16.29,-0.04993698,0.262277603,-0.047447979
16.3,-0.356788576,0.178713799,-0.557830036
16.31,-0.557753027,-0.062861443,-1.041356564
16.32,-0.562316239,-0.062675476,-1.026726007
16.33,-0.619688094,-0.206274986,-0.607712984
16.34,-0.629215598,-0.206373215,-0.602741599
16.35,-0.565007031,-0.208885193,-0.30238241
16.36,-0.707351506,-0.132292748,-0.011981457
16.37,-0.674129427,-0.163329125,-0.099560976
16.38,-0.715750873,-0.172228813,-0.440082848
16.39,-0.698137164,-0.171254158,-0.415941507
16.4,-0.728160918,-0.189791679,-0.751036525
16.41,-0.521927536,-0.107740402,-0.555406213
16.42,-0.363955855,-0.078338623,-0.494872421
16.43,-0.242896006,-0.026546478,-0.152020276
16.44,-0.143743068,-0.216794968,0.323244333
16.45,-0.243322909,-0.335591316,-0.006554633
16.46,-0.296089828,-0.334813118,-0.409707934
16.47,-0.316485971,-0.257555962,-0.56209302
16.48,-0.196389586,-0.154006958,-0.245816886
16.49,-0.194147855,-0.096134186,0.218499824
16.5,-0.064378858,-0.091098785,0.220261589
16.51,-0.002962798,-0.141191483,0.204938397
16.52,-0.043090731,-0.210359573,0.061185986
16.53,-0.055379093,-0.284198761,0.024250567
16.54,-0.176621944,-0.360308647,0.038973778
16.55,-0.167981863,-0.359734535,0.045133471
16.56,0.100333065,-0.576981545,0.173105925
16.57,0.106819987,-0.576342583,0.181578577
16.58,0.076608837,-0.527896881,0.112661123
16.59,0.11425978,-0.424483299,-0.02438736
16.6,-0.010128468,-0.34273243,-0.076821297
16.61,-0.244846642,-0.280220985,-0.22888127
16.62,-0.362229973,-0.236944199,-0.296386868
16.63,-0.40759328,-0.186532021,-0.240732282
16.64,-0.469240725,-0.131376267,-0.219821543
16.65,-0.460531622,-0.097704887,-0.382657349
16.66,-0.527124882,-0.085443497,-0.491143286
16.67,-0.538735867,-0.068205833,-0.387174845
16.68,-0.443351954,0.061563492,-0.210116655
16.69,-0.25660795,0.133882523,-0.224866957
16.7,-0.025647789,0.301959992,-0.134140074
16.71,-0.019537449,0.302246094,-0.13349241
16.72,-0.045942009,0.508312225,-0.005163074
16.73,-0.040661573,0.508527756,-0.005794346
16.74,-0.133642525,0.422556877,-0.017929435
16.75,-0.211997032,0.116425514,-0.250854552
16.76,-0.237012953,0.035481453,-0.340360552
16.77,-0.230642289,0.036094666,-0.334344626
16.78,-0.048144668,-0.04708004,-0.3368572
16.79,0.180622786,0.013341904,0.017851174
16.8,0.254214823,0.042579651,0.023238659
16.81,0.216007114,0.069385529,-0.08548075
16.82,0.186115414,0.122521401,-0.04265058
16.83,0.164532363,0.070197105,-0.041551352
16.84,0.108008653,0.032138824,-0.122489274
16.85,0.028767854,0.044238091,-0.034671724
16.86,0.024222642,0.04434967,-0.029007137
16.87,-0.121654481,0.085250854,-0.019551218
16.88,-0.056240052,0.044863701,0.070257783
16.89,0.096916854,-0.062566757,0.224820912
16.9,0.077416509,-0.124549866,0.403005958
16.91,0.088801414,-0.086015701,0.090598464
16.92,-0.032977641,-0.028180122,-0.402694285
16.93,-0.168161452,0.068113327,-0.216413438
16.94,-0.092779338,0.181103706,0.198590845
16.95,-0.095033854,0.181451798,0.205394119
16.96,-0.021778315,0.052494049,0.076194286
16.97,-0.008271128,0.033647537,0.039859056
16.98,0.084810615,-0.004421234,0.210324705
16.99,0.12769562,0.031672478,0.274469048
17,0.094973505,0.075076103,0.083536565
17.01,0.094588697,0.125915527,-0.051625669
17.02,0.059213728,0.076408386,-0.060131013
17.03,0.172302291,0.03410244,0.111104906
17.04,0.171653196,0.03484726,0.121851325
17.05,0.208798736,0.014034271,0.197084189
17.06,0.12382561,0.021962166,0.174183369
17.07,0.123135239,0.022815704,0.185718894
17.08,-0.031801939,-0.05039978,0.143545687
17.09,-0.128896594,-0.020577431,-0.034630597
17.1,-0.281009853,0.0044384,-0.14867115
17.11,-0.218020827,0.012578964,-0.079622805
17.12,-0.21760881,0.013458252,-0.069136441
17.13,-0.205037326,0.05981636,0.120673776
17.14,-0.202898026,0.060905457,0.132434368
17.15,-0.331403166,0.004570007,0.01730895
17.16,-0.253117919,-0.056571007,-0.036656678
17.17,-0.249447852,-0.055565834,-0.026937246
17.18,-0.14611128,-0.17203331,0.132089973
17.19,-0.11045,-0.106713295,0.145754576
17.2,-0.0964109,-0.031833649,0.070704162
17.21,-0.130403429,0.031096458,0.031706393
17.22,-0.128327221,0.031781197,0.038223267
17.23,-0.142779857,0.068430901,0.068916678
17.24,-0.108784825,-0.000296593,0.020196855
17.25,-0.139282882,-0.049706459,-0.007893443
17.26,-0.136507273,-0.04884243,2.74181E-05
17.27,-0.072227478,-0.007268906,0.053669214
17.28,-0.180392593,-0.013494492,-0.001843631
17.29,-0.178536236,-0.012581825,0.006619632
17.3,-0.274946034,-0.021292686,-0.339674234
17.31,-0.301028848,0.037002563,-0.234467804
17.32,-0.149638861,0.076030731,0.073073566
17.33,0.041376829,0.03354454,0.289116919
17.34,-0.104880989,-0.080844879,0.086320043
17.35,-0.027813375,-0.192694664,0.360968828
17.36,0.028426915,-0.206665993,0.479128122
17.37,-0.142009407,-0.225499153,-0.244105458
17.38,-0.20601064,-0.188897133,-0.406269789
17.39,-0.124256909,-0.066152573,-0.085355282
17.4,-0.041275561,0.058789253,0.109686911
17.41,-0.080223411,0.040053368,0.085240662
17.42,-0.080530196,0.040390015,0.088650763
17.43,-0.013830602,0.004710197,0.124584734
17.44,-0.052374899,-0.026268959,0.135739446
17.45,-0.03780368,-0.066723824,0.099607825
17.46,-0.037559241,-0.066402435,0.10264957
17.47,0.041610003,0.029798508,0.05393219
17.48,0.046270758,0.08283329,0.244174063
17.49,0.046516806,0.083171844,0.247384846
17.5,-0.024758846,-0.019280434,-0.059479952
17.51,-0.069235533,-0.047276497,-0.053141952
17.52,-0.001007855,-0.015412331,0.037063956
17.53,-0.033407569,-0.052949905,0.002949476
17.54,-0.010413885,0.005350113,0.067491293
17.55,-0.035706669,-0.027463913,0.004021049
17.56,-0.049483299,-0.043523788,-0.080749035
17.57,-0.111836314,0.007492065,0.007108927
17.58,-0.109324932,-0.018253326,0.050744653
17.59,-0.145411044,-0.051259041,0.055523634
17.6,-0.114177883,-0.04118824,0.009467125
17.61,-0.114273727,-0.04076767,0.013179421
17.62,0.019447088,0.021788597,0.219669044
17.63,0.049802065,0.057871819,0.231050611
17.64,-0.030293107,0.081991196,0.072739124
17.65,-0.122239292,0.077408791,0.060470104
17.66,-0.067854851,0.055912972,0.066144228
17.67,-0.068784028,0.055934906,0.06657207
17.68,-0.072387934,0.029602051,0.028970361
17.69,-0.018267542,0.060741425,0.254476965
17.7,-0.054887414,0.048899651,0.196152747
17.71,-0.057472825,0.066052437,0.091838002
17.72,-0.16737625,0.042624474,0.048221827
17.73,-0.166774094,0.043082237,0.052034616
17.74,-0.06137988,0.026771545,0.065521121
17.75,-0.042972565,-0.051938057,0.16414398
17.76,-0.07027778,-0.099565506,-0.151641488
17.77,-0.193225145,-0.034472466,-0.274377942
17.78,-0.193668634,-0.034028053,-0.270466924
17.79,0.051740706,-0.000296593,0.541243017
17.8,0.155841559,-0.098577499,0.218415737
17.81,0.122227699,-0.146206856,0.275336862
17.82,0.117854953,-0.146116257,0.277765036
17.83,-0.106139034,-0.076896667,0.090694785
17.84,-0.107901365,-0.076694489,0.093103647
17.85,-0.178852946,0.053013802,-0.024918675
17.86,-0.181475252,0.053103447,-0.023058772
17.87,0.119447589,0.096024513,0.281620383
17.88,-0.022778958,0.100507736,0.424866498
17.89,-0.128317088,0.095298767,0.358578026
17.9,-0.172683984,0.013656616,0.156829357
17.91,-0.175101757,0.013662338,0.157835245
17.92,-0.244891018,-0.041165352,0.090468287
17.93,-0.086699188,-0.038422585,0.074191689
17.94,0.011769921,0.036150932,0.37386173
17.95,0.056953281,0.00037384,0.33920145
17.96,0.092616796,0.007849693,0.054478407
17.97,0.005866975,0.008433342,0.040297389
17.98,0.060597777,0.052066803,0.109433651
17.99,0.021452397,0.066887856,0.293231547
18,0.147483736,0.096033096,0.165172219
18.01,0.078507394,0.062943459,0.025675178
18.02,0.023756921,0.068228722,-0.003051043
18.03,-0.048250139,0.035058975,-0.066332221
18.04,-0.050939679,0.035252571,-0.063777328
18.05,-0.120733887,-0.029279709,0.0530231
18.06,-0.029858589,0.030611992,0.264680803
18.07,-0.030061752,-0.02931881,0.229113936
18.08,-0.101980984,-0.017175674,0.188291788
18.09,-0.110431552,0.011816978,0.09028852
18.1,-0.09379366,0.012026787,-0.015765309
18.11,-0.046229184,0.012177467,0.019075632
18.12,-0.020558536,0.060042381,0.16517961
18.13,-0.021610498,0.059818268,0.163691998
18.14,0.079225719,0.083528519,0.234374046
18.15,-0.001327902,0.10027504,0.304194927
18.16,-0.001989722,0.100400925,0.305389047
18.17,-0.004283845,0.07427597,0.196937561
18.18,-0.065861106,0.060208321,0.24942869
18.19,0.033562511,0.046128273,0.18657887
18.2,0.019961715,0.027259827,0.22213459
18.21,0.075878233,-0.025187492,0.228557527
18.22,0.078514189,-0.084918022,0.121710062
18.23,-0.117510915,-0.044052124,-0.133331776
18.24,-0.099432021,0.001729965,-0.073992252
18.25,-0.062473387,-0.02204895,0.233424842
18.26,-0.062177181,-0.022107124,0.232849062
18.27,0.08895728,-0.235696793,0.265589237
18.28,-0.027809531,-0.221468926,0.023200989
18.29,-0.055586129,-0.123580933,0.490649939
18.3,0.05576244,0.002503395,0.35047394
18.31,0.011018932,0.054514885,-0.089887738
18.32,0.044847548,0.099913597,0.072767377
18.33,0.072140694,0.130544663,0.319087267
18.34,-0.002696812,0.120175362,0.443652928
18.35,-0.125253409,0.097647667,0.4948892
18.36,-0.146104485,0.010410309,0.384616554
18.37,-0.160566658,-0.071880341,0.234481275
18.38,-0.165445387,-0.093896866,0.101513743
18.39,-0.275079966,-0.062623024,0.084865451
18.4,-0.322530359,-0.03584671,0.192198575
18.41,-0.315599471,-0.03530407,0.194447815
18.42,-0.158099324,-0.068205833,0.218865693
18.43,-0.120386303,-0.024311066,-0.025760174
18.44,0.009601206,-0.009346008,0.190425277
18.45,0.013686955,-0.008996964,0.19191587
18.46,0.179157212,0.022413254,0.176462293
18.47,0.120973259,0.012993813,0.117215753
18.48,0.081353426,0.099241257,0.095843196
18.49,0.081563175,0.099131584,0.0949682
18.5,-0.002677202,0.094146729,0.160480499
18.51,0.089311093,0.062844276,0.140362978
18.52,-0.029908657,0.036481857,0.174305439
18.53,-0.0645051,0.050896645,0.258962572
18.54,-0.086827189,-0.001729012,0.137461186
18.55,-0.075385958,-0.011160851,0.052614808
18.56,-0.152767509,-0.0181427,0.059328079
18.57,-0.107519299,0.032365799,0.109086871
18.58,-0.045542687,0.039726257,0.122592211
18.59,-0.055136323,0.052042007,0.120547891
18.6,-0.223715782,0.050235748,0.055455804
18.61,-0.314283669,-0.004091263,-0.018576384
18.62,-0.272218823,-0.043940544,-0.068098068
18.63,-0.268543303,-0.043092728,-0.062582493
18.64,-0.052445859,-0.085508347,0.023166895
18.65,0.043108106,-0.017935753,0.249225259
18.66,-0.034612834,-0.039193153,0.253493488
18.67,-0.098002732,-0.036549568,0.147262693
18.68,-0.16159147,-0.062659264,0.033760905
18.69,-0.129858047,-0.100845337,-0.075559139
18.7,-0.218214661,-0.048116684,-0.118311286
18.71,-0.224639475,0.057291031,0.001508236
18.72,-0.101332694,0.0883255,0.30934149
18.73,0.023835272,0.047530174,0.609943509
18.74,0.023982823,0.047404289,0.608991861
18.75,-0.083845764,-0.052868843,0.077251792
18.76,-0.152186394,-0.088373184,0.290978193
18.77,-0.09484309,-0.042787552,0.187861323
18.78,-0.092836797,-0.042603493,0.188574433
18.79,-0.08260268,-0.01102066,-0.272582054
18.8,0.004778713,0.10631752,0.360092282
18.81,-0.054854006,0.106023789,0.327410042
18.82,-0.05710128,0.105680466,0.325623691
18.83,-0.104019105,0.014460564,0.127823234
18.84,-0.135712475,0.016713142,0.045506477
18.85,-0.159252703,0.002337456,0.023715019
18.86,-0.074177951,0.031224251,0.141849876
18.87,-0.008379459,0.052999496,0.227017164
18.88,-0.045812488,0.043712616,0.401358962
18.89,-0.003976345,0.012870789,0.185251117
18.9,-0.141499639,0.032517433,0.16477108
18.91,-0.139446586,0.03303051,0.168048501
18.92,-0.038608104,-0.100672722,0.04315567
18.93,-0.030166924,-0.102594376,-0.121270776
18.94,0.011095166,-0.013562202,-0.022325277
18.95,0.053568095,0.101302147,0.128252864
18.96,0.05190447,0.101011276,0.126695633
18.97,0.014318675,0.148679733,0.120829105
18.98,-0.254363686,0.107889175,0.08910501
18.99,-0.203331351,0.047948837,0.143275619
19,-0.202233762,0.047950745,0.142968178
19.01,-0.026270121,0.016832352,0.312677562
19.02,0.050991774,-0.026256561,0.348285914
19.03,0.012953013,-0.007084846,0.355584502
19.04,0.00377053,-0.045383453,0.334052384
19.05,0.009292185,-0.050225258,0.333312452
19.06,-0.037663579,-0.107855797,0.207110882
19.07,-0.033991545,-0.084104538,0.188547134
19.08,-0.033561081,-0.084413528,0.154814601
19.09,-0.033760279,-0.084791183,0.15185225
19.1,0.048951924,0.01278019,0.348672748
19.11,0.018345118,0.062202454,0.376293659
19.12,-0.016746581,0.075702667,0.331625044
19.13,-0.017606348,0.075003624,0.326408804
19.14,-0.172555953,0.103226662,0.204758048
19.15,-0.211881727,0.102964401,0.060989261
19.16,-0.2150352,0.112505913,0.040908098
19.17,-0.095887899,0.102948189,-0.00497365
19.18,-0.093754023,0.103210449,-0.003704667
19.19,-0.047812998,0.163523674,-0.077863455
19.2,0.048996478,0.104043961,0.802628636
19.21,0.1523799,-0.025131226,0.694697022
19.22,-0.025275379,-0.185193062,0.189371109
19.23,-0.022582531,-0.184762001,0.191640258
19.24,-0.079229414,-0.273429871,0.367023766
19.25,-0.07097739,-0.242539406,0.308780909
19.26,-0.015519738,-0.062855721,-0.165473104
19.27,0.074225634,0.006682396,0.143799186
19.28,-0.065721631,0.104511261,0.244357646
19.29,-0.112753302,0.170955658,0.156448841
19.3,-0.16736567,0.170322418,0.168939471
19.31,-0.168796182,0.169723511,0.16460228
19.32,-0.047769457,0.092636108,0.240240634
19.33,-0.047011942,0.092700958,0.240455806
19.34,-0.080972701,0.006861687,0.324007511
19.35,0.026809961,-0.08112812,0.25838232
19.36,0.053213209,-0.094914436,0.381849825
19.37,0.055698246,-0.094417572,0.384957135
19.38,0.117395312,-0.091487885,0.163336992
19.39,0.095032662,-0.064576149,0.165001035
19.4,-0.011560649,-0.076090813,0.156122923
19.41,-0.010361791,-0.075675011,0.158957243
19.42,-0.054957747,0.020460129,-0.022875667
19.43,-0.252629817,0.106958389,0.051045775
19.44,-0.165566087,0.10704422,0.060857296
19.45,-0.143957228,0.087897301,0.156709552
19.46,-0.145625472,-0.022203445,0.290759146
19.47,-0.144456893,-0.022233009,0.290039003
19.48,-0.14305687,-0.122765541,0.306463361
19.49,-0.145754695,-0.067546844,0.261374354
19.5,-0.152855784,0.016435623,0.252277672
19.51,-0.183616191,0.047742844,0.221398234
19.52,-0.180405408,0.047951698,0.22183311
19.53,-0.074391186,0.048237801,0.000176787
19.54,-0.091225922,0.098892212,0.028490067
19.55,-0.089105427,0.099172592,0.029790044
19.56,-0.144589007,0.109075546,0.122495055
19.57,-0.142674387,0.109425545,0.124459624
19.58,-0.043154299,0.109814644,0.141348124
19.59,-0.09198606,0.052774429,0.225462794
19.6,-0.090281844,0.053146362,0.227616668
19.61,0.025711894,0.019887924,0.102373123
19.62,-0.006885231,0.058520317,0.16431737
19.63,0.058167547,0.001235962,0.139182687
19.64,-0.004619956,-0.032094955,0.059505224
19.65,-0.072677553,-0.053462029,0.006219625
19.66,-0.073292017,-0.05333519,0.007352471
19.67,-0.057356834,0.047203064,0.311674416
19.68,-0.015114367,-0.02945137,0.429017842
19.69,0.100654453,-0.137311935,0.469535112
19.7,0.102868915,-0.183032036,0.351518393
19.71,0.05959025,-0.099547386,0.409855485
19.72,0.024564564,-0.006790161,0.235716581
19.73,0.023706913,-0.007177353,0.233079791
19.74,-0.1033265,0.110356331,-0.035694003
19.75,-0.056122065,0.11051178,0.200348973
19.76,-0.019829035,0.136775971,0.34898746
19.77,0.027474314,0.110170364,0.386505604
19.78,0.024109334,0.10984993,0.385287404
19.79,-0.093433023,0.08806324,0.303158462
19.8,-0.149836272,0.023300171,0.254877806
19.81,-0.149323374,0.023425102,0.255599737
19.82,-0.138230532,-0.040863037,0.142860651
19.83,0.055116862,-0.167338371,0.21004808
19.84,0.176205367,-0.138287544,0.492093742
19.85,0.152883351,-0.174025536,0.349636734
19.86,0.152828664,-0.173676491,0.352213323
19.87,-0.06200552,-0.103764534,0.049266219
19.88,-0.061021805,-0.103193283,0.053125739
19.89,-0.21306935,0.074457169,-0.113671541
19.9,-0.212762117,0.074642181,-0.112300277
19.91,-0.162160903,0.127345085,0.141586304
19.92,-0.162493616,0.127354622,0.141766906
19.93,-0.012480319,0.156235695,0.174360871
19.94,-0.050942719,0.101516724,0.141093969
19.95,-0.155339956,-0.036921501,0.060280681
19.96,-0.15393126,-0.036413193,0.063463926
19.97,-0.090035856,-0.122205734,0.168859839
19.98,-0.016722143,-0.124424934,0.315606833
19.99,0.029920191,-0.117229462,0.370266616
20,0.030435473,-0.117227554,0.370115221
20.01,-0.092954099,-0.116957665,0.000651002
20.02,-0.091392577,-0.116660118,0.002249718
20.03,-0.078356206,-0.085349083,0.144525409
20.04,0.025081903,-0.06139946,0.156383991
20.05,0.024704546,-0.061405182,0.156386852
20.06,0.045464724,-0.042379379,0.244410992
20.07,0.058282107,0.005352974,0.258226037
20.08,0.056416243,0.005155563,0.257422328
20.09,-0.055342317,0.062408447,0.179946899
20.1,-0.056647539,0.062204361,0.178912282
20.11,-0.079675436,0.030955315,-0.020151019
20.12,-0.174468756,0.026062012,-0.037200212
20.13,-0.175409406,0.025985718,-0.037454486
20.14,-0.278566808,0.049846649,0.000321984
20.15,-0.240020424,-0.005208015,0.041081309
20.16,-0.239934355,-0.005198479,0.041128159
20.17,-0.046633691,-0.091591835,0.568897367
20.18,0.058073998,-0.180644035,0.457932532
20.19,0.067727715,-0.200281143,0.250701666
20.2,0.07791698,-0.061915398,-0.007151008
20.21,-0.087090582,-0.01911068,-0.126667142
20.22,-0.044305384,0.066994667,0.15528214
20.23,-0.025210649,0.109745026,0.290076494
20.24,-0.051063061,0.097150803,0.229453921
20.25,-0.055190742,0.096497536,0.226065517
20.26,-0.144784749,0.031137466,0.183514118
20.27,-0.047137618,-0.067781448,0.22190845
20.28,-0.113721609,-0.027612686,0.302287519
20.29,-0.0667696,-0.023249626,0.115094662
20.3,-0.067106307,-0.023103714,0.116192937
20.31,0.006420314,-0.02523613,0.204761148
20.32,0.005372763,-0.025071144,0.20645678
20.33,0.123638958,0.01096344,0.171952009
20.34,0.122126192,0.011273384,0.174875736
20.35,-0.00149253,0.018783569,0.077489018
20.36,-0.070253968,0.016730309,0.047328472
20.37,-0.108216792,0.086515427,0.021954656
20.38,-0.137088656,0.11066246,0.139332414
20.39,-0.139671356,0.110650063,0.14031446
20.4,-0.213288277,0.110630035,0.236521602
20.41,-0.279037952,-0.011360168,0.007871747
20.42,-0.228984475,-0.118904114,-0.021587968
20.43,-0.188074648,-0.176190376,0.032376766
20.44,-0.10628283,-0.142649651,0.151994586
20.45,-0.048747033,-0.037501335,0.363591611
20.46,-0.048989743,-0.037922859,0.360491335
20.47,-0.05172503,0.031230927,0.284247518
20.48,-0.051372647,0.031089783,0.283104777
20.49,-0.113135219,0.030982971,0.162304401
20.5,0.008943439,0.016562462,0.03750515
20.51,0.029414058,0.045080185,0.15351522
20.52,0.111371756,0.109379768,0.285628915
20.53,0.096669912,0.111392021,0.321934819
20.54,0.002946794,0.108878136,0.264476895
20.55,0.000641286,0.108983994,0.266165614
20.56,-0.077594042,0.075854301,0.166789651
20.57,-0.019572139,0.016444206,0.151735187
20.58,0.03798902,-0.016705513,0.131363869
20.59,0.049276859,-0.014014244,0.12041533
20.6,-0.020852894,0.024581909,0.011087656
20.61,-0.13822487,0.046422958,-0.000311494
20.62,-0.161022067,0.087433815,0.007294416
20.63,-0.075435698,0.109370232,0.407898068
20.64,-0.016578436,0.044951439,0.35715878
20.65,0.103915274,-0.110378265,0.281049848
20.66,0.163830251,-0.169973373,0.630799174
20.67,0.1856291,-0.122414589,0.602859974
20.68,0.0018543,-0.068030357,-0.081632376
20.69,-0.07110101,0.049194336,-0.000684142
20.7,-0.023129612,0.130254746,0.313568056
20.71,-0.000528634,0.182357788,0.423012018
20.72,-0.038415015,0.150590897,0.299891174
20.73,-0.114303857,0.078235626,0.24928236
20.74,-0.212830305,-0.044303894,0.208564639
20.75,-0.087263495,-0.058846474,0.181225061
20.76,-0.13379097,-0.051563263,0.155981183
20.77,-0.133291185,-0.051152229,0.158997893
20.78,-0.141286492,-0.028938293,0.029476523
20.79,-0.07675904,-0.07117939,0.107000947
20.8,-0.0057455,-0.09913063,0.055011153
20.81,0.102255732,-0.146245003,-0.133310676
20.82,0.110601038,-0.037805557,0.236277819
20.83,0.134343147,0.048697472,0.423654318
20.84,0.178781852,0.089556694,0.152970314
20.85,-0.021044612,0.113925934,-0.041457772
20.86,-0.023821384,0.11436367,-0.037535667
20.87,-0.08165887,0.009296417,-0.123275399
20.88,-0.068324029,-0.050331116,-0.09892714
20.89,-0.007235885,-0.007086754,0.008543372
20.9,-0.011003703,-0.007181168,0.008982301
20.91,-0.157235175,-0.031255722,0.355769992
20.92,-0.011110157,-0.055314064,0.180811405
20.93,-0.051607907,-0.052885056,0.200848818
20.94,-0.053312808,-0.052897453,0.201281309
20.95,0.073735297,-0.033846855,0.122191906
20.96,0.073695719,0.006743431,0.121969819
20.97,0.011573076,-0.015044212,0.087317109
20.98,0.071348399,-0.046506882,0.018603325
20.99,0.067787796,-0.046881676,0.01674521
21,0.001419783,-0.004462242,0.221240163
21.01,0.164629117,0.001875877,0.26642704
21.02,-0.026996672,0.063317299,0.355180085
21.03,-0.030575693,0.088823318,0.261332989
21.04,-0.05254975,0.085736275,0.129868984
21.05,-0.059731334,0.058825493,0.04729116
21.06,-0.061807424,0.058377266,0.044501305
21.07,-0.098475933,-0.011554718,0.227765083
21.08,-0.237767488,-0.067155838,0.266847491
21.09,-0.323003292,-0.036540985,-0.06768918
21.1,-0.321261197,-0.036891937,-0.070749164
21.11,-0.134986043,-0.001503944,0.434620738
21.12,0.171541035,-0.141407967,0.838574767
21.13,0.026999056,-0.216766357,0.097452283
21.14,0.027233303,-0.217338562,0.092858553
21.15,-0.120003611,-0.11518383,0.462379634
21.16,0.014423937,-0.023186684,0.431559503
21.17,0.011807472,0.001804352,0.087590337
21.18,0.029567748,0.06310463,0.180276394
21.19,0.000355542,0.047524452,0.22335732
21.2,-0.007993281,0.017331123,0.223828793
21.21,-0.105719477,0.029961586,0.294018984
21.22,-0.181867927,0.023280144,0.379302025
21.23,-0.183354676,0.021320343,0.363384366
21.24,0.081003189,0.089125633,0.311657012
21.25,0.080403835,0.087751389,0.300010383
21.26,-0.107149094,0.086486816,0.52552861
21.27,-0.110744983,0.023262024,0.293256104
21.28,0.044437379,-0.068354607,0.123445809
21.29,0.047646791,-0.068705559,0.119283974
21.3,0.145713285,-0.045036316,-0.003504872
21.31,0.147028461,-0.045438766,-0.007598877
21.32,0.181101173,0.05450058,0.285964727
21.33,0.264313847,0.080163002,0.469142795
21.34,-0.116307795,0.036561966,0.134244859
21.35,-0.194404542,-0.05480957,-0.089984536
21.36,-0.241319567,-0.12694931,-0.181791544
21.37,-0.293238342,-0.156165123,-0.162477136
21.38,-0.139664054,-0.104157448,-0.106462121
21.39,-0.003734231,-0.069057465,0.012965918
21.4,-0.005105734,-0.069978714,0.004801273
21.41,-0.012613177,0.06317234,0.18549037
21.42,-0.190915763,0.194077492,0.330740571
21.43,-0.189154685,0.193511009,0.324770927
21.44,-0.065252453,0.140510559,0.064657211
21.45,-0.062522888,0.140327454,0.061911702
21.46,-0.085228115,0.101943016,-0.014408112
21.47,-0.095616758,0.039621353,-0.040346384
21.48,0.075416625,-0.077765465,0.101302862
21.49,0.171571136,-0.073056221,0.157096624
21.5,0.173743874,-0.073126793,0.155491531
21.51,0.120444387,-0.032594681,0.323258042
21.52,0.098037034,-0.028130531,0.405718625
21.53,0.17027238,-0.007071495,0.331129134
21.54,0.154717654,0.025802612,0.334780335
21.55,0.152737469,0.025091171,0.328527749
21.56,0.114616185,0.041162491,0.276992559
21.57,0.055453807,0.055006027,0.104692042
21.58,-0.222778618,0.057025909,-0.293823719
21.59,-0.184084147,0.095082283,-0.088298321
21.6,0.045870572,0.145075798,0.375675023
21.61,0.045250535,0.144827843,0.373277903
21.62,-0.100755662,-0.015695572,0.441595376
21.63,-0.099668086,-0.075395584,0.054943323
21.64,-0.198322088,-0.041643143,0.087746501
21.65,-0.195288509,-0.041552544,0.087467134
21.66,-0.062688023,-0.039113998,-0.272599399
21.67,-0.06113559,-0.038942337,-0.271328092
21.68,-0.066894889,0.061230659,0.491201818
21.69,-0.114416957,0.067670822,0.462908536
21.7,-0.045117199,0.06211853,0.238015235
21.71,-0.047875702,0.06141758,0.231778979
21.72,-0.012216747,0.031967163,0.117489934
21.73,-0.119183362,0.019325256,0.10868001
21.74,-0.022052109,0.021129608,0.234675407
21.75,0.043492675,0.054196358,0.393162966
21.76,0.099360079,0.065811157,0.416245937
21.77,-0.009647161,0.063215256,0.383418798
21.78,-0.141675383,0.063136101,0.236778259
21.79,-0.068938315,0.005744934,0.102940857
21.8,0.019828796,-0.003684998,0.030182004
21.81,0.018924922,-0.00356102,0.115755618
21.82,-0.022916049,0.015573502,0.257397175
21.83,0.006965667,0.065735817,0.263631344
21.84,-0.063610107,0.070310593,0.185267389
21.85,-0.212306917,0.06543541,0.136510372
21.86,-0.230452806,0.065413475,0.025784552
21.87,-0.228852332,0.065470696,0.025756538
21.88,-0.243788183,-0.001536369,0.255313456
21.89,-0.186316401,-0.013493538,0.240050554
21.9,-0.133489102,0.027243614,0.189070523
21.91,-0.130511254,0.027277946,0.188179731
21.92,0.065637708,0.043995857,0.373496413
21.93,0.052880377,-0.001597404,0.362193227
21.94,0.059057742,-0.020890236,0.199750245
21.95,0.059881568,-0.021025658,0.197945237
21.96,-0.046883702,-0.033213615,0.18555367
21.97,-0.041923225,1.71661E-05,0.129525662
21.98,-0.06365642,0.042840958,0.234341919
21.99,0.003458172,0.064117432,0.446818709
22,-0.02984041,0.054234505,0.378605366
22.01,-0.028470457,0.054160118,0.377225876
22.02,-0.062571168,0.059018135,0.262231112
22.03,-0.120000869,-0.027022362,0.042652845
22.04,-0.12501213,-0.00049305,0.072462022
22.05,-0.066081733,-0.01479435,0.058250666
22.06,-0.029502094,-0.024365425,0.187366188
22.07,-0.137102425,-0.017287254,0.195661426
22.08,-0.188676179,0.066429138,0.242146373
22.09,-0.127343088,0.063975334,0.231193304
22.1,-0.008798897,0.016061783,0.407503992
22.11,-0.094904959,-0.113404274,0.434311003
22.12,-0.061332405,-0.271715164,0.354487538
22.13,-0.130191118,-0.281646729,0.287821472
22.14,-0.163758695,-0.114394188,0.222940683
22.15,-0.088606954,-0.076295853,-0.061048508
22.16,-0.02643919,-0.09058094,0.036821544
22.17,0.003315568,0.021930695,0.311651707
22.18,-0.026130915,0.062207222,0.354870409
22.19,-0.089764357,0.080747604,0.422768384
22.2,-0.091166645,0.080002785,0.414766878
22.21,-0.071025699,0.050605774,0.323757172
22.22,-0.167406559,-0.026516914,0.181516588
22.23,-0.130532146,-0.077133179,0.050278783
22.24,-0.129548341,-0.077267647,0.04795593
22.25,-0.107010007,-0.039110184,0.03621608
22.26,-0.024874777,-0.041696548,0.275412202
22.27,0.016166329,0.022814751,0.184948266
22.28,0.016814411,0.02286911,0.185236454
22.29,0.036620647,0.056577683,-0.030709565
22.3,-0.022563934,0.059055328,0.216707408
22.31,0.025310099,0.097328186,0.271321535
22.32,0.01295644,0.128419876,0.244791031
22.33,0.01276961,0.12843132,0.244903266
22.34,-0.341083884,0.059094429,0.181274295
22.35,-0.250409424,-0.024551392,0.088690817
22.36,-0.248720586,-0.024416924,0.089347243
22.37,-0.256447822,-0.091418266,0.024224281
22.38,-0.075416416,-0.112998962,0.054196
22.39,-0.074065506,-0.113053322,0.052961469
22.4,0.010755986,-0.003017426,0.355185568
22.41,-0.063848794,0.006503105,0.319951296
22.42,-0.018232554,-0.015075684,0.205756247
22.43,-0.044453353,-0.03901577,0.17809701
22.44,-0.111338526,-0.074977875,0.202620864
22.45,-0.044674158,-0.067894936,0.099872828
22.46,0.013173789,-0.04883194,0.00013876
22.47,0.012687266,-0.049004555,-0.001451135
22.48,0.125652641,0.017688751,0.337596625
22.49,0.023177654,0.053354263,0.297312528
22.5,-0.030318111,0.031672478,0.176309943
22.51,-0.030849963,0.031635284,0.176173747
22.52,-0.026888877,0.055521011,0.017930627
22.53,-0.056976497,0.038592339,0.150621772
22.54,0.034616113,0.045467377,0.238792062
22.55,0.032045901,0.045128822,0.235734999
22.56,-0.129801542,0.006631851,0.126465261
22.57,-0.253871381,0.037677765,0.086928844
22.58,-0.123840988,0.001747131,0.153393388
22.59,0.014649272,-0.070129395,0.270255148
22.6,0.05383569,-0.091901779,0.591506004
22.61,0.138365001,-0.123413086,0.575513661
22.62,-0.02370128,-0.004145622,0.328983039
22.63,0.008039296,0.055422783,-0.046011984
22.64,0.053650916,0.009865761,-0.23626852
22.65,0.052720577,0.009815216,-0.236382544
22.66,0.045741916,0.031011581,0.179278553
22.67,-0.031218082,0.054335594,0.440908819
22.68,-0.024731368,0.034536362,0.312009811
22.69,-0.118296027,-0.011517525,0.258149892
22.7,-0.119507104,-0.011940956,0.253237039
22.71,-0.174456239,-0.117529869,0.075103879
22.72,-0.049300849,-0.14392376,0.076409161
22.73,0.082484514,-0.153547287,0.135725379
22.74,0.192109481,-0.112959862,0.524546623
22.75,0.190959737,-0.113274574,0.521057606
22.76,0.131735742,-0.075276375,0.290266812
22.77,-0.054143667,-0.041895866,0.047348499
22.78,-0.073821992,-0.049139977,0.030236185
22.79,-0.089613497,-0.022960663,0.038133323
22.8,-0.072450191,0.051007271,0.17726028
22.81,-0.024465173,0.105727196,0.322249025
22.82,-0.132054806,0.069494247,0.216052324
22.83,-0.199423045,0.050206184,0.11147058
22.84,-0.280032933,-9.44138E-05,0.065259218
22.85,-0.170008361,-0.071925163,0.142795563
22.86,-0.129707187,-0.096007347,0.324217498
22.87,0.044317931,-0.065128326,0.358038515
22.88,0.099983126,-0.043926239,0.307379544
22.89,0.100257635,-0.044219017,0.303321183
22.9,-0.054688513,-0.00610733,0.110786736
22.91,-0.14961642,0.012831688,0.193528473
22.92,-0.038460225,-0.04010582,0.088731766
22.93,0.009580374,-0.028305054,0.141057491
22.94,-0.009919852,0.000248909,0.26796931
22.95,-0.024568766,0.019267082,0.230362415
22.96,-0.091540813,0.00965023,0.129227698
22.97,-0.090986401,0.009669304,0.128965855
22.98,-0.10017845,-0.026255608,0.090272844
22.99,-0.045159966,0.03588295,0.189334214
23,0.002328008,0.047683716,0.332990229
23.01,0.049246341,0.047419548,0.380088419
23.02,-0.083130419,0.035232544,0.326954424
23.03,-0.197477698,-0.029489517,0.066922545
23.04,-0.33929044,-0.055714607,-0.147955477
23.05,-0.340880245,-0.026767731,-0.122691691
23.06,-0.223323882,-0.026667595,-0.031876445
23.07,0.108508527,0.021198273,0.491279692
23.08,0.117187291,0.008995056,0.888108611
23.09,0.045006007,-0.039227486,0.806711614
23.1,-0.063730955,-0.096934319,0.239690661
23.11,-0.185294777,-0.101659775,-0.347870529
23.12,-0.194759786,-0.111050606,-0.471266985
23.13,-0.062915981,-0.067901611,-0.101909161
23.14,0.029797763,0.096982002,0.570510984
23.15,-0.034415364,0.161045075,0.655159533
23.16,-0.040337056,0.100603104,0.454377353
23.17,-0.198254734,0.016401291,0.026044905
23.18,-0.252966106,-0.074625969,-0.125746012
23.19,-0.314393371,-0.084197998,0.007963359
23.2,-0.313018501,-0.084187508,0.007161975
23.21,0.034698069,-0.000400543,0.250896961
23.22,0.034565091,-0.000402451,0.25088349
23.23,0.031892478,0.045083046,0.523976386
23.24,-0.007566571,0.035673141,0.169149607
23.25,-0.006459832,0.03597641,0.173132569
23.26,-0.069754303,-0.068968773,-0.03939867
23.27,-0.092934012,-0.095000267,0.160879731
23.28,0.010452628,-0.00866127,0.239638776
23.29,-0.025792092,0.046488762,0.231425971
23.3,-0.080789685,0.063350677,0.228117406
23.31,-0.080391854,0.063485146,0.229985535
23.32,-0.220412463,0.046960831,0.122455895
23.33,-0.271343917,-0.041376114,-0.04463315
23.34,-0.255047023,-0.105829239,0.088713765
23.35,-0.162299275,-0.112961769,0.138699532
23.36,0.013970226,-0.060258865,0.272016108
23.37,0.000610232,-0.012418747,0.378613979
23.38,-0.093755394,-0.024392128,0.346495897
23.39,-0.055574685,-0.048284531,0.17329967
23.4,-0.086927027,-0.081672668,-0.008083582
23.41,-0.109408647,-0.098327637,-0.009474218
23.42,-0.120492995,-0.086295128,0.065056324
23.43,0.027795315,-0.048023224,0.110057116
23.44,-0.026010722,0.004581451,0.155217528
23.45,-0.010484219,-0.000294685,0.190680981
23.46,-0.083624065,-0.000358582,0.078012109
23.47,-0.190089673,-0.012294769,0.131901383
23.48,-0.133577079,0.014007568,0.083966792
23.49,-0.080076486,-0.043532372,0.00230366
23.5,0.051977724,0.042534828,0.178925306
23.51,0.011037827,0.027982712,0.254497528
23.52,-0.089185417,-0.003188133,0.147319198
23.53,-0.089789301,-0.003099442,0.148998559
23.54,-0.270809084,0.047374725,-0.044913828
23.55,-0.080854803,0.014079094,0.192505091
23.56,0.061780989,-0.074512482,0.377527118
23.57,0.149993658,-0.158447266,0.245450407
23.58,0.132021487,-0.184978485,0.505824864
23.59,0.174160555,-0.106301308,0.603343725
23.6,0.17107676,-0.106660843,0.599866986
23.61,-0.149160355,0.051311493,-0.225884855
23.62,-0.048554689,0.127864838,0.073874712
23.63,-0.038551331,0.180179596,0.432403982
23.64,-0.044159919,0.179512024,0.42585969
23.65,0.070257276,0.087816238,0.54031229
23.66,-0.073866844,0.044018745,0.362552226
23.67,-0.21399048,0.026797295,0.134602308
23.68,-0.297457695,-0.021345139,0.069549561
23.69,-0.18548131,-0.050219536,0.055506051
23.7,-0.07150808,-0.069550514,0.067519546
23.71,-0.072744042,-0.069750786,0.065431654
23.72,0.12216793,-0.060373306,0.501058221
23.73,0.170351073,-0.101324081,0.242019504
23.74,0.115567952,-0.108595848,0.004782915
23.75,0.113831759,-0.10853672,0.006768525
23.76,0.013953626,-0.118087769,0.199798137
23.77,0.066538453,-0.163611412,0.04483366
23.78,0.041730553,-0.091841698,0.09852773
23.79,0.038246214,-0.091992378,0.098258257
23.8,-0.125840485,0.061037064,0.149718821
23.81,-0.236322492,0.041826248,0.018456876
23.82,-0.237798095,0.041892052,0.020346642
23.83,-0.286348462,-0.005899429,0.09411025
23.84,-0.109329999,-0.084840775,0.078708768
23.85,-0.009498924,-0.087169647,0.089620352
23.86,-0.010313958,-0.087091446,0.09107995
23.87,-0.021966279,-0.029606819,0.182377368
23.88,-0.100153893,0.042228699,0.215424389
23.89,-0.10874182,0.04222393,0.119033814
23.9,-0.043295264,0.023039818,0.094460309
23.91,-0.042927086,-0.010545731,-0.026586115
23.92,-0.033126116,-0.044172287,0.053013623
23.93,-0.037766188,-0.032319069,0.137306064
23.94,-0.044839829,-0.044363976,0.205271721
23.95,-0.044269353,-0.044415474,0.204242408
23.96,-0.100302935,-0.025190353,0.065846205
23.97,-0.058095843,0.006124496,-0.037463725
23.98,-0.054496467,0.015915871,-0.044232726
23.99,-0.122815937,0.042431831,0.06812036
24,-0.071611315,0.042531967,0.136210471
24.01,-0.085994869,0.042568207,0.189467281
24.02,-0.217718393,0.037848473,-0.125597954
24.03,-0.216886997,0.038054466,-0.122801602
24.04,-0.358545095,0.043026924,-0.269162178
24.05,-0.320951194,-0.009577751,0.020559669
24.06,0.016355515,-0.117425919,0.471535027
24.07,-0.160488576,-0.241893768,-0.035778224
24.08,-0.121366173,-0.208455086,0.343190014
24.09,-0.039026052,-0.153586388,0.368271619
24.1,-0.137655348,-0.189473152,-0.357689321
24.11,-0.173948795,-0.179648399,-0.453182221
24.12,-0.122492433,-0.167618752,-0.139409423
24.13,-0.128084332,-0.124790192,0.108245552
24.14,0.056573182,-0.051029205,0.453909278
24.15,0.009790659,-0.116271973,0.405942142
24.16,-0.073999465,-0.15732193,0.059358716
24.17,-0.287987799,-0.186135292,-0.279252291
24.18,-0.273066968,-0.140532494,-0.440490663
24.19,-0.272258788,-0.140339851,-0.437973678
24.2,-0.202563465,-0.10191536,-0.146231115
24.21,-0.202953398,-0.101895332,-0.145848215
24.22,-0.12291956,-0.037295341,-0.002310395
24.23,0.00386712,0.041662216,0.067768276
24.24,-0.090070307,0.07287693,-0.201958895
24.25,-0.161146402,0.022776604,-0.159884453
24.26,-0.150090486,-0.063232422,-0.213965595
24.27,-0.15094614,-0.063076973,-0.211061657
24.28,-0.106382191,-0.146719933,-0.229691625
24.29,-0.038188785,-0.079639435,-0.110899746
24.3,-0.081306249,-0.050951958,-0.194097936
24.31,-0.192906559,-0.014992714,-0.226310134
24.32,-0.193487793,-0.014979362,-0.225580633
24.33,-0.288621754,-0.053258896,-0.201604664
24.34,-0.246867567,-0.148978233,-0.36413008
24.35,-0.281205446,-0.156086922,-0.418789208
24.36,-0.279179931,-0.155976296,-0.418383539
24.37,-0.129410148,-0.072107315,-0.427334547
24.38,-0.318868697,0.069378853,-0.389092922
24.39,-0.474625111,0.043442726,-0.605526507
24.4,-0.572354794,0.015496254,-0.877969563
24.41,-0.552106738,-0.007214546,-1.094849467
24.42,-0.553154826,0.00169754,-1.048033595
24.43,-0.629378855,-0.0729599,-0.781485856
24.44,-0.546407342,-0.195468903,-0.520881057
24.45,-0.349910796,-0.368524551,-0.469800413
24.46,-0.450267404,-0.505944252,-0.275490403
24.47,-0.543536902,-0.672519684,-0.158929825
24.48,-0.416603565,-0.8060112,-0.309445858
24.49,-0.600664496,-0.930382729,-0.400155783
24.5,-0.822744906,-1.054851532,-0.534619033
24.51,-1.104495525,-1.226994514,-0.729732871
24.52,-1.030898809,-1.367342949,-1.054023623
24.53,-0.86593622,-1.604939461,-0.883951783
24.54,-0.621931851,-1.852646351,-0.296347618
24.55,-0.366346121,-2.179564953,0.37566483
24.56,-0.560775459,-2.448990822,-0.113530636
24.57,-0.534836471,-2.55995369,-0.488474846
24.58,-0.658493996,-2.795197487,-0.71500361
24.59,-0.822270572,-2.924968719,-0.746393621
24.6,-1.151676774,-2.987846851,-1.133426905
24.61,-1.155187607,-2.99030447,-1.232080698
24.62,-0.372166514,-2.731340408,-1.047481418
24.63,-0.323686421,-2.54814291,-0.346278429
24.64,0.070898354,-2.272398949,0.085318938
24.65,0.329728425,-1.845984936,0.270656049
24.66,0.320034355,-1.502636909,0.525746107
24.67,0.279684603,-1.493232727,0.347511351
24.68,-0.026543349,-1.173542976,0.433193505
24.69,-0.278143078,-1.255138397,0.159447312
24.7,-0.550270796,-1.663674355,0.394178271
24.71,-0.780711711,-2.339316845,0.390480042
24.72,-0.884582818,-2.892158031,0.245819449
24.73,-0.918273807,-2.862875462,0.073811531
24.74,-0.186901391,-3.477893829,-1.181983232
24.75,0.342364073,-3.38173914,-1.12995553
24.76,1.262261271,-2.827187061,-1.09416008
24.77,1.21326983,-2.786058903,-1.261620998
24.78,2.577703238,-0.790177345,-0.80175221
24.79,2.807208776,0.598540306,-0.314650774
24.8,3.143232346,1.710814476,0.505429745
24.81,2.86686635,2.966141701,1.286324978
24.82,2.797196388,3.025145531,1.120828152
24.83,1.928817391,4.217998505,1.326710701
24.84,1.331508994,5.045948029,0.925910235
24.85,1.102378488,4.979101181,0.242693663
24.86,0.247339606,3.204489708,-1.34865284
24.87,-0.480881691,2.154753685,-2.009001255
24.88,-0.827336192,0.991141319,-2.313621521
24.89,-0.859360814,1.023211479,-2.379098177
24.9,-0.592515647,-0.075072289,-2.194377899
24.91,-0.156593442,-0.819075584,-1.676157713
24.92,1.58030355,-1.626932144,0.046332836
24.93,1.689705849,-1.331640244,0.986512661
24.94,1.787850499,-0.547635078,1.633455276
24.95,2.246308088,0.400657654,1.606855869
24.96,2.219414711,1.445538521,1.41335535
24.97,1.698159099,2.562297821,1.139348984
24.98,0.88643682,3.527385712,0.715595722
24.99,0.865347266,3.5513134,0.675195217
25,-0.647079229,4.001091957,-0.204067707
25.01,-0.891993523,3.964953423,-0.400104523
25.02,-0.76459235,3.810987473,-0.334243298
25.03,-0.156875014,3.657648087,-0.026699066
25.04,0.607239783,3.490085602,0.510564327
25.05,1.036271095,3.526579857,0.908214569
25.06,0.459836483,3.533040047,0.878734112
25.07,0.49321121,3.514953613,0.906329155
25.08,-0.097250342,3.951535225,0.529129505
25.09,-1.003845334,4.889332771,-0.852870703
25.1,-1.333087444,5.459287643,-0.83272624
25.11,-1.020240307,5.580075264,-0.597985506
25.12,-0.434328914,5.243833542,-0.230033875
25.13,-0.592681766,4.202759743,0.479277134
25.14,-0.57790798,4.195067406,0.492706776
25.15,-1.69058764,-0.188926697,3.669226646
25.16,-1.682844639,-2.604833126,4.073400974
25.17,-1.342455149,-4.200878143,4.167815685
25.18,-1.752846956,-4.69972086,4.968013763
25.19,-1.758193493,-4.324923515,4.744218826
25.2,-1.109832764,-3.076625347,3.21751833
25.21,-0.555219472,-0.703251362,1.673037052
25.22,-1.275582194,1.868712425,1.095293045
25.23,-1.235988617,1.88210392,1.064678669
25.24,-2.934230566,7.195871353,2.21308279
25.25,-5.167319298,9.006818771,3.800774097
25.26,-5.732290745,9.878479004,4.670294285
25.27,-3.035347223,10.45682907,5.418928146
25.28,-1.392340183,11.08294868,5.535087109
25.29,-1.43698597,10.97467995,4.290829659
25.3,-1.376915932,10.95571423,4.327962399
25.31,-2.173667192,10.58301735,1.281263828
25.32,-2.283550978,7.127070427,-2.58343792
25.33,-2.145321369,4.970230103,-2.104818583
25.34,-1.324114561,2.272870064,0.445373058
25.35,0.181388035,-0.617137909,2.621652126
25.36,0.160070822,-0.671066284,2.735085964
25.37,1.840996742,-5.029484749,1.278787851
25.38,1.747355938,-6.906129837,-1.292145729
25.39,1.861044765,-9.049380302,-3.595323801
25.4,1.838924646,-9.101834297,-3.463251591
25.41,1.89440906,-10.71272373,-4.417657852
25.42,0.844617426,-12.01593399,-5.404284477
25.43,0.160383463,-11.9330883,-5.024740696
25.44,0.093503781,-11.93697357,-5.012701988
25.45,0.36801964,-11.63491726,-4.056411743
25.46,0.626198709,-11.44414425,-3.101135731
25.47,1.544583917,-10.76063347,-1.640590191
25.48,1.211912394,-10.47385406,-1.330537796
25.49,1.146195889,-10.46409035,-1.34745574
25.5,1.14556098,-9.221982956,-3.095953465
25.51,2.100522041,-6.177984715,-4.004387856
25.52,3.834415913,-3.346717358,-2.126924276
25.53,4.951201916,-0.439145088,-0.686129808
25.54,7.13437891,3.229424477,1.26652956
25.55,9.126278877,6.660937309,1.527124405
25.56,8.621496201,9.584581375,2.763002396
25.57,6.557997227,12.14446831,5.091021538
25.58,3.166125059,14.58087444,7.242307663
25.59,-0.414957106,15.80029869,8.247890472
25.6,-1.066094518,14.69676208,7.648038387
25.61,-0.539308488,11.83051586,4.717433929
25.62,0.436406612,9.172384262,1.468311787
25.63,0.477872729,9.162654877,1.481096983
25.64,0.82250613,7.377326965,0.070314646
25.65,0.901202798,7.369842529,0.069257736
25.66,0.088341475,5.70635891,5.695724487
25.67,-1.084558249,5.104276657,8.488269806
25.68,-1.935381889,3.230359077,9.324924469
25.69,-1.065365076,0.268732071,9.898363113
25.7,0.687986076,-3.886903286,9.449053764
25.71,-0.33610189,-7.867817879,4.524002075
25.72,-3.061138153,-10.26926136,-2.824075222
25.73,-3.026210308,-10.29747581,-2.747777462
25.74,-6.145259857,-12.40969849,-10.51634693
25.75,-5.368070126,-12.42020226,-7.936448097
25.76,-4.375865936,-13.02309608,-4.923187733
25.77,-4.370509148,-13.02904892,-4.90499115
25.78,-3.627749443,-13.11625099,-2.16788578
25.79,-4.49568224,-13.67399883,2.256197691
25.8,-4.505859852,-13.66431713,2.227265596
25.81,-4.067991257,-12.4552393,-1.65548563
25.82,-3.182332754,-11.40353203,-4.198950768
25.83,-3.195073128,-11.40922737,-4.18066597
25.84,-0.958943307,-8.119754791,-4.423047543
25.85,-0.857445657,-4.847742081,-3.090365887
25.86,0.011612251,-0.672669411,-1.456088305
25.87,2.83817029,4.164289474,1.692579269
25.88,2.694039106,9.420414925,3.044839144
25.89,2.733852386,9.426309586,3.024323463
25.9,-2.135892868,17.58358383,6.979320526
25.91,0.296026737,17.56489944,15.44059086
25.92,1.693938971,16.68575668,22.42332458
25.93,1.978696346,15.75801754,22.25260162
25.94,1.954677224,15.76560497,22.23280525
25.95,-0.432372898,15.23149014,11.87824726
25.96,-8.010313988,12.65339756,-7.448537827
25.97,-7.011567593,10.05723763,-7.505922318
25.98,-4.25503397,6.412875175,-3.229103565
25.99,-1.632499218,3.378172874,0.374265194
26,0.623783231,0.05199337,3.199700832
26.01,3.043469191,-3.478312016,4.913271904
26.02,5.269927979,-5.696243763,5.866642952
26.03,6.811881065,-7.964857578,5.879807472
26.04,6.724873066,-7.966220379,5.899253845
26.05,6.438690186,-9.191983223,4.54518795
26.06,1.662889957,-11.31010056,-2.001808167
26.07,-1.643015265,-12.09031677,-4.753177643
26.08,-1.671913266,-12.11269379,-4.662540436
26.09,-3.175370455,-12.79340744,-6.839049339
26.1,0.230496883,-13.97834015,-5.789644241
26.11,0.154810906,-13.98360062,-5.739643097
26.12,3.500445843,-15.47352695,-0.47033453
26.13,3.53471446,-14.83254242,0.981391192
26.14,0.704035163,-12.91983986,0.485517502
26.15,-3.020795584,-10.77424812,-2.462485313
26.16,-5.875972748,-8.637972832,-7.088668823
26.17,-5.877779007,-8.646280289,-7.053800106
26.18,-4.61354351,-6.37992239,-8.898456573
26.19,2.332787514,1.37474823,-2.406617641
26.2,2.304767132,1.375847816,-2.395936251
26.21,6.821746349,5.304357529,1.301630497
26.22,10.36814594,11.84713459,6.366832733
26.23,8.087979317,14.26153755,10.03159046
26.24,6.461048126,15.01259613,11.55666161
26.25,3.701735258,16.03123474,8.203996658
26.26,3.742794037,16.02119064,8.217819214
26.27,1.098823309,16.24816895,2.887479544
26.28,-2.290048122,13.30071545,2.484250784
26.29,-1.914558649,11.51628304,4.51666832
26.3,-1.211802959,9.521884918,5.166069031
26.31,-0.707819879,8.260962486,4.488776207
26.32,-0.638843238,8.25086689,4.494743347
26.33,-2.237895012,5.02534008,4.784043312
26.34,-1.883551121,2.089818001,5.550696373
26.35,-1.8095119,2.0727005,5.590950012
26.36,0.678017318,-6.646817207,7.970159054
26.37,0.495073855,-10.58485889,5.65578413
26.38,-1.80959034,-12.97961617,0.589319944
26.39,-1.710039854,-13.00326347,0.667292118
26.4,-5.614126205,-14.51337242,-9.538212776
26.41,-5.48749733,-14.53623772,-9.450505257
26.42,-4.029641151,-14.32036495,-5.704662323
26.43,-3.790119171,-14.28543282,-2.280901909
26.44,-4.620486259,-14.13408089,1.389569402
26.45,-4.111598015,-13.91601467,2.728931904
26.46,-3.361927032,-13.95145798,2.673054457
26.47,-3.392959595,-13.9415493,2.630129576
26.48,-3.715115786,-11.32508087,-1.402830362
26.49,-3.419703722,-9.287694931,-2.849229813
26.5,-4.084090233,-7.078316689,-3.095039845
26.51,-4.61392498,-3.401639938,-2.276300907
26.52,-1.382327914,1.373727798,-1.316585302
26.53,-1.406507015,1.377903938,-1.331745386
26.54,6.855023384,7.365563393,3.307796717
26.55,6.798940182,7.396412849,3.181844473
26.56,2.657979012,15.42289829,8.745893478
26.57,0.463426113,16.97089577,17.65028954
26.58,0.50398171,17.0144825,17.48080063
26.59,-3.386600018,18.70598221,24.06033134
26.6,-10.99346638,19.58980751,7.02929163
26.61,-10.15874195,17.29217529,-7.315757751
26.62,-10.09297466,17.23745728,-7.110780239
26.63,-7.129387379,13.48987198,-9.770744324
26.64,-0.816345096,5.827753067,1.477279186
26.65,1.480339646,3.267256737,3.328951597
26.66,3.531569481,0.713760376,4.133863926
26.67,4.023589134,-1.304188728,5.605864525
26.68,3.960506439,-1.306632042,5.630846024
26.69,3.161148787,-4.856656551,5.934346199
26.7,1.360940337,-6.610470772,3.870872736
26.71,-0.351014406,-8.987791061,0.818218112
26.72,-1.024764061,-10.73129654,-2.945728779
26.73,0.201629639,-13.0676918,-5.679371834
26.74,1.292226672,-14.76371765,-7.426931858
26.75,0.653307617,-15.65414429,-7.064436913
26.76,0.683162689,-16.45389175,-4.76390934
26.77,0.622304142,-16.45092773,-4.748236656
26.78,2.983949184,-17.30268478,2.229634523
26.79,3.756344318,-16.40416145,3.858450174
26.8,2.791819572,-14.54367638,2.067625523
26.81,-0.047891974,-11.53862286,-0.598565638
26.82,-3.68090868,-8.81227684,-4.700540066
26.83,-4.313820839,-6.33214283,-8.771426201
26.84,-2.670901775,-2.849895477,-8.025925636
26.85,1.910845637,2.198009491,-2.37016058
26.86,7.740780354,5.621617317,2.763710499
26.87,10.49541473,8.436427116,4.112924099
26.88,9.13041687,11.30785179,4.571722031
26.89,5.778800011,13.88416958,5.152035713
26.9,2.076500416,15.05937576,7.228658199
26.91,1.296828985,15.78484726,8.335850716
26.92,0.979531288,15.24024677,4.938586712
26.93,1.00493598,15.24004269,4.916065693
26.94,-1.847906113,15.10163021,0.405423522
26.95,-3.10636282,14.62604523,-0.722652793
26.96,-2.101388216,11.67701912,2.413938999
26.97,0.325500846,9.970099449,3.901520729
26.98,1.284434319,8.592684746,6.207656384
26.99,0.30760026,7.511962891,10.33774281
27,-0.15936482,4.738217354,11.69181156
27.01,0.248846054,1.571051598,8.358089447
27.02,0.344293773,1.53772068,8.455456734
27.03,0.763442397,-3.582839966,5.166141033
27.04,-0.609994173,-8.239361763,2.925839186
27.05,-2.217495203,-15.05397797,-1.507619619
27.06,-3.11377883,-17.51509476,-6.119752407
27.07,-3.059664011,-17.53301048,-6.036711216
27.08,-4.428607941,-17.73666382,-8.113641739
27.09,-4.590804577,-16.78577614,-3.128163338
27.1,-4.744277954,-16.09244537,1.750733376
27.11,-4.804322243,-15.07846928,3.000435114
27.12,-4.839681625,-15.06484699,2.928388119
27.13,-6.385699749,-11.90125465,-0.59330225
27.14,-6.387302399,-10.02151299,-1.139232635
27.15,-5.527746201,-8.324225426,-1.350185394
27.16,-4.733196259,-5.962941647,-1.237995982
27.17,-3.436119318,-2.050409317,-1.348075867
27.18,-0.543842077,2.582476616,0.741189599
27.19,1.287017822,6.086618423,3.64658308
27.2,1.873045087,11.52749825,4.381065369
27.21,1.653135538,16.12528229,7.925116062
27.22,2.143446922,18.4736824,16.76533318
27.23,-1.602062941,19.4724884,24.5895462
27.24,-6.120481968,18.68595505,23.62618446
27.25,-6.674603462,16.65726852,10.40553951
27.26,-6.626730919,16.63037491,10.49646282
27.27,-5.446044445,12.42887306,-10.98357296
27.28,-3.78024745,10.42748737,-6.511069298
27.29,-0.84755826,7.600964546,-0.154125452
27.3,1.304149151,5.06829834,3.13143754
27.31,1.276666403,5.078767776,3.093265295
27.32,2.301212549,2.178880692,5.501027107
27.33,1.535081387,0.544212341,5.541929245
27.34,1.228457093,-1.067074776,5.820669174
27.35,0.946584463,-3.397107124,5.376116753
27.36,1.257530451,-6.157990456,3.438085794
27.37,1.232382178,-6.172147751,3.50999999
27.38,0.536553443,-11.06048012,-2.891040564
27.39,0.516556025,-11.08103561,-2.781153917
27.4,2.37859273,-15.55507469,-4.165082932
27.41,2.343567371,-15.56869698,-4.074457645
27.42,2.849723577,-17.40701103,-3.698527813
27.43,2.598565102,-17.55590439,-1.492566705
27.44,1.512095213,-16.88955688,-0.842466593
27.45,1.769672513,-15.37599754,-1.390866518
27.46,0.310196579,-12.78761482,-1.662981749
27.47,-1.739822865,-9.383936882,-1.718503356
27.48,-3.150479317,-6.939867973,-3.071691513
27.49,-3.154129505,-6.941053391,-3.062460661
27.5,-2.796255112,-4.931887627,-5.866471767
27.51,-2.350438595,-3.301107407,-7.920010567
27.52,5.917614937,4.966809273,0.426742554
27.53,5.828856468,4.983967781,0.38612473
27.54,12.71255302,10.11318779,3.793165445
27.55,6.649843693,13.18523502,5.712617397
27.56,-1.749658227,14.98575592,10.62034702
27.57,-3.469376802,14.06311417,11.90202713
27.58,2.027021408,11.93351173,3.623688698
27.59,3.208538055,10.88797951,-0.046003819
27.6,-0.102662325,11.09740925,1.068369627
27.61,-0.02824676,11.08961296,1.039898753
27.62,-2.289300203,12.94130039,1.430132031
27.63,-2.199927568,12.93656445,1.382134676
27.64,-1.060470104,12.46934032,4.980160236
27.65,-0.845872462,9.255847931,7.706906796
27.66,-1.939444423,4.622923851,9.723111153
27.67,-3.158389091,0.937737465,10.20965576
27.68,-3.059707165,0.910412788,10.29403591
27.69,-1.402551413,-4.37575388,7.63594532
27.7,-2.94829607,-12.25839996,1.363941431
27.71,-3.964109421,-14.1446991,-1.049442053
27.72,-3.264269114,-15.69012165,-4.985292912
27.73,-3.203157425,-15.70344639,-4.927709103
27.74,-4.005376816,-14.08073902,-3.995254993
27.75,-4.803195,-13.96665001,-1.881229281
27.76,-5.524927616,-14.14647961,-0.001697421
27.77,-5.390129089,-14.19142628,0.965543747
27.78,-4.929790497,-13.80747318,2.033010006
27.79,-4.443925381,-13.05935764,0.512964368
27.8,-3.666931868,-11.62172318,-1.972274303
27.81,-3.649422407,-9.931224823,-2.367437124
27.82,-3.640529156,-9.931551933,-2.3697052
27.83,-5.606675625,-6.026309013,-3.367732286
27.84,-5.36219883,-2.484370708,-2.616049767
27.85,-0.240343243,2.6183815,-0.556666493
27.86,-0.267259151,2.629212379,-0.613265753
27.87,4.756605625,4.903973579,1.531309128
27.88,2.377545834,14.21096611,6.687123775
27.89,1.412536621,16.3694725,15.66852856
27.9,1.405274391,16.42482758,15.42219734
27.91,-0.886888206,17.42081451,22.15454865
27.92,-10.41223049,17.8895607,11.30183411
27.93,-10.39240265,16.3572998,-1.575915098
27.94,-7.022735596,13.3911171,-10.14246941
27.95,-6.982442856,13.35467815,-10.00028324
27.96,-0.502244234,6.794317245,-2.557824373
27.97,2.02788806,4.354958534,1.058652878
27.98,1.976107836,4.381873131,0.962176323
27.99,3.088719368,2.758028984,3.480429888
28,3.59999609,-0.043873787,7.414338112
28.01,3.362707615,-1.544557095,7.854167938
28.02,3.295238972,-1.533885479,7.839871407
28.03,2.448616028,-3.434089184,7.140192509
28.04,-1.331095219,-7.543177128,-0.162543058
28.05,-1.334267139,-7.573095798,-0.046793222
28.06,-0.66199851,-12.132864,-9.954294205
28.07,0.292274594,-13.78871727,-10.34594345
