Time (s),Linear Acceleration x (m/s^2),Linear Acceleration y (m/s^2),Linear Acceleration z (m/s^2)
0,0.026913136,0.019184113,-0.065646261
0.01,0.035810217,0.021479607,-0.198489964
0.02,0.043827891,0.021356583,0.072789639
0.03,0.038896859,0.021277428,0.070283219
0.04,0.081415862,0.021217346,0.371683121
0.05,-0.167465821,0.021199226,0.700835347
0.06,-0.164860159,0.018882751,0.366323888
0.07,-0.086731747,-0.002670288,-0.06826324
0.08,-0.170867145,0.018816948,-0.17529197
0.09,-0.224902034,-0.033905029,0.056416526
0.1,-0.072598204,-0.072227478,0.226678267
0.11,-0.03383857,-0.026763916,0.29813233
0.12,0.05014576,-0.019597054,0.089698836
0.13,0.050152197,-0.019687653,0.094686553
0.14,0.057494,-0.036517143,0.095458567
0.15,0.093195945,-0.06533432,0.060042888
0.16,0.087627649,-0.086975098,0.036469996
0.17,0.007494003,-0.020030975,0.088834703
0.18,-0.072771147,-0.020093918,0.218778357
0.19,-0.165202633,-0.020140648,0.28503415
0.2,-0.200054303,0.003754616,0.20001924
0.21,-0.200936347,0.003699303,0.202345058
0.22,-0.111221746,-0.063414574,-0.078470893
0.23,-0.174567401,-0.05391407,0.002678864
0.24,-0.168080732,-0.022850037,0.036894806
0.25,-0.140221551,-0.003723145,0.089128628
0.26,-0.141023517,-0.00375843,0.090424515
0.27,0.035055384,-0.001402855,0.213549018
0.28,-0.037834629,0.02009964,0.39625451
0.29,0.016947851,0.02011776,0.343149632
0.3,0.023977235,0.01052475,0.186667725
0.31,0.057383984,-0.023036003,0.04844971
0.32,-0.010029823,-0.058992386,-0.012712546
0.33,-0.01026918,-0.059046745,-0.008811451
0.34,-0.142135486,-0.111741066,-0.02201689
0.35,-0.16875951,0.017504692,-0.025544122
0.36,-0.168916747,0.017475128,-0.023044117
0.37,-0.157786787,-0.004112244,0.144261628
0.38,-0.159346297,-0.004150391,0.145677328
0.39,0.093324333,0.000559807,0.398780704
0.4,0.023078233,-0.121594429,0.437557995
0.41,0.059060529,-0.143165588,0.422889024
0.42,-0.076823056,-0.095275879,0.27534774
0.43,-0.045384169,-0.121580124,-0.068331778
0.44,-0.031373039,-0.126396179,-0.263205707
0.45,0.017546535,-0.059398651,-0.129629061
0.46,-0.009500325,0.019557953,0.261789918
0.47,0.006008521,0.019530296,0.49576205
0.48,-0.035544857,0.014739037,0.525887609
0.49,-0.045003504,-0.06666851,0.479703367
0.5,-0.046408117,-0.066649437,0.475302488
0.51,0.017055392,-0.100162506,0.075830981
0.52,0.032833323,-0.162418366,-0.005684257
0.53,-0.052149653,-0.095417023,0.109133974
0.54,-0.050721601,-0.025978088,0.184568256
0.55,-0.049519449,0.007538795,0.173367366
0.56,0.054911822,-0.033173561,0.141565502
0.57,0.113350332,-0.066719055,0.151012838
0.58,-0.039055496,-0.033228874,0.242077142
0.59,-0.040260196,-0.03324604,0.241331875
0.6,-0.041856229,-0.026103973,0.037620932
0.61,-0.043624118,-0.026126862,0.037594624
0.62,-0.217419148,0.036111832,0.15906845
0.63,-0.253716111,0.019351959,0.150355339
0.64,-0.291453123,0.005007744,0.106448822
0.65,-0.296998143,0.005044937,0.197876692
0.66,-0.206439555,-0.028457642,0.222386405
0.67,-0.204356894,-0.028413773,0.222993732
0.68,-0.153666556,0.019504547,0.164035857
0.69,-0.215230689,0.02674675,0.195230991
0.7,-0.089725733,0.041197777,0.098131374
0.71,-0.060768291,0.067580223,0.100287162
0.72,-0.070063159,0.127500534,0.168954223
0.73,-0.026401028,0.117999077,0.186977372
0.74,0.02673763,0.127632141,0.177272856
0.75,0.030139551,0.12769413,0.178552359
0.76,0.012916833,0.020008087,0.2051588
0.77,-0.025467396,0.015287399,0.103594318
0.78,-0.087373555,0.020127296,0.008189082
0.79,-0.08149296,0.020212173,0.014309607
0.8,-0.109634906,-0.027603149,0.342832476
0.81,0.029274985,-0.14964962,0.44293946
0.82,-0.042479128,-0.254953384,0.235639334
0.83,-0.039813116,-0.25492096,0.239368588
0.84,-0.084271252,-0.238110542,0.104693435
0.85,-0.199706882,-0.11591053,0.265523017
0.86,-0.20130986,-0.072689056,-0.110402741
0.87,-0.078433037,-0.034274101,-0.277409434
0.88,-0.080534548,0.020842552,0.022946283
0.89,-0.079079658,0.020890236,0.02196604
0.9,-0.231563598,0.10233593,0.418061972
0.91,-0.182659596,0.121533394,0.242203891
0.92,-0.17626214,0.112030983,0.087406114
0.93,-0.172729582,0.112113953,0.088476963
0.94,-0.103165418,-0.031417847,0.164515585
0.95,0.012100101,-0.091163635,0.153959274
0.96,0.084426224,-0.136519432,0.158289999
0.97,0.019850194,-0.114853859,0.155377686
0.98,0.111127093,-0.074029922,0.092696771
0.99,0.115684614,-0.073906899,0.097384647
1,-0.044511855,-0.01390934,0.245507449
1.01,-0.039273381,-0.013772011,0.249474019
1.02,-0.230638117,-0.030395508,0.012223229
1.03,-0.225893557,-0.030247688,0.016641632
1.04,-0.281338424,-0.027723312,0.005816434
1.05,-0.20210591,-0.039618492,-0.075581387
1.06,-0.254369676,-0.061052322,0.250712782
1.07,-0.286175787,-0.065711021,0.474314511
1.08,-0.254692346,-0.101438522,0.339930624
1.09,-0.215393901,-0.103615761,0.163683742
1.1,-0.122850657,-0.062691689,0.01715192
1.11,-0.219281197,-0.038514137,0.074454948
1.12,-0.194830984,-0.0046978,0.089932419
1.13,-0.186947554,-0.004389763,0.088623092
1.14,-0.281522572,0.024664879,0.366720855
1.15,-0.273915321,0.024970055,0.364285141
1.16,0.160501882,-0.015485764,0.061765991
1.17,0.126332194,-0.005748749,0.047958557
1.18,-0.004073173,-0.003198624,0.177197963
1.19,-0.000253052,-0.003033638,0.175831944
1.2,-0.209613949,-0.026816368,0.100020111
1.21,-0.12006551,0.025989532,-0.090898201
1.22,-0.114980638,0.026103973,-0.038892917
1.23,0.030738294,-0.016909599,0.23961395
1.24,0.009696335,-0.062362671,0.613849819
1.25,-0.030456573,-0.09823513,0.877486706
1.26,-0.084414601,-0.19153595,0.610019028
1.27,-0.081548095,-0.191398621,0.606886566
1.28,-0.125910729,-0.174474716,-0.185129106
1.29,-0.122088254,-0.174326897,-0.182227552
1.3,-0.127006292,-0.071285248,0.001701325
1.31,-0.126167208,-0.071237564,-0.000651378
1.32,-0.110439032,0.029308319,0.550401449
1.33,0.034569263,0.050854683,0.538547814
1.34,0.034434229,0.050890923,0.533619106
1.35,-0.263019413,0.027049065,0.302742362
1.36,-0.122728467,-0.116413117,0.101396583
1.37,-0.006974816,-0.281469345,-0.099927083
1.38,-0.004758298,-0.281386375,-0.098694332
1.39,0.075949639,-0.271727562,-0.041006692
1.4,-0.063604921,-0.127984047,0.145064607
1.41,-0.188083023,-0.065624237,0.096487612
1.42,-0.240381002,-0.05832386,0.085087903
1.43,-0.288178325,0.006438255,0.06987872
1.44,-0.279350042,0.037611961,0.060368761
1.45,-0.179627895,0.05682373,-0.013804726
1.46,-0.156699985,0.040104866,-0.039214771
1.47,-0.154932112,0.040180206,-0.035845
1.48,-0.112296104,0.016311646,0.378207803
1.49,-0.032875657,-0.10567379,0.338487715
1.5,-0.039887011,-0.184577942,0.167204112
1.51,-0.03253442,-0.174874306,0.125259832
1.52,-0.073407263,-0.217871666,0.158928737
1.53,-0.169541031,-0.208180428,0.227028236
1.54,-0.107706994,-0.19610405,0.160639778
1.55,-0.028137416,-0.186486244,0.094880253
1.56,-0.028029561,-0.186479569,0.09453246
1.57,0.067267954,-0.069192886,0.239716381
1.58,0.066438228,0.02895546,0.307291567
1.59,0.065291107,0.028913498,0.304515094
1.6,-0.039039284,0.019286156,0.273162216
1.61,-0.004880458,-0.014304161,0.084394515
1.62,-0.007227629,-0.014399529,0.083194494
1.63,-0.14049682,-0.012077332,-0.06611564
1.64,-0.262846768,0.042993546,-0.074456982
1.65,-0.189687222,0.028568268,0.051116221
1.66,0.011685014,-0.033769608,0.231176749
1.67,0.192058325,-0.1105299,0.734453321
1.68,0.188165426,-0.110652924,0.727271915
1.69,-0.034671575,-0.077176094,0.620567322
1.7,0.007808417,-0.060359001,0.115414731
1.71,-0.014528602,-0.110657692,-0.226833224
1.72,0.0282408,-0.115570068,-0.217174888
1.73,-0.026804268,-0.07027626,0.321333051
1.74,-0.068361998,-0.020160675,0.627412319
1.75,-0.102591276,-0.101700783,0.441139042
1.76,-0.193452567,-0.125756264,0.183160231
1.77,-0.132023186,-0.14977932,0.030414864
1.78,-0.039765775,-0.109192848,-0.054228723
1.79,-0.043739051,-0.109313011,-0.057286367
1.8,0.026441485,-0.039985657,0.09404701
1.81,-0.036954373,0.007827759,0.363731027
1.82,0.100220561,0.005347252,0.370203853
1.83,0.029245317,0.007637024,0.118544325
1.84,0.009575039,-0.049973488,0.011576459
1.85,-0.106081009,-0.042938232,0.089657471
1.86,-0.084871799,0.016798973,0.17648907
1.87,-0.011578888,0.026254654,0.087754786
1.88,0.029944897,0.026074409,0.088617533
1.89,0.025932729,0.025904655,0.089389101
1.9,-0.072524697,0.068883896,0.204085156
1.91,-0.0744057,0.068835258,0.20376718
1.92,-0.192096591,-0.041320801,0.189282298
1.93,-0.199155808,-0.115548134,0.08420074
1.94,-0.153286398,-0.096373558,0.053576708
1.95,-0.043757677,-0.079641342,0.12759988
1.96,-0.035398155,-0.015024185,0.27229926
1.97,0.008789003,0.025668144,0.344397605
1.98,0.050347805,0.025640488,0.318345904
1.99,0.049028248,0.025617599,0.316950083
2,0.026159614,0.044734001,0.21074155
2.01,0.008335263,0.061467171,0.109700367
2.02,0.007509351,0.06141758,0.110213578
2.03,-0.124535531,0.04462719,0.058630839
2.04,-0.193859637,0.025446892,0.115824491
2.05,-0.159976482,0.006240845,-0.039203152
2.06,-0.13287288,0.0253582,-0.111261264
2.07,-0.101178855,-0.036939621,-0.094111018
2.08,-0.101445973,-0.03703022,-0.08993987
2.09,0.059534878,-0.152031899,0.636565864
2.1,0.057019085,-0.152094841,0.635041416
2.11,0.119063959,-0.149776459,0.539605975
2.12,0.052536964,-0.109108925,0.205085084
2.13,0.052048594,-0.109166145,0.207039133
2.14,-0.101586253,-0.07094574,-0.403011859
2.15,-0.055696905,0.019904137,0.050819442
2.16,-0.059647977,0.019775391,0.049468607
2.17,-0.073448271,0.024484634,0.621648431
2.18,-0.071858525,0.038771629,0.403401792
2.19,-0.073374182,0.038724899,0.403528065
2.2,-0.195109814,0.074622154,0.056345284
2.21,-0.200411677,0.024343491,0.100982949
2.22,-0.173545986,-0.023480415,0.195784092
2.23,-0.021861553,-0.037792206,0.314205885
2.24,0.063752711,-0.085659027,0.365867972
2.25,0.048169136,-0.05694294,0.142387807
2.26,0.049450696,-0.056962013,0.148361623
2.27,-0.009062648,-0.030653954,0.055347644
2.28,-0.021715373,-0.035474777,0.122610413
2.29,0.047034919,-0.057035446,0.090767413
2.3,-0.090528905,-0.030694962,0.116093569
2.31,-0.067377716,0.021985054,0.128821194
2.32,-0.178340346,0.024394989,0.143720925
2.33,-0.235978931,0.024435997,0.159181833
2.34,-0.244909078,0.012546539,0.124192856
2.35,-0.23942709,-0.104714394,0.031984456
2.36,-0.210008442,-0.18125248,0.001923151
2.37,-0.219217062,-0.123706818,0.038384825
2.38,-0.154681027,-0.097296715,0.104906485
2.39,-0.102734178,-0.020625114,0.089213833
2.4,-0.101553172,-0.020606041,0.092450917
2.41,-0.091030031,0.024926186,0.167405173
2.42,-0.008835584,-0.003793716,0.10856238
2.43,0.057970911,0.00815773,0.093888536
2.44,0.090749294,-0.015836716,0.134807915
2.45,0.05354777,-0.011102676,0.292835176
2.46,0.03067711,0.010379791,0.368362278
2.47,0.029695988,0.010335922,0.371464938
2.48,-0.01159355,-0.018419266,0.317343444
2.49,-0.187972337,-0.020789146,-0.032250632
2.5,-0.110749662,-0.10934639,-0.157991737
2.51,0.086787403,-0.140516281,0.119394377
2.52,0.076347917,-0.212483406,0.420298368
2.53,0.031772196,-0.238959312,0.399257839
2.54,0.061830193,-0.198396683,0.287421316
2.55,0.001243353,-0.03569603,0.13236396
2.56,-0.262112469,0.024067879,-0.074677132
2.57,-0.181797266,0.024030685,-0.112754121
2.58,-0.187483281,0.023900986,0.198747098
2.59,-0.151156068,0.023736,0.442983061
2.6,-0.155772626,0.023571968,0.439548433
2.61,-0.140784293,-0.036447525,0.349041253
2.62,-0.163271755,-0.101213455,-0.064863741
2.63,-0.165507555,-0.101285934,-0.063542724
2.64,-0.045409709,-0.051067352,0.100002714
2.65,-0.047897428,-0.051163673,0.100389086
2.66,0.174455151,-0.051249504,0.425936222
2.67,0.135224745,-0.025033951,0.367956311
2.68,0.132080331,-0.025140762,0.367908388
2.69,-0.026257098,0.03222084,-0.033388183
2.7,-0.028583795,0.036958694,0.040945247
2.71,-0.031470746,0.036865234,0.04596103
2.72,0.041295826,0.022395134,-0.003103083
2.73,-0.003545851,0.022280693,0.068601027
2.74,-0.100836545,0.026968002,0.094536841
2.75,-0.104619265,0.026884079,0.100616455
2.76,-0.292149425,0.022027969,-0.012514982
2.77,-0.294046223,0.022019386,-0.006323725
2.78,-0.159454465,-0.140823364,0.018324982
2.79,-0.161039978,-0.140845299,0.021700595
2.8,-0.204961956,-0.107341766,0.126551181
2.81,-0.153162062,-0.10975647,0.055929393
2.82,-0.149292678,-0.08583355,0.112259701
2.83,-0.030542225,-0.073878288,0.139616132
2.84,0.034797966,-0.042794228,0.125702307
2.85,0.094569296,0.021776199,0.13560617
2.86,0.089366391,0.021683693,0.231305257
2.87,0.070485517,0.021624565,0.237904131
2.88,0.068523273,0.021553993,0.237434179
2.89,0.090209186,0.038256645,0.223696902
2.9,-0.100820392,0.033419609,0.102759682
2.91,-0.102074772,0.033417702,0.104906045
2.92,-0.110071272,0.054968834,0.002799131
2.93,-0.111578167,0.054956436,0.006619565
2.94,0.092327505,-0.048039436,0.327722371
2.95,0.163544998,-0.203727722,0.310216516
2.96,0.083619222,-0.220562935,0.144234657
2.97,-0.131425023,-0.139181137,0.211513937
2.98,-0.131361902,-0.139169693,0.212893993
2.99,-0.135947615,-0.019439697,0.377037972
3,0.038187116,0.004529953,-0.279394448
3.01,0.05678317,0.01645565,0.031005964
3.02,0.00936687,0.021136284,0.387524933
3.03,0.00904204,0.016182899,0.451127648
3.04,-0.060078472,0.020829201,0.353237778
3.05,-0.063480109,0.020729065,0.352220118
3.06,-0.044558465,0.001511574,0.050792251
3.07,-0.063059106,0.006280899,0.052684348
3.08,-0.073607683,-0.048798561,0.148608983
3.09,-0.061849937,-0.0583601,0.260591567
3.1,-0.104656681,-0.003261566,0.257429153
3.11,-0.104159251,-0.003225327,0.259755552
3.12,-0.003429025,-0.036693573,0.150973752
3.13,0.082577527,-0.007925034,0.21239531
3.14,0.082131535,-0.007897377,0.215656936
3.15,0.138333619,-0.039011955,0.201744229
3.16,-0.025560781,-0.070138931,0.165511474
3.17,-0.074440852,-0.055783272,0.157188177
3.18,-0.118778139,-0.067769051,0.100709319
3.19,-0.160623848,-0.070174217,0.054316118
3.2,-0.211713165,-0.043824196,0.075337864
3.21,-0.21757929,0.013625145,0.188361526
3.22,-0.218665332,0.013578415,0.188024849
3.23,-0.013969406,-0.070248604,0.192520559
3.24,0.058881819,-0.144518852,0.219799906
3.25,0.062512726,-0.134999275,0.174391747
3.26,0.062293231,-0.135038376,0.172487959
3.27,-0.192269504,0.020609856,0.311589181
3.28,-0.185352117,0.01822567,0.395206511
3.29,-0.034937248,0.020646095,0.208191291
3.3,0.02851072,0.018260956,0.063960209
3.31,-0.021041617,-0.005651474,0.036178179
3.32,0.005759224,-0.055909157,0.085076064
3.33,0.012685433,-0.065500259,0.12221951
3.34,-0.090363085,0.020668983,0.067755073
3.35,-0.089512303,0.020670891,0.066206098
3.36,-0.112442941,0.020683289,0.065016598
3.37,0.005609214,-0.031995773,0.493823886
3.38,-0.097550943,-0.087112427,0.294530451
3.39,-0.204330012,-0.108642578,0.172138929
3.4,-0.252513409,-0.115747452,0.165822357
3.41,-0.191704109,-0.115662575,0.063525543
3.42,-0.162491828,-0.129947662,-0.253330708
3.43,0.007106185,-0.098719597,-0.192201406
3.44,0.013436183,0.020950317,0.330633223
3.45,0.011456117,0.020834923,0.324880928
3.46,-0.13402845,0.135635376,0.42074275
3.47,-0.220879674,0.152330399,0.238475233
3.48,-0.145782098,0.063731194,0.044276003
3.49,-0.175593376,0.078136444,0.020113468
3.5,-0.172975302,0.078209877,0.02162037
3.51,-0.033314556,-0.024623871,0.117599964
3.52,-0.037992954,-0.046078682,0.216488212
3.53,-0.035617173,-0.045984268,0.219088748
3.54,0.067052186,0.016337395,0.254972994
3.55,0.069238603,0.016430855,0.257809103
3.56,0.126985759,-0.076842308,0.275456816
3.57,0.170013368,-0.155738831,0.173519999
3.58,0.172150672,-0.155649185,0.17642507
3.59,-0.210641384,-0.033436775,0.138157517
3.6,-0.123595059,0.000181198,0.043536872
3.61,-0.121312797,0.00028038,0.045962051
3.62,-0.19546026,0.021960258,-0.112512067
3.63,-0.295047492,0.026879311,0.000494584
3.64,-0.255065709,0.012670517,0.16137211
3.65,-0.288841456,0.012852669,0.126394898
3.66,-0.283110529,0.013074875,0.130070373
3.67,-0.203154683,-0.060908318,0.031322777
3.68,-0.095319241,-0.075047493,0.03321071
3.69,-0.019446969,-0.101202965,0.103674531
3.7,-0.011140496,-0.103464127,0.151018098
3.71,-0.106058449,-0.09855175,0.175909519
3.72,-0.152466625,-0.026597023,0.185776547
3.73,-0.14868477,-0.026447296,0.186768487
3.74,-0.052657843,-0.050273895,0.045106962
3.75,-0.0329943,-0.059711456,-0.022533685
3.76,-0.03064391,-0.059633255,-0.021473363
3.77,-0.215914995,0.024233818,-0.060025513
3.78,-0.158987314,0.093708992,0.156052008
3.79,0.02600047,0.07690239,0.442779958
3.8,0.128092408,0.026542664,0.511443019
3.81,0.004740238,-0.023832321,0.599253237
3.82,-0.019170046,-0.160352707,0.535910308
3.83,-0.017767191,-0.160356522,0.532220781
3.84,-0.148343265,-0.126775742,0.090221763
3.85,-0.198991448,-0.200831413,-0.407198221
3.86,-0.078187913,-0.193483353,-0.353721082
3.87,-0.072411835,-0.073731422,0.170508772
3.88,-0.080604136,0.041082382,0.593822122
3.89,0.005998731,0.086391449,0.597911179
3.9,0.030585408,0.074285507,0.357797623
3.91,0.029919326,0.07422924,0.354444802
3.92,-0.070082575,0.023940086,0.082040571
3.93,-0.078853637,-0.014347076,0.203187048
3.94,-0.084818304,-0.057431221,0.373896092
3.95,0.105700404,-0.117261887,0.438493669
3.96,0.225714877,-0.126825333,0.172066301
3.97,0.077180684,-0.093298912,0.065908566
3.98,-0.034673065,-0.064518929,0.123001672
3.99,0.033397734,-0.06925106,0.074827343
4,0.014515936,-0.129049301,0.068008028
4.01,-0.05042845,-0.071579933,0.061231963
4.02,-0.055347353,-0.018893242,0.074382894
4.03,-0.182500213,0.007436752,0.076989934
4.04,-0.167617887,0.024219513,0.15278022
4.05,-0.202919155,0.009849548,0.19904016
4.06,-0.259188116,0.012255669,0.151817575
4.07,-0.230812877,-0.018816948,0.128800795
4.08,-0.214070827,-0.042679787,0.060888402
4.09,-0.211405993,-0.042584419,0.060237832
4.1,-0.17001015,-0.071214676,0.009132713
4.11,-0.167316675,-0.071125984,0.007773697
4.12,-0.03843829,-0.138120651,0.022435777
4.13,-0.062577248,-0.188361168,0.226699233
4.14,-0.038737446,-0.197901726,0.186202437
4.15,-0.092141628,-0.123656273,0.187414303
4.16,0.012199551,-0.116448402,0.084369965
4.17,0.067314923,-0.149989128,0.025013514
4.18,-0.065278828,-0.126092911,-0.06276384
4.19,-0.065964192,-0.126134872,-0.065507591
4.2,-0.296395838,-0.020849228,-0.19381395
4.21,-0.296926022,-0.020915985,-0.197741926
4.22,-0.218925327,-0.025787354,-0.060853124
4.23,-0.1423482,-0.085772514,0.009587616
4.24,-0.129342347,-0.109916687,0.27691251
4.25,-0.307569563,-0.143623352,0.031036068
4.26,-0.308569104,-0.143702507,0.024436228
4.27,-0.515706658,0.009551048,-0.612752259
4.28,-0.419105142,-0.019058228,-0.683710098
4.29,-0.196047783,-0.047693253,-0.361510575
4.3,-0.068133861,-0.047675133,0.108254924
4.31,-0.119021505,-0.078860283,0.492237598
4.32,-0.191892266,-0.236966133,0.294079572
4.33,-0.300241351,-0.337553024,-0.147087485
4.34,-0.299338579,-0.337521553,-0.155746594
4.35,-0.428043515,-0.39727211,-0.347403437
4.36,-0.409366995,-0.643696785,-0.360833496
4.37,-0.263542265,-0.739274979,-0.361712903
4.38,-0.18095544,-0.818100929,-0.180138111
4.39,-0.178708553,-0.817928314,-0.196128294
4.4,-0.166640967,-0.836932182,-0.030089725
4.41,-0.163071752,-0.860696793,-0.038098916
4.42,-0.165951401,-0.860497475,-0.064758383
4.43,-0.115736932,-0.903360367,-0.337120295
4.44,-0.349734575,-0.826479912,-0.131312043
4.45,-0.363828391,-0.854590416,0.032226667
4.46,-0.316772819,-0.966212273,-0.082373142
4.47,-0.273087412,-0.998461723,-0.207167864
4.48,-0.242835552,-1.080605507,-0.256843805
4.49,-0.297929376,-1.245937347,-0.341055393
4.5,-0.317048788,-1.242975235,-0.40980798
4.51,-0.33522287,-1.715385437,-0.089892209
4.52,-0.433789015,-1.978300571,-0.057003379
4.53,-0.681213677,-2.103552818,-0.435713381
4.54,-1.04543376,-2.253983021,-0.943838
4.55,-1.241766334,-2.187365055,-1.364452243
4.56,-1.265251517,-1.848791122,-1.610698223
4.57,-1.072334051,-1.218925476,-1.163550138
4.58,-0.857606351,-0.608359337,-0.221421719
4.59,-0.479344249,0.005208015,0.736078739
4.6,-0.190559477,0.42308712,1.331016183
4.61,-0.141266733,0.771361351,1.685201049
4.62,-0.622656286,0.900821686,1.537360907
4.63,-0.652245045,0.973222733,0.882417798
4.64,-0.739988565,0.894510269,0.409080029
4.65,-0.770018339,0.918905258,0.300929546
4.66,-0.620760083,0.582824707,0.871823072
4.67,-0.534813225,0.451785088,1.143167257
4.68,-0.205432057,0.395851135,1.215791941
4.69,0.103638798,0.52215004,0.90745163
4.7,0.194414198,0.609157562,0.834746838
4.71,0.381599009,0.679617882,1.14380908
4.72,0.600827873,0.667687416,1.370097637
4.73,0.816518128,0.687778473,1.691737413
4.74,0.832655251,0.509942055,1.665514231
4.75,1.123849988,0.37330246,1.413802624
4.76,1.527385473,0.262992859,1.021778822
4.77,1.509682298,0.275491715,0.987216711
4.78,2.158144712,0.807814598,0.375190735
4.79,2.027984858,1.37403965,0.157345533
4.8,1.639621735,2.115815163,0.21500659
4.81,1.588209867,2.503808022,0.179653406
4.82,1.376703262,2.994950294,0.229704619
4.83,1.034805536,3.061172485,0.401894808
4.84,0.725335419,2.804365158,0.237408161
4.85,0.363053978,2.288644791,-0.328916311
4.86,0.000968814,1.692937851,-1.082055092
4.87,-0.471081823,1.142286301,-1.62822783
4.88,-0.664479494,0.527288437,-1.971969485
4.89,-0.923915148,-0.127398491,-2.050493956
4.9,-1.163797855,-0.700889587,-1.900693536
4.91,-1.098260522,-1.079631805,-1.570951462
4.92,-0.554724813,-1.478656769,-1.397552609
4.93,-0.071194887,-1.59374094,-1.012121558
4.94,0.20732379,-1.61714077,-0.449391365
4.95,0.173822761,-1.752945423,0.02823472
4.96,0.234188676,-1.939775944,0.152646065
4.97,0.381723821,-2.08061552,-0.122085571
4.98,0.60785687,-2.147450924,-0.561093569
4.99,0.616826057,-2.152289867,-0.546320438
5,0.627399206,-2.07113409,-0.918410063
5.01,0.606743991,-1.415784836,-1.229015231
5.02,0.60524118,-1.115424156,-1.125399709
5.03,0.474188268,-0.789564133,-0.952024818
5.04,0.386200249,-0.610508919,-0.730617642
5.05,0.152170867,-0.441950798,-0.84603703
5.06,-0.040381759,-0.078876495,-1.132031918
5.07,-0.021067411,-0.090399742,-1.092750072
5.08,-0.402864546,0.3022995,-1.266715169
5.09,-0.380858749,0.290661812,-1.225670695
5.1,-0.90278244,0.324566841,-1.579238296
5.11,-0.94011873,0.45881176,-1.612943649
5.12,-0.999792099,0.688562393,-1.740735888
5.13,-1.12527287,0.872226715,-2.281949759
5.14,-0.976899028,1.002285004,-2.640924931
5.15,-1.001329541,1.307217598,-2.742022038
5.16,-0.640265644,1.821705818,-1.910172224
5.17,-0.914660275,2.200216293,-0.906134963
5.18,-1.036025167,2.484753609,-0.570336103
5.19,-1.024840713,2.717142105,-0.760249019
5.2,-0.980808079,2.712548256,-0.738574863
5.21,-0.817190647,2.700139999,-1.770832658
5.22,-0.679835498,2.605968475,-2.071947575
5.23,-0.628075481,2.600668907,-2.042025805
5.24,-0.55886507,2.583956718,-1.347191334
5.25,-0.382167131,2.666603088,-0.361523747
5.26,-0.259486586,2.934952736,0.380050898
5.27,-0.134389877,3.204314232,0.800015807
5.28,0.370092243,3.263578415,1.37646389
5.29,0.315545201,3.314167023,2.312303066
5.3,0.414293051,3.224781036,2.877491474
5.31,0.42131424,2.879611969,3.66892767
5.32,0.604333997,2.108737946,4.871550083
5.33,0.712656915,1.082585335,5.653634548
5.34,0.715556979,1.085621834,5.638703346
5.35,0.700358987,0.451148987,6.172595024
5.36,0.179324567,0.226885796,5.988467216
5.37,-0.951191366,0.630710602,4.638299465
5.38,-1.042671204,0.817738533,3.690036297
5.39,-1.288142204,1.090074539,2.997034073
5.4,-1.524622321,1.480041504,2.539007187
5.41,-1.549423218,1.837204933,2.048690081
5.42,-1.437287807,2.163972855,1.784273267
5.43,-1.621105671,2.259454727,1.936495304
5.44,-1.645412803,2.260388374,1.923317194
5.45,-1.265667915,1.594014168,1.896429539
5.46,-1.078748703,1.035829544,1.82980907
5.47,-0.858542085,0.22829628,1.445253015
5.48,-0.734391451,-0.524952889,0.955593824
5.49,-0.75124979,-1.207093239,0.200065851
5.5,-0.591047645,-1.947642803,-0.317654014
5.51,0.0248456,-2.648561478,-0.439787269
5.52,0.461083949,-3.555575848,-0.29852581
5.53,0.436772525,-3.557985783,-0.291362524
5.54,0.0929977,-4.48025322,0.020959735
5.55,-0.648976326,-4.823190212,0.5416224
5.56,-0.796084642,-5.290668964,0.015551209
5.57,-0.797644734,-5.296555996,0.046632648
5.58,-0.158347219,-5.893411636,-1.049306393
5.59,0.689408898,-6.59636879,-1.789234638
5.6,1.120923281,-6.731679916,-1.393522382
5.61,1.372894168,-6.765900612,-0.943224073
5.62,1.342440844,-6.773200989,-0.904024243
5.63,0.948691845,-6.016571522,-0.875570655
5.64,0.926760256,-6.023776531,-0.832722902
5.65,0.506643117,-5.236171722,-1.072325945
5.66,0.046853811,-3.598517895,-1.667322755
5.67,-0.283580661,-2.750696659,-1.764428496
5.68,-0.301743805,-2.757207394,-1.718963265
5.69,-0.951369226,-0.981768608,-1.244989872
5.7,-1.080013752,-0.336427689,-0.886327624
5.71,-1.038689256,0.314066887,-0.401658475
5.72,-1.001820326,0.972179413,-0.115377903
5.73,-1.01096487,0.967243195,-0.07299006
5.74,-0.701387227,2.33176899,-0.447336555
5.75,-0.443124235,3.002222061,-0.494525433
5.76,-0.319232404,3.572840691,-0.273679972
5.77,-0.34478417,3.569690704,-0.241679728
5.78,-1.643262029,4.17556572,-0.128721654
5.79,-2.812489748,4.235980988,-0.62510699
5.8,-4.072901726,4.150239944,-0.816364408
5.81,-4.73799181,4.001844406,-0.895338297
5.82,-4.714453697,3.998689651,-0.859107316
5.83,-3.328415632,4.33962059,-0.218096018
5.84,1.424345374,4.538975716,1.295739412
5.85,1.430392742,4.534822464,1.35602808
5.86,2.949939013,4.435569763,1.475736618
5.87,3.563761711,4.327741623,2.241591215
5.88,4.060518265,2.767790794,5.628777981
5.89,4.050358772,2.767691612,5.63041687
5.9,2.94301939,0.388179779,5.098468304
5.91,1.885752678,-0.248373032,2.880158424
5.92,0.890103102,-0.368224144,0.488620162
5.93,0.649692833,-0.133861542,-0.578999698
5.94,0.656286836,-0.134001732,-0.576390982
5.95,1.013597131,0.270820618,-0.51032269
5.96,1.055238247,1.705371857,0.256345213
5.97,1.888984323,2.32610321,0.906247973
5.98,1.888581634,2.327069283,0.889010429
5.99,1.686457038,3.008255959,1.900200367
6,1.047267556,2.839488029,1.954015017
6.01,0.32383579,2.129508972,1.842774749
6.02,0.115306377,0.550222397,1.468957901
6.03,0.106861495,0.550778389,1.460460663
6.04,-0.493298709,-2.621576786,-0.484350324
6.05,-0.495199889,-2.622070789,-0.476882458
6.06,-0.708580613,-5.03147316,-1.279116869
6.07,-0.506233573,-5.865474224,-1.049021363
6.08,-0.221020892,-6.316315651,-0.747647047
6.09,-0.064250723,-6.247484684,-0.423534095
6.1,-0.044410881,-6.247927189,-0.415249109
6.11,0.17316258,-5.905733109,0.952379704
6.12,0.419311166,-5.668685436,0.711778283
6.13,0.138775647,-5.304777622,0.422875226
6.14,0.171876848,-5.304824352,0.431880355
6.15,-0.105971783,-4.871281147,0.147735953
6.16,-0.281398475,-4.37066412,-1.087559938
6.17,-0.310639113,-4.078296661,-1.715983152
6.18,-0.277134597,-4.077771187,-1.707823277
6.19,-0.214001209,-3.796906471,-1.917961359
6.2,-0.175047875,-2.673109531,-1.379670501
6.21,-0.13815096,-1.875035763,-0.851726115
6.22,0.039282799,-1.124726295,-0.551778615
6.23,0.068676353,-1.123831749,-0.543542087
6.24,0.37473619,-0.419053078,-0.286935806
6.25,0.975614309,1.015692711,-0.504390717
6.26,0.993906379,1.016040802,-0.491785526
6.27,0.76083231,2.472061157,-0.678454578
6.28,0.579040885,3.334252357,-0.994396329
6.29,0.356987923,3.885103226,-1.333696365
6.3,0.211685598,4.277860641,-1.977827311
6.31,-0.085079014,4.464598656,-2.415114164
6.32,-0.397631943,4.330634117,-2.245340586
6.33,-0.738764167,3.950377464,-1.683152914
6.34,-1.161424637,3.927284241,-0.737021208
6.35,-0.718612671,4.598978043,0.634932637
6.36,-0.408680379,5.510391235,1.950406194
6.37,-0.185303569,6.366934776,3.014138699
6.38,-0.123717189,6.016566277,3.786041737
6.39,-0.136382997,4.938077927,4.253708363
6.4,0.132612109,3.315969467,4.541916847
6.41,0.40023911,1.363359451,4.019876957
6.42,0.814659476,-0.194313049,3.543819666
6.43,1.733266592,-1.434453011,3.858599901
6.44,1.720319986,-1.435040474,3.847299337
6.45,1.005275369,-0.978570938,3.09664917
6.46,0.388627499,-0.093707085,2.166304827
6.47,-0.724949539,1.262843132,1.137913823
6.48,-2.008389473,2.8590765,0.353717148
6.49,-3.236800909,4.170830727,0.482733488
6.5,-4.055929184,4.733579636,1.419103146
6.51,-4.06770277,4.734233856,1.394735575
6.52,-3.322217703,3.81329155,2.283731222
6.53,-0.760409713,0.578966141,1.308908224
6.54,-0.253339052,-0.721642494,0.182468534
6.55,0.12702328,-1.687558174,-0.21241352
6.56,0.616360188,-2.751785755,-0.074240863
6.57,1.063999891,-3.636414528,-0.036657989
6.58,1.042812943,-3.637688637,-0.033965647
6.59,1.600093007,-4.931854248,-0.481453151
6.6,1.188516021,-5.424014568,-0.61512059
6.61,0.375901729,-5.470626354,-0.248227924
6.62,0.089561611,-5.272850513,0.292271853
6.63,0.324853152,-5.058371067,0.411110461
6.64,0.565500677,-4.999894142,-0.059694499
6.65,0.552912772,-4.91563797,-0.232888341
6.66,0.46485287,-4.850604057,-0.510145009
6.67,0.500331879,-4.835892677,-0.824282706
6.68,0.403074443,-4.768492699,-1.065506816
6.69,0.259448081,-4.693759441,-1.175138116
6.7,0.124317378,-4.460722923,-1.251450658
6.71,-0.240481079,-4.076582432,-1.245663762
6.72,-0.724062145,-3.574978828,-1.049587488
6.73,-0.976823688,-2.807518959,-0.886398733
6.74,-0.991175175,-2.808672905,-0.859888315
6.75,-0.877549231,-1.224858284,-1.335779428
6.76,-0.890016794,-1.225986481,-1.301227212
6.77,-0.983166397,-0.305124283,-1.312814951
6.78,-0.934931815,1.540135384,-0.875344753
6.79,-0.864159823,2.255455971,0.056203246
6.8,-0.869474053,2.255084038,0.078241467
6.81,-1.60544312,2.76956749,0.358942717
6.82,-1.817335486,2.982430458,0.290075123
6.83,-1.839594603,3.063667297,-0.330741048
6.84,-1.842696428,3.063529968,-0.314262211
6.85,-2.74255991,2.850362778,-2.623886108
6.86,-2.735453844,2.85041523,-2.607272863
6.87,-2.818682671,3.415664673,-1.226899147
6.88,-1.912596941,4.170196533,-0.040141821
6.89,-0.315055132,4.862564087,0.394506574
6.9,1.978882551,5.363341331,1.328356147
6.91,1.974954605,5.363623619,1.366778612
6.92,3.363898754,5.311388016,4.106993198
6.93,3.506464005,4.644007683,4.302743435
6.94,2.95516324,3.579244614,3.745266199
6.95,2.456651688,2.698703766,2.818892241
6.96,2.281219721,1.616721153,1.786546707
6.97,1.618612647,0.575107575,0.976588309
6.98,1.600308657,0.574398041,0.958952129
6.99,0.278287441,0.290942192,0.078743726
7,0.0014529,0.414546013,0.422603279
7.01,-0.073986813,0.945281029,0.915299058
7.02,0.383241653,1.303844452,1.314699292
7.03,0.773735821,1.461468697,1.402254105
7.04,0.538817704,1.44213295,1.578502178
7.05,0.202874109,1.159545898,1.7765311
7.06,0.078270257,0.448523521,1.408571482
7.07,-0.318374038,-0.53295517,0.486111999
7.08,-0.818502486,-1.514318466,-0.132803157
7.09,-0.803180397,-1.51394558,-0.152475238
7.1,-1.071521521,-3.591734886,-0.415944934
7.11,-0.877346516,-4.338241577,-0.269576848
7.12,-0.858048558,-4.337636948,-0.28716743
7.13,-0.363978595,-5.411953926,0.409003675
7.14,-0.214604214,-5.700752258,0.538049638
7.15,0.010764271,-5.867237568,0.673526764
7.16,0.285914451,-5.789302826,0.582636833
7.17,0.380032033,-5.572289467,0.287296534
7.18,0.40890187,-5.570667267,0.263551474
7.19,0.441288889,-5.291282177,-0.133919075
7.2,0.492739916,-4.449253559,-1.193402648
7.21,0.718174696,-3.841662407,-0.722369075
7.22,1.165635347,-3.274700642,-0.220060736
7.23,1.1746521,-3.272980213,-0.251827151
7.24,0.684881926,-2.227685928,-0.842139065
7.25,0.670988679,-1.661316872,-0.527409256
7.26,0.621652007,-1.291292191,-0.761238456
7.27,0.311893761,-0.964805603,-0.929845572
7.28,0.280488491,-0.578654289,-0.854571104
7.29,0.290771961,0.041912079,-0.778714597
7.3,0.289683282,0.042167664,-0.78409338
7.31,0.052947372,1.433257103,-1.360613823
7.32,0.050323457,1.43307209,-1.359658718
7.33,-0.192728907,3.36972332,-1.09112072
7.34,-0.219779581,3.977589607,-0.97134912
7.35,-0.225274742,4.228821754,-1.183666229
7.36,-0.227119178,4.228857994,-1.185973883
7.37,-0.320646823,4.092804909,-1.392731905
7.38,-0.696817398,2.927781105,-1.140321016
7.39,-0.795321465,2.845253944,0.217572153
7.4,-0.55065912,3.531607628,2.221598625
7.41,0.024839163,4.234810829,2.748148203
7.42,0.205236644,4.693255424,2.476842403
7.43,-0.236914635,5.024501801,3.103467464
7.44,-0.42954129,4.705046654,4.131265163
7.45,-0.532957912,3.605514526,5.006780624
7.46,-0.721381187,2.384157181,5.256149292
7.47,-0.321641505,0.870650291,4.89861536
7.48,-0.30463773,0.871902466,4.901791096
7.49,0.334756613,-0.221970558,2.588520765
7.5,0.319981933,-0.22230053,2.567842722
7.51,-1.216866255,0.790247917,0.075813353
7.52,-1.555599928,1.661563873,-0.679712594
7.53,-2.015954018,2.650143623,-0.585107327
7.54,-1.722184896,3.093242645,0.376765251
7.55,-2.003172398,3.709675789,2.086497307
7.56,-2.164615154,3.623667717,3.269458771
7.57,-1.576420188,2.949020386,3.374872446
7.58,-0.507928908,1.457181931,2.302420616
7.59,0.395359933,-0.208644867,1.000720263
7.6,0.378546476,-0.209561348,0.99949044
7.61,0.779777825,-1.741580963,-0.274918854
7.62,1.1740731,-3.999464989,-1.338634253
7.63,1.301460385,-4.765697479,-1.376686454
7.64,1.222163558,-5.306744576,-0.456995308
7.65,1.191588402,-5.30867672,-0.450807512
7.66,0.465034723,-5.90205574,0.18789655
7.67,0.411523879,-5.906761169,0.417290449
7.68,0.537415266,-5.837427616,0.38494724
7.69,0.50058949,-5.708301067,-0.226621091
7.7,0.222370982,-5.564908981,-0.684718728
7.71,0.054248005,-5.373754978,-1.045265675
7.72,0.045618117,-5.134676933,-1.378955364
7.73,-0.186372548,-4.823506355,-1.59726572
7.74,-0.385766625,-4.409061432,-1.625064492
7.75,-0.615026295,-3.781237602,-1.51792562
7.76,-0.772292554,-3.023860455,-1.528348804
7.77,-0.873018205,-2.355019569,-1.662503242
7.78,-0.88246727,-2.356689453,-1.624883413
7.79,-1.069925308,-1.441123009,-1.418619871
7.8,-1.501525521,0.35817337,-0.707977891
7.81,-1.528685808,1.092245102,-0.578515768
7.82,-1.390681744,1.855176926,-0.556548297
7.83,-1.382117391,1.854487419,-0.513276696
7.84,-0.907036066,3.08932209,-0.935716271
7.85,-0.795001745,3.364232063,-0.766455948
7.86,-0.618526459,3.521946907,-0.42877087
7.87,-0.774147034,3.504908562,-0.401242286
7.88,-1.293082595,3.224529266,-1.107986569
7.89,-2.363933086,2.886704445,-1.960250616
7.9,-3.416107893,2.869837761,-2.121059418
7.91,-3.779364824,3.724665642,-1.569457054
7.92,-1.885635853,4.814311981,-0.173450887
7.93,0.213620096,5.516065598,0.655297875
7.94,1.256488204,5.506609917,1.117313981
7.95,2.083389521,5.228949547,2.135835171
7.96,2.616523266,4.704596519,3.625841856
7.97,2.611340284,3.952708244,4.650929451
7.98,2.594416618,3.952501297,4.651389122
7.99,2.966708899,2.065400124,5.024447918
8,3.065186977,-0.40828228,2.247715235
8.01,2.28027463,-0.82513237,0.735674799
8.02,1.073272824,-0.358451843,-0.200175151
8.03,0.48743248,0.340512276,-0.767604232
8.04,0.432189196,1.070656776,-0.841470778
8.05,0.754717588,1.961252213,-0.475448936
8.06,1.044887066,2.667533875,0.163229853
8.07,1.332788348,3.045924187,1.528918743
8.08,1.318888664,3.046292305,1.478245974
8.09,1.20198679,3.023039818,2.505868673
8.1,0.580635667,1.187657356,1.956715465
8.11,0.565291941,1.188863754,1.907864094
8.12,-0.822678983,-1.553746223,-0.286819488
8.13,-1.423766613,-2.888828278,-1.293671966
8.14,-1.502451777,-3.939172268,-1.38461566
8.15,-1.486307383,-4.816988945,-0.57010138
8.16,-1.468606353,-4.815914154,-0.599606276
8.17,-1.186576366,-5.76527977,0.291782022
8.18,-0.690084934,-5.989234924,0.346555919
8.19,-0.476765335,-5.985721588,0.678339481
8.2,-0.145120353,-5.929346085,0.77116096
8.21,0.26679492,-5.729085445,0.324138224
8.22,0.312128991,-5.727618694,0.311130285
8.23,0.887867689,-5.134903908,-0.698847175
8.24,0.985713124,-4.688001156,-0.994171023
8.25,1.203258038,-4.154706955,-1.176371813
8.26,1.237738609,-4.152802467,-1.188950181
8.27,1.30431056,-2.855717182,-1.425548077
8.28,1.303901792,-1.970937729,-1.330089927
8.29,1.421169996,-1.050832748,-0.911584914
8.3,1.38444531,-0.195563316,-0.399202734
8.31,0.930832744,0.484880447,0.334240079
8.32,0.930185676,0.485490799,0.324393213
8.33,0.322393924,1.259360313,-0.197716385
8.34,0.326202095,1.259256363,-0.193591982
8.35,-0.048520654,1.608123779,-1.996867657
8.36,-0.104693651,2.277786255,-2.061625004
8.37,-0.112757146,2.277147293,-2.056741238
8.38,-0.489768297,3.349421501,-1.468466997
8.39,-0.670813978,3.519351959,-1.409505367
8.4,-0.962829471,3.577023506,-1.233976007
8.41,-1.141467452,3.752468109,-0.726764619
8.42,-1.136581659,3.753332138,-0.737506986
8.43,-0.082305431,5.037472725,1.646588922
8.44,0.226571202,5.53358078,2.118706942
8.45,0.327898085,5.763231277,1.884021044
8.46,0.322665811,5.314595222,2.550588369
8.47,0.260845602,4.370236397,3.798326969
8.48,0.185534239,2.935330391,4.666938305
8.49,-0.096608996,1.321116447,4.867224693
8.5,0.453819662,0.042532921,5.307405472
8.51,0.62361306,-1.017993927,4.730323315
8.52,0.028041035,-1.015518188,3.042786121
8.53,-0.762680888,-0.589199066,2.052849054
8.54,-1.556305647,0.455348015,1.057435274
8.55,-2.549968719,1.892772675,0.05817765
8.56,-2.89226675,3.069303513,0.108307242
8.57,-3.153418064,3.930047035,0.661257923
8.58,-3.320777655,4.230960846,1.723861456
8.59,-2.969867229,3.847984314,2.654160261
8.6,-1.808720112,2.737158775,2.511401415
8.61,-0.342370868,1.053260803,1.492932558
8.62,0.186543807,-0.430646896,0.293302417
8.63,0.404783815,-1.501179695,-0.209128261
8.64,0.599991322,-2.648687363,-0.137023091
8.65,0.588362277,-2.649144173,-0.137457967
8.66,0.889628112,-3.540453911,-0.02914685
8.67,1.138917804,-4.834392548,-0.792586386
8.68,0.950376272,-5.329066277,-0.432858586
8.69,0.692681074,-5.555643559,-0.176996529
8.7,0.565689802,-5.624570847,0.096195221
8.71,0.564151049,-5.485393047,0.13806808
8.72,0.449779809,-5.502140045,-0.143579125
8.73,0.463978738,-5.408923149,-0.571735501
8.74,0.267532289,-5.193710804,-1.153732896
8.75,-0.094242767,-4.906690598,-1.626271844
8.76,-0.113041282,-4.90895462,-1.592110634
8.77,-0.410802066,-4.700160503,-1.638399482
8.78,-0.674144268,-4.081675053,-1.519202709
8.79,-0.861383319,-3.551712513,-1.329565525
8.8,-0.871657431,-3.000117302,-1.303092241
8.81,-1.069643617,-2.125323296,-1.321413994
8.82,-1.064419746,-2.126737595,-1.279523611
8.83,-1.283926964,-1.096008301,-1.020625234
8.84,-1.273572922,-0.256621361,-0.835014761
8.85,-1.026953816,0.451265335,-0.904418588
8.86,-0.787718058,1.463461876,-0.879143775
8.87,-0.749078155,1.740840912,-0.600015879
8.88,-0.750185847,1.740585327,-0.578531802
8.89,-0.700291872,2.070756912,-0.138822645
8.9,-1.318330288,2.786408424,-0.134345204
8.91,-1.330329061,2.786234856,-0.13418445
8.92,-3.647792101,3.236256599,-1.696083426
8.93,-4.230484009,3.384757042,-1.94658041
8.94,-4.214372158,3.384933472,-1.938734889
8.95,-3.371172667,4.256793976,-0.109043583
8.96,-1.454766035,4.717002869,0.22782743
8.97,1.244877815,4.913986206,0.55372256
8.98,3.650936842,4.835625648,1.029324532
8.99,4.510840416,4.467561722,2.550251961
9,4.453020573,4.061373711,4.651596069
9.01,3.751043081,3.219191551,5.432159901
9.02,2.93354249,2.414736748,4.626545906
9.03,2.911340714,2.414593697,4.63911438
9.04,1.187467933,1.284274101,0.306016862
9.05,0.054856353,1.116142273,-1.327046275
9.06,-0.180026382,1.244743347,-1.690674067
9.07,-0.218646795,1.497805595,-1.019380331
9.08,0.095046259,1.770009041,-0.05676724
9.09,0.635682166,1.924965858,0.467942148
9.1,0.96460259,1.984265327,1.158017278
9.11,0.785204649,1.787449837,1.841774106
9.12,0.050929323,1.5955019,2.192898273
9.13,-0.401562899,0.833798409,1.940137863
9.14,-0.736953735,-0.303679466,1.212772131
9.15,-1.076173067,-1.496092796,0.416807175
9.16,-1.443354487,-2.48008728,-0.081915259
9.17,-1.433112264,-2.479916573,-0.116442382
9.18,-0.963020265,-4.481229782,-0.018470675
9.19,-0.943457186,-4.480733871,-0.05465667
9.2,-0.315199643,-5.746650219,0.136228189
9.21,-0.123902068,-6.045099258,0.040300891
9.22,-0.077657387,-6.103900909,0.304631829
9.23,-0.047306463,-5.961255074,0.637084961
9.24,0.231002092,-5.724936008,0.358187944
9.25,0.327713817,-5.342415333,-0.128146559
9.26,0.517457426,-4.974238873,-0.601082325
9.27,0.474301547,-4.476727486,-1.071948409
9.28,0.526465178,-3.955043793,-1.290677071
9.29,0.555290222,-3.952834129,-1.317776084
9.3,0.691119313,-3.349822998,-1.402736425
9.31,0.801593065,-2.627560139,-1.311352491
9.32,0.845371485,-1.848134518,-0.842669785
9.33,0.856115043,-0.628694534,-0.929149866
9.34,0.860854924,-0.62843132,-0.929943085
9.35,0.425186575,0.362869263,-0.177568525
9.36,0.384441137,0.822713852,0.252893537
9.37,0.592911661,1.174697876,0.415591985
9.38,0.527146697,1.478401184,-0.183883995
9.39,0.437593311,2.064211845,-0.821957409
9.4,0.096455604,2.97323513,-1.514419913
9.41,0.085916966,2.972529411,-1.509494066
9.42,-0.271921486,3.678143501,-2.610620499
9.43,-1.197104692,4.573102951,-2.683613539
9.44,-1.360510349,4.48936367,-1.264483333
9.45,-1.175772905,4.633861542,0.468821943
9.46,-0.290430039,5.073067665,1.796832442
9.47,0.635807514,5.181681633,2.266664267
9.48,1.073262453,4.801445007,2.78196764
9.49,0.990016282,4.466399193,3.56173563
9.5,0.667657554,3.49209404,4.144172668
9.51,0.377489299,2.170489311,4.343868732
9.52,-0.002187133,0.937573433,4.164085865
9.53,0.096353322,0.047134399,3.839134932
9.54,0.059670746,-0.331108093,3.581083775
9.55,-0.199806809,-0.034303665,3.159486771
9.56,-0.209048927,-0.034596443,3.153218508
9.57,-1.94153285,0.963704109,2.108495712
9.58,-1.953779697,0.963625908,2.093206882
9.59,-2.310540199,1.794301033,1.309241772
9.6,-2.600153685,3.008057594,0.569648087
9.61,-2.613763094,3.008058548,0.553978801
9.62,-2.474425316,2.941407204,0.75593859
9.63,-1.842418671,2.434288979,1.354465365
9.64,-0.527341604,0.291809082,1.209661484
9.65,-0.539690733,0.291887283,1.197616816
9.66,0.201825172,-1.597667694,-0.326985568
9.67,0.186850309,-1.598536491,-0.322489411
9.68,0.502699256,-3.423812389,-0.022727579
9.69,0.882039428,-4.12390089,0.199070692
9.7,0.906331897,-4.558376312,0.020184517
9.71,0.840744436,-4.902154922,-0.145100236
9.72,0.850328565,-5.090646744,-0.214236021
9.73,0.823688388,-5.092580795,-0.189380974
9.74,0.879794776,-5.111174107,0.375932455
9.75,0.703745902,-5.072241306,0.576595902
9.76,0.68116349,-5.073917866,0.607403696
9.77,0.339036435,-5.144960403,0.352784097
9.78,0.308928132,-5.206488132,-0.620551348
9.79,0.080242209,-5.200756073,-1.730042458
9.8,-0.32595557,-4.761256695,-1.844778895
9.81,-0.33860901,-4.762012959,-1.814130068
9.82,-0.982585251,-4.312445164,-1.867974639
9.83,-1.485159397,-3.608901501,-0.950108051
9.84,-1.101376534,-2.759299755,-0.741453826
9.85,-1.054625511,-1.007011414,-1.55500102
9.86,-0.979164541,-0.178726196,-0.987639129
9.87,-0.970464826,-0.178692818,-0.952923775
9.88,-1.18032217,1.198186874,-0.017504457
9.89,-1.167313337,1.198488235,0.011402488
9.9,-1.063235879,1.763957024,-0.186879605
9.91,-0.971500039,2.286494255,-0.915808201
9.92,-0.862217188,2.854598999,-1.474045277
9.93,-0.752160668,3.015642166,-1.006029129
9.94,-0.749953151,3.016077042,-0.986763239
9.95,-1.175882697,3.109728813,-0.823209405
9.96,-2.585868597,3.112257004,-1.835276365
9.97,-3.581921816,2.992776871,-2.216023445
9.98,-3.563558102,2.993365288,-2.206668139
9.99,-3.171417952,3.600057602,-1.622074127
10,-1.605522156,4.001069069,-0.372773171
10.01,1.087853432,4.069399834,0.77089715
10.02,1.096525669,4.070847511,0.806313336
10.03,2.653912783,4.125006676,2.541643143
10.04,3.421943665,3.801158905,2.631433964
10.05,3.42087698,3.802946091,2.671526432
10.06,3.285996914,3.260931969,1.946987152
10.07,2.592996836,2.421276093,1.323711157
10.08,1.398943782,0.505217552,1.457866669
10.09,1.381962895,0.503815651,1.438765049
10.1,1.10512495,-0.062988281,1.311924338
10.11,1.091371775,-0.06467247,1.281198978
10.12,1.429415822,0.549158096,0.559602499
10.13,1.421269298,0.547858238,0.530809522
10.14,1.287033439,1.331796646,0.782871127
10.15,1.25714922,1.804436684,1.169054389
10.16,1.306643128,2.059262276,1.143372178
10.17,0.561683655,1.742014885,1.022184372
10.18,0.183380231,1.15923214,0.937999845
10.19,-0.34651351,0.255912781,0.41102165
10.2,-0.340215862,0.255607605,0.375943899
10.21,-1.011369944,-0.915192604,-0.358789653
10.22,-1.055247784,-2.938174248,-0.688252568
10.23,-0.822741866,-3.941077232,-0.023588162
10.24,-0.802731335,-3.940701485,-0.045587812
10.25,-0.616525114,-4.773411274,-0.068333894
10.26,-0.156267345,-5.474280357,0.912327647
10.27,-0.134755164,-5.473483086,0.879920542
10.28,1.270810723,-5.850922108,0.749589026
10.29,1.292335153,-5.849850178,0.719631732
10.3,1.002192736,-5.65694809,0.614912391
10.31,0.812030315,-5.253137589,0.400639743
10.32,0.810296059,-4.569101334,-0.8491534
10.33,0.834896207,-4.567405701,-0.876648665
10.34,0.690574169,-4.024557114,-0.966246665
10.35,0.958133698,-3.496287823,-1.035991311
10.36,1.20309186,-2.080278873,-0.7849437
10.37,1.045411587,-1.258440971,-0.420178175
10.38,1.049778581,-1.257921219,-0.428778231
10.39,0.406817973,-0.065033913,-0.144988149
10.4,-0.106361896,0.423948288,-0.306999892
10.41,-0.088830054,0.424454689,-0.296162278
10.42,-0.262643874,0.845783234,-1.100094557
10.43,-0.335771203,1.269218445,-1.999500275
10.44,-0.014676034,2.743605614,-1.491772056
10.45,-0.018436551,2.742975235,-1.476131439
10.46,-0.058067858,4.056686401,-1.429455042
10.47,-0.40309155,4.209259987,-1.730618238
10.48,-0.413039506,4.208839417,-1.734481335
10.49,-0.751518726,3.365858078,-1.39319706
10.5,-0.756655574,3.365858078,-1.402929306
10.51,-0.678709745,2.947050095,-0.601788104
10.52,-0.378359586,3.416684151,1.124992132
10.53,0.323256612,4.805615425,1.785789728
10.54,0.337738723,4.80581665,1.805147886
10.55,-0.150056839,4.423250198,1.87396884
10.56,-0.320510089,3.578886032,2.807592869
10.57,-0.300211728,3.579961777,2.812366009
10.58,-0.656329095,0.854123116,4.685378075
10.59,-0.128554583,-0.43037796,4.458297729
10.6,0.276003718,-0.922870636,4.091471672
10.61,0.269700229,-0.922279358,4.060173512
10.62,-1.01298964,0.495848656,3.1195333
10.63,-1.815947175,1.700930595,1.498068571
10.64,-2.43539834,2.862753868,0.172407001
10.65,-2.431861877,2.863154411,0.16766417
10.66,-2.222550154,4.419789314,0.849908173
10.67,-2.227475166,4.420149803,0.834038973
10.68,-1.83452177,4.004032135,1.784126759
10.69,-1.306050062,3.202446938,2.256813765
10.7,-0.489316106,2.003178596,2.197956562
10.71,0.396412283,0.633312225,1.693046808
10.72,0.765075386,-0.555045128,0.755998433
10.73,1.349048853,-2.768403053,0.002564967
10.74,1.294277549,-3.712792397,0.339298666
10.75,1.078722477,-4.276449203,0.267347932
10.76,1.046797037,-4.277373314,0.26198262
10.77,0.561410546,-4.841057777,0.340385199
10.78,0.20464614,-5.325960159,0.804765642
10.79,0.405054539,-5.600776672,0.524768174
10.8,0.34133938,-5.670204639,-0.437409729
10.81,0.002938896,-5.732195854,-0.235088065
10.82,-0.016937777,-5.734034538,-0.204600558
10.83,-0.096262217,-5.709577084,-0.738344908
10.84,-0.038629368,-5.43857336,-1.356029987
10.85,-0.435198844,-5.102748871,-1.366279483
10.86,-0.562862515,-4.816781521,-1.165791631
10.87,-0.579664886,-4.817669392,-1.141691804
10.88,-0.446989834,-3.795999527,-1.276308417
10.89,-0.446906447,-3.011264801,-1.463500738
10.9,-0.762785852,-2.049263477,-1.467949033
10.91,-0.775604129,-2.049767017,-1.446111917
10.92,-1.376951575,0.018476486,-1.118386269
10.93,-1.286160231,1.109872818,-0.88705653
10.94,-1.285146356,1.109528542,-0.85820806
10.95,-1.517671466,1.975977898,-0.352346599
10.96,-2.135452747,3.295080185,-0.621003985
10.97,-1.770213962,3.261581421,-1.258273482
10.98,-1.763258934,3.261795044,-1.210006595
10.99,-1.20031178,3.087350845,-1.344637394
11,-0.773233712,2.869811058,-0.804195702
11.01,-0.692568123,2.819807053,-0.648662686
11.02,-2.257622242,2.494410515,-1.544887781
11.03,-2.260138988,2.494584084,-1.534317851
11.04,-2.912517309,2.490031242,-1.711175203
11.05,-3.158234835,2.947782516,-0.945723295
11.06,-1.759079576,3.980370522,0.354297042
11.07,1.568038464,5.065793037,0.879393399
11.08,2.543970823,5.39007473,0.963173151
11.09,3.416821241,5.305080414,2.57264781
11.1,3.401264668,5.305915833,2.598967552
11.11,3.199744701,3.223378181,4.419354916
11.12,1.948114872,1.837321281,2.998008251
11.13,1.924187183,1.837538719,3.002965689
11.14,1.036437392,0.621449471,1.627834082
11.15,0.473145843,-0.132352829,0.194278047
11.16,0.568845034,-0.364109039,-1.132013083
11.17,1.096329927,0.411916733,-0.231872946
11.18,1.084299803,0.412042618,-0.231228799
11.19,1.522378325,2.277288437,0.671352029
11.2,1.511832952,2.277273178,0.668550968
11.21,0.839674473,3.239247322,2.190611839
11.22,0.091844916,2.845732689,2.565328836
11.23,-0.214926943,1.606948853,2.020866871
11.24,-0.220056996,1.606046677,1.992900491
11.25,-0.564952612,0.151929855,0.870639384
11.26,-0.843368113,-1.555942535,-0.152316123
11.27,-1.019797921,-3.110696316,-0.555082381
11.28,-0.595947683,-5.309514999,-0.321052849
11.29,-0.572975397,-5.310311317,-0.347488999
11.3,-0.290547192,-6.2184062,0.392325103
11.31,-0.251640558,-6.218915462,0.370200962
11.32,-0.011099488,-6.219160557,0.822370529
11.33,0.167211995,-6.034770966,0.741820335
11.34,0.217185706,-6.034420967,0.724603772
11.35,0.353880823,-5.763226032,0.503036261
11.36,0.406179816,-5.376810074,-0.008584075
11.37,0.737044275,-4.949540138,-0.517231345
11.38,0.97167021,-3.904414654,-0.473253012
11.39,0.92836827,-3.297309875,-0.556683183
11.4,0.964655995,-3.29591465,-0.572152555
11.41,0.565705776,-1.953792572,-1.477372408
11.42,0.500128567,-1.253305435,-1.693923831
11.43,0.278704047,-0.349367142,-1.446525335
11.44,0.304873079,-0.348035812,-1.436404347
11.45,0.185139626,0.385900497,-1.105016708
11.46,0.297318697,1.167481422,-0.841064632
11.47,0.620767772,1.910429955,-0.741122067
11.48,0.584573209,2.497468948,-0.99104166
11.49,0.415700853,3.093596458,-1.228285432
11.5,0.213233113,3.763641357,-1.187183022
11.51,-0.106477618,4.170026779,-1.341764331
11.52,-0.384858072,4.042273521,-1.477672577
11.53,-0.471339345,3.646243095,-1.121886134
11.54,-0.816817045,3.212065697,-0.962059498
11.55,-0.821935058,3.21181488,-0.977478027
11.56,-1.028763771,3.331749916,-0.33481136
11.57,-1.018114448,3.332308769,-0.337005079
11.58,-0.11662513,5.021084785,-0.042895287
11.59,-0.098512888,5.022073746,-0.028921122
11.6,0.368421257,5.499764442,0.092910126
11.61,-0.065978765,4.878743172,2.881989479
11.62,-0.169383884,3.180583,2.925433397
11.63,-0.226470292,1.494525909,2.288254023
11.64,-0.19890511,1.496439934,2.300642967
11.65,0.034128249,-0.364688873,1.549082279
11.66,0.167071462,-1.651880264,1.459829569
11.67,0.723836601,-2.630720139,2.769560337
11.68,0.721864164,-2.630889893,2.75087142
11.69,0.658200741,-2.222084045,3.01055789
11.7,0.380626023,-1.698708534,3.224752665
11.71,-0.0755319,-0.153171539,1.766589642
11.72,-0.330139637,0.728693008,0.925346613
11.73,-1.085775733,1.349582672,0.379719913
11.74,-2.002378941,1.956430435,0.235281989
11.75,-2.019637108,1.955400467,0.23163867
11.76,-1.883062363,1.564204216,0.231600285
11.77,-1.511130214,0.799513817,0.222470194
11.78,-1.527106643,0.798794746,0.206724346
11.79,-1.398361444,-0.142625809,-0.108567119
11.8,-0.881048501,-2.098994732,-0.152225867
11.81,-0.89111656,-2.099159718,-0.173396662
11.82,-0.373653799,-3.030704021,-0.052791387
11.83,0.265022576,-4.149037361,-0.266590297
11.84,0.254236102,-4.149200439,-0.282261908
11.85,-0.030436188,-4.541983604,0.857895017
11.86,0.260774434,-4.3313694,1.344637394
11.87,0.491692722,-4.14008379,1.243822694
11.88,0.483120143,-4.140570164,1.247665286
11.89,0.441954672,-4.004746914,0.964810133
11.9,-0.342343569,-3.763627052,-0.26995188
11.91,-0.347364605,-3.764485359,-0.239654928
11.92,-0.454285651,-3.573945045,-0.964176714
11.93,-0.834974706,-3.09849596,-1.536458135
11.94,-0.846561074,-3.099348545,-1.498319149
11.95,-1.479843855,-2.151772022,-2.301080942
11.96,-1.481973886,-2.151920795,-2.261587143
11.97,-1.449294686,-1.689691544,-1.753507018
11.98,-1.133785248,-1.014204025,-1.498045564
11.99,-1.13274169,-1.013822556,-1.46378386
12,-0.799614489,0.023215294,-0.921860814
12.01,-0.847324073,0.375504494,-1.080001593
12.02,-0.848544002,0.375811577,-1.059401274
12.03,-0.899168134,0.969702721,-0.724326134
12.04,-0.207084745,2.058866501,0.05785729
12.05,-0.199550033,2.846072197,-0.018509552
12.06,-0.536323786,3.518264771,-0.195331812
12.07,-1.279393315,4.046774864,-0.349791765
12.08,-1.296793699,4.046190262,-0.351860404
12.09,-2.383945704,4.249312401,-0.480684727
12.1,-3.343554974,3.329874039,-1.398360848
12.11,-3.339303493,3.330336571,-1.383656621
12.12,-0.614430428,3.508448601,0.10505423
12.13,1.130944729,3.643455505,0.58539176
12.14,2.167880774,3.656346321,0.790177703
12.15,2.155405045,3.657457352,0.830631256
12.16,2.628192663,3.311646461,1.824453473
12.17,2.616547585,3.313005447,1.861792684
12.18,2.708602428,2.71544075,2.4677279
12.19,1.902014375,1.099822044,2.330685616
12.2,1.639793158,0.316888809,1.732884765
12.21,1.619073629,0.316414833,1.730875731
12.22,1.097355723,-0.223014832,1.209968686
12.23,0.819111586,-0.448904991,0.683875144
12.24,0.717312157,-0.425780296,0.235181734
12.25,0.572862506,-0.033992767,-0.091193169
12.26,0.967347741,1.032798767,0.37676844
12.27,1.160936117,1.306764603,1.104523182
12.28,1.362036109,1.441625595,1.651376963
12.29,1.020349979,1.35858345,1.835786104
12.3,0.198833168,1.007554054,1.695330739
12.31,0.195217609,1.006394386,1.649573207
12.32,-0.745555282,-0.888309479,0.245625824
12.33,-0.91182828,-1.949523926,-0.242673039
12.34,-1.117996335,-2.775852203,-0.329732835
12.35,-0.993678331,-3.680997372,-0.2606861
12.36,-0.755637884,-4.269934654,-0.107268751
12.37,-0.83676219,-4.813183308,0.039464287
12.38,-0.809436977,-4.812739849,0.017270576
12.39,-0.467883706,-5.120963573,0.349364132
12.4,0.121299252,-5.517591,0.694176793
12.41,0.327487379,-5.346591473,0.028360419
12.42,0.651867986,-5.072573185,-0.084657915
12.43,1.189383626,-4.808029652,-0.048738971
12.44,1.233954906,-4.380626202,-0.480862141
12.45,1.259888649,-4.37927866,-0.502861202
12.46,0.872253597,-3.310103416,-1.053812742
12.47,0.684488893,-2.631270885,-0.699480534
12.48,0.703180432,-2.630013943,-0.718673885
12.49,0.490701437,-1.108456612,-0.279518008
12.5,0.316550762,-0.401045799,-0.234535039
12.51,0.289574921,0.23909092,-0.296276391
12.52,0.17636466,0.795213699,-0.492703438
12.53,0.18750006,0.795668602,-0.48686409
12.54,0.002813995,1.976237297,-1.249897957
12.55,0.241135716,2.622600555,-1.247748256
12.56,0.338959873,3.541501999,-1.052410364
12.57,0.075925827,4.465076447,-1.050079823
12.58,0.061241746,4.464385033,-1.053533077
12.59,-0.286933571,5.167567253,-1.14230752
12.6,-0.349301338,4.707211494,-1.057983279
12.61,-0.499036759,4.089004517,-1.009595871
12.62,-0.508312523,4.088820457,-1.019346237
12.63,-0.698130131,4.419273376,0.161182135
12.64,-0.692789674,4.419370651,0.166142404
12.65,-0.280170083,5.087539673,0.920526743
12.66,-0.456995308,4.635313034,1.036774755
12.67,-0.436344445,4.635860443,1.058098197
12.68,-0.150230706,2.464982033,2.287439108
12.69,0.23909688,1.246900558,2.961258173
12.7,0.582910895,-0.155817032,3.725566387
12.71,0.842208862,-1.383996964,4.065592766
12.72,0.836382389,-1.384074211,4.052227497
12.73,0.593960822,-1.616342545,3.946666479
12.74,-0.810224414,-0.706532478,2.441165209
12.75,-1.48524785,0.03323555,1.262702227
12.76,-1.94156456,0.976421356,0.233984858
12.77,-1.998939157,1.749468803,-0.046699494
12.78,-1.837904215,2.026734352,0.203484654
12.79,-1.610528231,2.016611099,0.97148782
12.8,-1.370655417,1.776872635,1.547035098
12.81,-0.790963292,1.314721107,1.618868351
12.82,-0.810849309,1.314720154,1.590842247
12.83,0.447289228,0.03131485,1.701641321
12.84,0.427959681,-0.849923134,1.250967026
12.85,0.414195657,-0.850233078,1.244900823
12.86,0.217242658,-2.339936733,0.260964364
12.87,0.221761331,-3.018271446,0.14013046
12.88,0.157657981,-3.47651577,-0.256147504
12.89,0.35346061,-4.016400337,-0.977893949
12.9,0.457129061,-4.630837917,-1.116676688
12.91,0.434216976,-4.632280827,-1.089864731
12.92,0.371156335,-5.155457973,-0.414485276
12.93,0.421470702,-5.611525059,-0.072467774
12.94,0.404651344,-5.612556934,-0.041334391
12.95,0.236423537,-5.661366463,-0.265726298
12.96,-0.002678648,-5.683665752,-0.390370697
12.97,0.01887238,-5.581286907,-0.940987408
12.98,0.018294513,-4.949558735,-1.6453017
12.99,-0.188900307,-4.439786911,-1.628396749
13,-0.436756313,-3.640156746,-1.838265181
13.01,-0.444207788,-3.640069962,-1.800413251
13.02,-0.481912553,-2.519162178,-1.941064835
13.03,-1.030374169,0.021819115,-1.140267849
13.04,-1.026399493,0.022621155,-1.101499438
13.05,-1.308776736,0.997788429,-0.165036112
13.06,-1.252525091,1.884400368,-0.32787624
13.07,-1.643459201,2.196552277,-1.044644356
13.08,-1.712689996,2.386900902,-1.525103331
13.09,-1.704647779,2.388235092,-1.490624785
13.1,-1.436128497,2.533267021,-1.812352896
13.11,-1.194831967,3.128193855,-1.052229285
13.12,-1.462577224,3.313333511,-1.062862515
13.13,-1.457012177,3.313789368,-1.055001259
13.14,-2.940434456,3.421860695,-1.66578269
13.15,-2.921200991,3.422464371,-1.661616802
13.16,-3.03775382,4.275964737,0.243725151
13.17,-0.424213946,5.264097214,1.122604132
13.18,-0.404829145,5.266107559,1.150936484
13.19,1.171282649,5.469591141,0.9524104
13.2,2.963655233,4.751322746,2.116459846
13.21,3.364962578,4.149969101,3.533699512
13.22,3.364936829,4.151344299,3.55548954
13.23,3.242008209,1.623419762,4.167153358
13.24,3.228601456,1.623203278,4.170397282
13.25,1.673519492,-0.29957962,0.691242933
13.26,1.5119102,-0.731087685,0.656832993
13.27,1.254655123,-0.624483109,1.300051451
13.28,1.245277882,-0.625796318,1.283507228
13.29,1.318549871,-0.509415627,0.551181555
13.3,1.34612143,0.964601517,0.934779108
13.31,1.357725739,1.799163818,0.669319093
13.32,1.088451147,2.428004265,0.204966992
13.33,0.964458823,2.616453171,0.44121027
13.34,0.9639678,2.615483284,0.424058616
13.35,0.64329958,2.425111771,0.863993883
13.36,-0.237941325,0.47964859,0.832167029
13.37,-0.239839852,0.47843647,0.807536483
13.38,-0.735978544,-2.105931759,-0.250693172
13.39,-0.834837318,-3.263025284,-0.499349415
13.4,-0.787194192,-4.151717186,-0.344076455
13.41,-0.610791087,-4.642786026,-0.076312274
13.42,-0.37620911,-5.081036091,0.194001079
13.43,-0.01015234,-5.373008251,0.553091943
13.44,0.01566714,-5.372746944,0.535899401
13.45,0.288363159,-5.482383728,1.026982307
13.46,0.545901954,-5.278154373,0.804073155
13.47,0.577584803,-5.277186394,0.79069519
13.48,0.855216265,-4.823585987,0.156735316
13.49,0.884485006,-4.822468281,0.144849047
13.5,1.10172379,-4.474301815,-0.205012798
13.51,0.889854312,-3.582709312,-0.572064221
13.52,0.691099942,-3.07430172,-0.767300725
13.53,0.465789527,-2.395944118,-0.760674775
13.54,0.202876478,-1.624212265,-0.763082922
13.55,-0.005283237,-0.969696999,-0.756920695
13.56,0.072840393,-0.286453247,-0.393729806
13.57,0.084380329,-0.28565979,-0.391757071
13.58,0.129530489,0.150787354,-0.188879773
13.59,0.040183306,1.523425102,-0.834152222
13.6,-0.107711613,2.266305923,-1.445625424
13.61,-0.222842813,3.119325638,-1.49887538
13.62,-0.217066824,3.119826317,-1.493970156
13.63,-0.144716978,4.446462631,-1.036526203
13.64,-0.009206235,4.237685204,-0.960099697
13.65,-0.094303608,3.693417549,-0.937267125
13.66,-0.101706326,3.692490578,-0.956428349
13.67,-0.306533158,2.827201843,-0.921339631
13.68,-0.463067412,3.175890923,-0.288730204
13.69,0.008896351,4.159250259,0.351994187
13.7,0.404270768,5.070928574,0.99366945
13.71,0.48879385,5.228699684,1.544287205
13.72,0.530103266,4.546483994,2.002903938
13.73,0.666722298,3.404984474,2.857136965
13.74,0.697779298,2.232611656,3.161754608
13.75,0.704994917,2.233555794,3.184974194
13.76,0.286741734,-0.597976685,2.997555017
13.77,0.16407001,-1.136342049,3.595966578
13.78,-0.120043516,-1.249128342,3.475461483
13.79,-0.562375426,-0.895291328,2.76482749
13.8,-1.12012136,-0.036320686,2.390325546
13.81,-2.066717863,0.724452019,2.212147951
13.82,-2.434367657,1.552463531,1.736532569
13.83,-2.440462351,1.552021027,1.734047174
13.84,-2.201325417,2.384622574,1.591981411
13.85,-1.982337475,2.424500465,1.726044178
13.86,-1.597480059,2.167368889,1.528544664
13.87,-1.605595827,2.166326523,1.503807068
13.88,-0.549624383,0.623292923,1.083875179
13.89,-0.559176624,0.622252464,1.056786656
13.9,-0.083392799,-0.832011223,0.508342326
13.91,0.206059367,-1.520105362,0.736944199
13.92,0.191420883,-1.52107811,0.718545795
13.93,1.121371627,-2.606729984,0.836955845
13.94,1.10078907,-2.607784748,0.829060674
13.95,1.293544173,-2.865036488,0.597304165
13.96,1.28162086,-2.995354652,0.917482793
13.97,0.978980184,-2.931711197,1.120045066
13.98,0.507361114,-2.918254375,1.048181772
13.99,0.110046625,-3.148844242,0.398632258
14,-0.079651713,-3.429553032,-0.176542282
14.01,-0.098582625,-3.430030823,-0.163842976
14.02,-0.167837143,-3.595621109,-0.668133438
14.03,-0.291856885,-3.552842617,-0.512252927
14.04,-0.30911842,-3.553120136,-0.499960452
14.05,-0.469622076,-3.471846581,-0.259295315
14.06,-0.484788239,-3.241958141,-0.236219943
14.07,-0.576417565,-3.076484203,0.099722639
14.08,-0.55889374,-3.087934494,0.618247271
14.09,-0.55251658,-3.087129593,0.64475888
14.1,-0.388119519,-3.239024639,0.06518887
14.11,-0.296177924,-3.019445896,-0.528406739
14.12,-0.282539576,-3.017457485,-0.48400411
14.13,-0.254420966,-1.617079735,-0.83191824
14.14,-0.000222266,-0.867941856,-0.560528636
14.15,-0.426117361,-0.109302521,-0.742621541
14.16,-0.969349206,0.584892273,-0.759990454
14.17,-0.948960543,1.420391083,-0.585699737
14.18,-0.937630177,1.422478676,-0.55683434
14.19,-1.168392181,2.065975189,-0.692706168
14.2,-1.283690691,1.70093441,-0.419109881
14.21,-1.421938062,1.093083382,-0.143089235
14.22,-1.838944077,0.726164818,-0.503589273
14.23,-1.994792938,1.259784698,-0.668535829
14.24,-1.315012932,2.258571625,-0.53738904
14.25,-0.797016025,3.873501778,-0.659161925
14.26,0.039704531,5.269146919,-0.835109174
14.27,0.507318676,6.131866455,-0.184349239
14.28,0.654276371,6.309868813,1.407119274
14.29,0.809524834,6.090352058,2.630198717
14.3,1.139142752,5.464035034,2.442935467
14.31,1.134879112,4.421336174,1.390369892
14.32,0.953136802,3.08643055,-0.007776201
14.33,0.770361185,1.644668579,-0.02763617
14.34,0.569013059,0.217936516,0.952402353
14.35,0.557384312,0.21664238,0.943642736
14.36,1.145190477,-1.267704964,2.52295804
14.37,1.602570653,-1.133858681,2.155812263
14.38,1.484431624,-0.458674431,1.64611721
14.39,1.271597862,0.305187225,1.68484962
14.4,1.271356106,0.302236557,1.649823308
14.41,0.478052616,1.771303177,1.615434408
14.42,0.226026505,2.217652321,1.690990686
14.43,0.26520437,2.084344864,1.680027723
14.44,0.422149599,1.603487968,1.829121351
14.45,0.385910928,0.804465294,1.561160564
14.46,0.247500211,-0.015451431,1.257180929
14.47,0.244572938,-0.018269539,1.190779805
14.48,0.21632804,-1.521729469,1.249128222
14.49,0.376150578,-2.01902914,1.237208962
14.5,0.381460816,-2.312273979,1.378910542
14.51,0.4290981,-2.238791466,1.646915913
14.52,0.431342661,-2.239257812,1.603613257
14.53,0.461992085,-1.772598267,0.901202202
14.54,0.353994787,-1.514081955,0.452032685
14.55,0.03337875,-1.298564911,0.147955716
14.56,0.009369612,-1.157237053,0.088098116
14.57,0.399733692,-1.042305946,0.521425962
14.58,0.630505145,-0.975395203,1.11426127
14.59,0.379972756,-1.01867485,1.056475997
14.6,0.355093479,-1.131331444,1.293531179
14.61,0.760596156,-1.327781677,1.776514769
14.62,1.034492493,-1.560209274,1.555579782
14.63,1.205210447,-1.739971161,1.35107398
14.64,1.16503346,-1.503107071,1.589356661
14.65,0.801658452,-1.04106617,1.714101315
14.66,0.468415856,-0.550082207,1.671756506
14.67,0.128895342,-0.104725838,1.157627106
14.68,-0.104727328,0.2269907,0.384570807
14.69,-0.350587905,0.625228882,-0.03611505
14.7,-0.528008401,0.869138718,-0.143174022
14.71,-0.515083551,0.954109192,-0.350548208
14.72,-0.077931166,1.011991501,-0.56086427
14.73,0.140999392,0.930516243,-0.332323283
14.74,0.173515558,0.74846077,0.014311671
14.75,0.175489485,0.748391151,0.015765369
14.76,-0.169191748,0.573619843,0.607342362
14.77,-0.286186606,0.55448246,0.384852529
14.78,-0.28278178,0.554289818,0.388467789
14.79,-0.626819491,0.666333199,0.108198762
14.8,-0.354331255,0.756713867,-0.019199073
14.81,-0.347614169,0.80391407,-0.128320724
14.82,-0.344061434,0.803238869,-0.115616173
14.83,-0.105941609,0.328623772,0.040864825
14.84,-0.106841184,0.328125954,0.050026059
14.85,-0.26802215,-0.560592651,-0.494667083
14.86,-0.554879189,-0.994312286,-0.461343825
14.87,-0.561722219,-1.468552589,-0.335121989
14.88,-0.558573961,-1.468576431,-0.333739579
14.89,-0.308776557,-1.822894096,-0.415450037
14.9,-0.153909221,-1.664838791,-0.588015497
14.91,-0.152415186,-1.664958954,-0.585315585
14.92,-0.043132305,-1.351531029,-0.633107126
14.93,0.13670747,-0.303210259,-0.477188408
14.94,0.137529597,-0.303666115,-0.467385948
14.95,-0.130899295,0.437908173,-0.474546433
14.96,-0.252147257,0.678845406,-0.561768591
14.97,-0.495166838,0.802333832,-0.810075998
14.98,-0.676795483,0.897018433,-0.836664081
14.99,-0.669610858,0.895957947,-0.805372238
15,-1.269812822,0.892631531,-0.941945672
15.01,-1.250558734,0.891818047,-0.904732108
15.02,-0.99352777,0.833878517,-0.58518219
15.03,-0.796195388,0.079487801,-0.479828477
15.04,-0.775016427,0.079489708,-0.457663417
15.05,-0.321816742,-0.707978249,-0.017116189
15.06,-0.096477151,-0.781785011,0.435796201
15.07,-0.084615171,-0.781251907,0.426054567
15.08,-0.248949558,-0.581830978,0.530907452
15.09,-0.373001814,-0.444608688,0.165024072
15.1,-0.599286676,-0.30496788,-0.172976822
15.11,-0.517182946,-0.167655945,-0.442209005
15.12,-0.502260685,-0.166840553,-0.45250243
15.13,-0.49596861,0.06620121,-0.213720053
15.14,-0.344811529,0.184304237,-0.143562317
15.15,-0.150855303,0.295088768,-0.319303036
15.16,-0.156350225,0.338650703,-0.344622612
15.17,-0.166205138,0.343817711,-0.254523277
15.18,-0.020866543,0.267505646,-0.313280582
15.19,-0.007318228,0.267672539,-0.292337149
15.2,-0.196880698,0.078652382,-0.376484633
15.21,-0.170526177,-0.021783829,-0.581359446
15.22,-0.125287354,-0.131889343,-0.637894988
15.23,-0.120317459,-0.131913185,-0.618446171
15.24,-0.292667151,-0.083977699,-0.496424019
15.25,-0.384914994,-0.040738106,-0.346561372
15.26,-0.284430206,-0.059650421,-0.193219483
15.27,-0.255835593,-0.179074287,-0.185237989
15.28,-0.358991563,-0.274541855,-0.10608466
15.29,-0.406628847,-0.374747276,-0.112944543
15.3,-0.322643042,-0.515631676,-0.547340274
15.31,-0.315205276,-0.515245438,-0.537128091
15.32,-0.392436445,-0.471648216,-0.647167981
15.33,-0.4084934,-0.308253288,-0.407757074
15.34,-0.398198247,-0.307642937,-0.402546048
15.35,-0.187721252,-0.11792469,-0.266888529
15.36,-0.440669179,0.28015995,0.439121991
15.37,-0.346021712,0.283234596,0.295597017
15.38,-0.2497679,0.106696129,-0.046644043
15.39,-0.171185315,-0.033969879,-0.298383921
15.4,-0.163808942,-0.033470154,-0.292178631
15.41,-0.081101358,-0.212633133,-0.350797534
15.42,-0.174072921,-0.243421555,-0.11622116
15.43,-0.16908896,-0.243081093,-0.119324386
15.44,-0.35133487,-0.130253792,-0.336808115
15.45,-0.336819708,-0.072446823,-0.056151144
15.46,-0.237044156,-0.026695251,0.575064838
15.47,-0.124815226,-0.060066223,0.072293088
15.48,-0.124790967,-0.060056686,0.068847328
15.49,-0.232140243,-0.057641983,-0.360983998
15.5,-0.049269259,-0.084082603,-0.199478477
15.51,0.007786512,0.078560829,-0.067176476
15.52,0.004869163,0.078360558,-0.071402565
15.53,0.05102694,0.094849586,-0.26876998
15.54,-0.062174261,0.020274162,-0.077276938
15.55,-0.131536126,0.007845879,0.105500072
15.56,-0.054112732,0.038414001,0.157454789
15.57,-0.064683259,0.037765503,0.150440514
15.58,-0.120078862,0.058701515,0.071441285
15.59,-0.128952503,0.058161736,0.068378977
15.6,-0.134836197,0.067217827,0.014821138
15.61,-0.136888623,0.090741158,-0.137663677
15.62,-0.047666013,0.040054321,-0.15966931
15.63,0.046363533,0.025270462,-0.127781019
15.64,0.054207087,0.027244568,-0.10254246
15.65,0.002280295,0.043610573,-0.098064438
15.66,0.025211096,0.055224419,-0.057715621
15.67,0.039127946,0.042920113,-0.08291129
15.68,-0.014839888,0.035495758,-0.132043943
15.69,-0.106125593,0.0281353,-0.211832777
15.7,-0.103210986,0.032813072,-0.353488177
15.71,-0.088488996,0.032686234,-0.183901846
15.72,-0.09074384,0.032588005,-0.173846319
15.73,-0.027103722,0.032432556,0.057744555
15.74,-0.024803758,0.032330513,0.051536419
15.75,-0.231550455,-0.020341873,0.002096314
15.76,-0.27602756,-0.0585289,-0.197575793
15.77,-0.34803766,-0.12775135,-0.369880945
15.78,-0.344025791,-0.127421379,-0.356916845
15.79,-0.351375341,-0.124647141,-0.394553393
15.8,-0.082023919,-0.02377224,-0.099518374
15.81,-0.004793763,0.026782036,0.028538257
15.82,-0.026187718,0.034213066,-0.0286621
15.83,-0.022977233,0.0344944,-0.020777494
15.84,0.047435761,0.034808159,-0.154210627
15.85,-0.044912875,0.035121918,-0.057212934
15.86,-0.031321824,0.049862862,-0.024736747
15.87,-0.132897377,0.136437416,-0.096475273
15.88,-0.286897481,0.148867607,-0.154604569
15.89,-0.34457767,0.149375916,-0.402894676
15.9,-0.251080692,0.135607719,-0.314177156
15.91,0.021059036,0.095471382,0.303549945
15.92,0.104783475,0.069577217,0.199410886
15.93,-0.13514328,0.038990974,-0.288631797
15.94,-0.131558716,0.039701462,-0.270636141
15.95,-0.127178311,0.026013374,0.210517392
15.96,-0.146411896,-0.011667252,-0.199812323
15.97,-0.083992183,-0.121050835,-0.45092985
15.98,-0.041223049,-0.062833786,-0.23111707
15.99,-0.038098514,-0.062280655,-0.220298141
16,-0.112475693,-0.01158905,0.230546624
16.01,0.038454771,-0.095162392,0.188508079
16.02,0.09608376,-0.140599251,0.09578824
16.03,0.071934462,-0.145373344,-0.006639659
16.04,0.069615364,-0.145309448,-0.000873923
16.05,0.139361829,-0.161945343,-0.204746425
16.06,0.297549784,-0.077988625,0.004006535
16.07,0.271353096,0.003573418,0.260686457
16.08,0.269620866,0.061292648,0.346328288
16.09,0.267255873,0.061582565,0.35711211
16.1,0.200073987,0.121891022,-0.15297994
16.11,0.278071553,0.045722008,-0.171348333
16.12,0.285150141,0.043680191,-0.039597631
16.13,0.281562746,-0.013543129,0.081225753
16.14,0.273775756,-0.01349926,0.091795057
16.15,0.231803119,-0.111720085,0.136862814
16.16,0.10126105,-0.114207268,0.113806546
16.17,0.093647629,-0.114286423,0.121047616
16.18,0.065247387,-0.078385353,0.20261994
16.19,0.02801621,-0.016136169,0.17079854
16.2,-0.041406214,0.010275841,0.024327278
16.21,0.026560962,0.046414375,-0.094495296
16.22,0.023102343,0.046710968,-0.085466743
16.23,0.010541558,0.104434013,-0.001036704
16.24,0.225311488,0.099830627,0.175128847
16.25,0.238465756,0.054483414,0.224189639
16.26,0.194585621,0.047418594,0.353922248
16.27,0.191687584,0.047491074,0.357921541
16.28,0.174679011,0.006842613,0.40219447
16.29,0.128495187,-0.134387016,0.369260818
16.3,0.125578433,-0.134337425,0.372939795
16.31,0.113331229,-0.167759895,0.271378785
16.32,-0.096832335,-0.352022171,0.12153545
16.33,-0.079348981,-0.385426521,-0.069079578
16.34,-0.193664193,-0.306286812,-0.189864874
16.35,-0.154099524,-0.215164185,0.107923567
16.36,0.031638533,-0.109833717,0.472430855
16.37,0.156605929,-0.059671402,0.508134008
16.38,0.065961093,-0.074160576,0.366380751
16.39,-0.050330698,-0.170075417,0.300641686
16.4,-0.060301185,-0.165478706,0.292900085
16.41,-0.113069624,-0.163372994,-0.209745467
16.42,-0.075019032,-0.132351875,-0.302384436
16.43,-0.077701688,-0.132635117,-0.304519117
16.44,0.116399288,-0.003832817,0.210488588
16.45,0.10839504,0.057767868,0.486937523
16.46,-0.08863616,0.045158386,0.315359503
16.47,-0.093177617,0.044591904,0.309364647
16.48,-0.284986347,-0.046783447,0.153855592
16.49,-0.211977333,-0.027871132,0.116939068
16.5,-0.119098634,-0.066319466,-0.014408648
16.51,-0.018730789,-0.061552048,-0.004919231
16.52,0.146073788,-0.035196304,0.249510407
16.53,0.150090456,0.043818474,0.276406199
16.54,0.149985254,0.043940544,0.278896302
16.55,-0.107421249,0.049024582,0.014875948
16.56,-0.189216286,0.044701576,-0.196641743
16.57,-0.186782628,0.045269012,-0.188636661
16.58,-0.182653457,0.055423737,-0.178126335
16.59,-0.076764405,0.101220131,0.056553364
16.6,-0.076539367,0.101486206,0.060614049
16.61,-0.104714185,0.116125107,0.103297591
16.62,-0.172507733,0.061461449,0.039053559
16.63,-0.160455108,-0.009923935,-0.048940241
16.64,-0.090761125,-0.02149868,-0.056658089
16.65,-0.081273228,0.007609367,0.028737783
16.66,-0.078857988,0.007926941,0.032073021
16.67,-0.064690292,0.017837524,0.167247772
16.68,-0.048345715,-0.010490417,0.080865502
16.69,-0.080131024,-0.069986343,0.116524041
16.7,-0.078403473,-0.069600105,0.121032476
16.71,-0.060514808,-0.136244774,0.083175778
16.72,0.033693373,-0.162174225,0.019352615
16.73,0.135079116,-0.049239159,0.213928223
16.74,0.135801882,-0.048859596,0.219059706
16.75,0.047904342,0.052044868,0.417764515
16.76,-0.067859709,0.052447319,0.353083879
16.77,-0.111125708,0.045722961,0.132882953
16.78,-0.218879521,-0.07349968,-0.237707257
16.79,-0.434117615,-0.032237053,-0.193140984
16.8,-0.351788521,-0.026938438,-0.085432649
16.81,-0.349415064,-0.026576042,-0.082108438
16.82,0.062179834,-0.071919441,0.418272078
16.83,0.035295993,-0.105402947,0.61794734
16.84,0.036272436,-0.105443955,0.616719842
16.85,-0.013887584,-0.105438232,0.348846942
16.86,-0.137136459,-0.028796196,-0.129814982
16.87,-0.187666237,-0.042784691,-0.120784581
16.88,-0.160330057,0.046078682,0.330751926
16.89,-0.2109586,0.058070183,0.506525993
16.9,-0.108691931,0.055584908,0.384063244
16.91,-0.107740879,0.033940315,0.173693299
16.92,-0.106996477,0.033914566,0.172863305
16.93,-0.181917012,-0.016311646,0.224940509
16.94,-0.162739217,-0.056839943,0.163269818
16.95,-0.193272173,-0.039815903,0.018665135
16.96,-0.092013061,-0.094568253,0.109332442
16.97,-0.0896703,-0.094331741,0.110725939
16.98,0.025055528,-0.11574173,0.316959202
16.99,0.022345245,-0.067585945,0.378858954
17,-0.071005881,-0.103001595,0.034280837
17.01,-0.068776786,-0.102422714,0.040770769
17.02,-0.136162281,-0.018078804,0.113714099
17.03,-0.110431194,0.008694649,0.027443469
17.04,-0.161713183,0.054611206,0.022489965
17.05,-0.17467016,0.059736252,0.061795473
17.06,-0.185496688,0.059951782,0.066440165
17.07,-0.186255217,0.060232162,0.085423589
17.08,-0.18460834,0.060476303,0.087558866
17.09,-0.082296729,0.020042419,0.070789516
17.1,-0.082935929,-0.03713131,0.082856655
17.11,-0.081338465,-0.036868095,0.085042238
17.12,-0.065267444,-0.058232307,0.114828587
17.13,0.041491926,-0.010198593,0.082208931
17.14,0.084976166,0.016279221,0.153276563
17.15,0.027351081,0.049930573,0.238812864
17.16,-0.001078606,0.03093338,0.276661128
17.17,-0.043628156,0.043086052,0.17786628
17.18,-0.025883555,0.002608299,0.067783356
17.19,0.051369429,-0.040213585,-0.03943187
17.2,0.003773272,0.022307396,0.097905695
17.21,-0.07981354,0.051221848,0.241424084
17.22,-0.098760247,0.05856514,0.133257866
17.23,-0.170310795,-0.008221626,-0.01462549
17.24,-0.296417117,-0.058198929,-0.3127684
17.25,-0.333368599,-0.060221672,-0.27554965
17.26,-0.156988382,0.007073402,-0.079720736
17.27,-0.157406032,0.006982803,-0.080575883
17.28,0.063530982,-0.09140873,0.420849383
17.29,0.062621772,-0.091513634,0.419963837
17.3,0.100951821,-0.173131943,0.630417526
17.31,-0.089330256,-0.103961945,-0.073078275
17.32,-0.132511735,-0.0965662,-0.53175664
17.33,-0.124161005,0.021045685,-0.129330993
17.34,-0.177159488,0.064022064,0.216751099
17.35,-0.068313777,0.063766479,0.262398452
17.36,-0.043980777,0.063402176,0.383564293
17.37,-0.084301353,0.062941551,0.403262258
17.38,-0.051299393,0.045870781,0.186395764
17.39,-0.219847083,0.036364555,-0.017357826
17.4,-0.199885428,-0.056697845,0.003557563
17.41,-0.09339124,-0.039575577,0.022377312
17.42,-0.051896572,-0.012870789,0.268727988
17.43,0.061286628,-0.007813454,0.365682662
17.44,0.077608943,-0.060213089,-0.070672214
17.45,-0.059570313,-0.078802109,0.031168461
17.46,-0.057429791,-0.078303337,0.035804272
17.47,-0.119831502,-0.137694359,0.092845857
17.48,-0.115558624,-0.101316452,0.032463372
17.49,-0.044402599,-0.045865059,0.124532402
17.5,-0.043395758,-0.045595169,0.127187312
17.51,-0.135654926,-0.021392822,0.026582062
17.52,-0.153755248,-0.052302361,-0.002723277
17.53,-0.152692556,-0.052132607,-0.001537859
17.54,-0.14449966,-0.10955143,0.05341351
17.55,-0.103925288,-0.102478027,0.064086676
17.56,-0.078451276,-0.0668993,0.142106473
17.57,-0.082059979,0.004534721,0.140437782
17.58,-0.188648343,0.049649239,0.201253355
17.59,-0.189026535,0.049352646,0.197790086
17.6,-0.202911735,0.065919876,0.151800335
17.61,-0.201686025,0.065829277,0.149827004
17.62,-0.125574589,0.065936089,0.228548706
17.63,-0.08710289,0.066173553,0.153030217
17.64,-0.060627103,-0.010126114,0.07373035
17.65,0.018078446,-0.012185097,0.097644985
17.66,0.028993487,-0.009600639,0.10864538
17.67,0.029481888,-0.009514809,0.109273136
17.68,0.012099743,0.052678108,0.154582024
17.69,0.011376143,0.052622795,0.154465079
17.7,-0.242706657,-0.007228851,-0.26183188
17.71,-0.336182773,-0.00955677,-0.177112162
17.72,-0.215936244,0.016802788,0.3686001
17.73,-0.216870606,0.016575813,0.366469532
17.74,-0.049194396,-0.077049255,0.190451205
17.75,-0.036260784,-0.26377964,0.014819741
17.76,0.005303502,-0.237430573,0.320214212
17.77,-0.089316487,-0.1347332,-0.053307176
17.78,-0.090132475,-0.13483429,-0.053794682
17.79,-0.089827001,-0.055882454,-0.35711056
17.8,0.062188506,0.056319237,-0.080613315
17.81,-0.071106017,0.166067123,0.377163172
17.82,-0.074800193,0.16562748,0.374514163
17.83,-0.183628798,0.064622879,0.352309883
17.84,-0.205382943,0.004397392,0.22507149
17.85,-0.127984881,-0.048406601,0.071436882
17.86,-0.129220307,-0.048405647,0.072596014
17.87,-0.007650614,-0.024370193,0.212948024
17.88,0.048820078,-0.01479435,0.312004119
17.89,-0.007026255,0.011610031,0.275111437
17.9,0.024074793,-0.016934395,-0.01938504
17.91,0.024194598,-0.016494751,-0.013947248
17.92,0.067231894,-0.073518753,0.080214381
17.93,0.062272131,-0.101900101,0.171055257
17.94,0.051942468,-0.063357353,0.184199691
17.95,0.019786894,0.049323082,0.239487052
17.96,-0.036894381,0.066151619,0.246260703
17.97,-0.038468242,0.066198349,0.247849405
17.98,-0.15193814,0.066243172,0.153402329
17.99,-0.116582215,0.018455505,0.109467685
18,-0.088698506,-0.017428398,0.088983655
18.01,-0.115519226,-0.00783062,0.127968907
18.02,-0.147065938,-0.010299683,0.125002384
18.03,-0.194864929,-0.015149117,0.200825393
18.04,-0.194506347,-0.01525116,0.199237227
18.05,0.030137539,0.015746117,0.197910965
18.06,-0.077641368,0.032382965,0.359285504
18.07,-0.03849417,0.058607101,0.220847845
18.08,-0.032500863,0.056265831,0.095953405
18.09,-0.028926194,0.013272285,0.060487568
18.1,-0.02813971,0.013360977,0.061028242
18.11,0.092052192,0.066123962,0.270126283
18.12,0.092154771,0.066135406,0.270142078
18.13,0.028414726,0.066236496,0.32120508
18.14,-0.049391866,0.056809425,0.209465623
18.15,-0.048258185,0.057021141,0.211172998
18.16,-0.168811381,-0.143875122,-0.014737666
18.17,-0.246258915,-0.021577835,-0.20496273
18.18,-0.162931919,0.012158394,0.081194639
18.19,-0.162803352,0.012042999,0.079466164
18.2,0.094608426,0.018802643,0.738611996
18.21,0.124718398,-0.014966965,0.712235928
18.22,-0.061275125,-0.115366936,-0.035753429
18.23,-0.141044378,-0.141692162,0.099494457
18.24,-0.14088583,-0.02694416,-0.0050807
18.25,-0.054558098,0.009086609,-0.003186226
18.26,-0.053593636,0.009001732,-0.0049088
18.27,-0.061537206,0.078042984,0.460021377
18.28,-0.062620044,0.077522278,0.454165638
18.29,-0.054131627,0.064968109,0.380551785
18.3,-0.074024081,-0.002580643,0.178361476
18.31,-0.118984819,0.006817818,0.029668093
18.32,-0.138852239,-0.017065048,0.021867394
18.33,-0.091157079,-0.033626556,0.132766247
18.34,-0.055423081,-0.069320679,0.239248931
18.35,0.030453682,-0.047554016,0.329030067
18.36,0.02504313,-0.023361206,0.081704855
18.37,-0.116783798,-0.003868103,0.168397248
18.38,-0.114931166,-0.003563881,0.170827687
18.39,0.055936813,-0.041712761,0.184276104
18.4,-0.006052494,-0.075061798,0.131134987
18.41,-0.006182551,-0.086850166,0.04972434
18.42,-0.007502139,-0.086801529,0.05132997
18.43,-0.067264855,-0.07013607,0.102173269
18.44,-0.031603992,-0.053591728,0.178277969
18.45,-0.106674314,-0.077876091,0.2147609
18.46,-0.090421975,-0.059078217,0.269906521
18.47,-0.133597195,-0.021203041,0.21855706
18.48,-0.134876967,-0.021573067,0.214868724
18.49,-0.199603379,0.049951553,0.174938977
18.5,-0.075273812,0.052075386,0.116513729
18.51,-0.14512074,0.063833237,0.228834927
18.52,-0.073118865,0.056410789,0.257010967
18.53,0.010806084,-0.0060606,0.134251893
18.54,0.041675985,-0.022936821,0.125589609
18.55,-0.049407005,-0.011057854,0.184453368
18.56,-0.060985625,-0.00154686,0.259825736
18.57,-0.060750365,-0.004059792,0.219893515
18.58,-0.01766628,0.012644768,0.195195615
18.59,-0.003945887,0.053262711,0.23518163
18.6,-0.047855318,0.053115845,0.231426001
18.61,-0.127590656,-0.028427124,0.124905944
18.62,-0.288182378,-0.026096344,0.026138008
18.63,-0.308928013,0.060137749,-0.093734682
18.64,-0.352714181,0.088973045,-0.086444318
18.65,-0.349824607,0.089122772,-0.086726606
18.66,0.076682389,0.089198112,0.565508127
18.67,0.078469574,0.089207649,0.564237356
18.68,-0.148846328,-0.018298149,0.074525118
18.69,-0.145215273,-0.017996788,0.075459778
18.7,-0.038842857,0.058623314,0.37197119
18.71,-0.09712863,0.034828186,-0.096348047
18.72,0.030945122,-0.036637306,-0.130419135
18.73,0.092873216,0.001905441,0.27079311
18.74,-0.013786018,0.054470062,0.479285061
18.75,-0.013073742,0.054177284,0.474697173
18.76,-0.129354835,0.061033249,0.459774613
18.77,-0.116046965,0.041565895,0.329952002
18.78,-0.066160083,-0.006472588,0.069879889
18.79,-0.013483763,0.024671555,0.237818807
18.8,-0.049049258,0.031907082,0.39194268
18.81,0.017303109,-0.00859642,0.407620072
18.82,0.010201156,-0.020205498,0.324482113
18.83,-0.04457885,-0.007804871,-0.016447186
18.84,-0.080065548,0.019152641,-0.007878006
18.85,-0.015541852,-0.006542206,-0.01790297
18.86,-0.011927724,-0.005947113,-0.01323092
18.87,0.148039639,0.054318428,0.19421047
18.88,0.114587605,0.066457748,0.320917547
18.89,0.111491323,0.08560276,0.254320353
18.9,-0.004659355,0.066348076,0.244414181
18.91,-0.00518626,0.066228867,0.243582398
18.92,-0.144287705,-0.029694557,0.263203114
18.93,-0.203784525,-0.077746391,0.176692486
18.94,-0.268936217,-0.094542503,0.038092911
18.95,-0.31115526,-0.00340271,-0.013072968
18.96,-0.299922288,0.061465263,0.036459744
18.97,-0.295011401,0.061770439,0.035968184
18.98,-0.244387209,0.066868782,0.090413988
18.99,-0.052811503,0.06709671,0.357305527
19,-0.048241436,0.067310333,0.355805039
19.01,0.049470425,0.067576408,0.27853474
19.02,0.0539096,0.067887306,0.27847746
19.03,0.09631139,0.037167549,0.148372889
19.04,0.038077056,-0.003110886,0.274681389
19.05,0.036972761,-0.024334908,0.299402148
19.06,0.040100276,-0.02405262,0.30005154
19.07,0.016339779,-0.066923141,0.27184394
19.08,-0.0770154,-0.042742729,0.052421153
19.09,-0.201567113,-0.037679672,-0.20467937
19.1,-0.301854014,-0.020525932,-0.400821686
19.11,-0.370535493,0.070866585,-0.161456347
19.12,-0.256818116,0.102303505,0.174534798
19.13,-0.254190385,0.102523804,0.174637675
19.14,0.167863369,0.0163908,0.498216063
19.15,0.120001793,-0.10322094,0.408371717
19.16,0.014702857,-0.213271141,0.419151157
19.17,0.015922725,-0.213258743,0.418131143
19.18,-0.087261736,-0.217953682,-0.155123413
19.19,-0.085718632,-0.217656136,-0.152743816
19.2,0.024840057,-0.021197319,0.406421006
19.21,-0.04716295,0.055327415,0.352722883
19.22,-0.17181927,0.072016716,0.122152388
19.23,-0.171564758,0.07201767,0.121966481
19.24,-0.233208001,0.122326851,0.105065107
19.25,-0.13660872,0.086514473,0.172485888
19.26,-0.080684066,0.072319984,0.236078501
19.27,-0.031623423,0.070110321,0.266245365
19.28,-0.029535472,0.070458412,0.268741906
19.29,-0.007505417,-0.036830902,0.302915186
19.3,-0.10020268,-0.096130371,-0.006386578
19.31,-0.077569127,-0.10490036,-0.126224458
19.32,-0.134332478,-0.14470768,0.021207333
19.33,-0.131283581,-0.14384079,0.028960407
19.34,-0.047666132,-0.016263008,0.145706832
19.35,-0.076789081,0.008339882,0.123114765
19.36,-0.07509166,0.008868217,0.128227592
19.37,-0.145583391,-0.031380653,0.103846848
19.38,-0.118107975,-0.07412529,0.039877713
19.39,-0.122528315,-0.081116676,0.08257705
19.4,-0.065091431,-0.066684723,0.275177598
19.41,-0.065541506,-0.066701889,0.275303304
19.42,-0.001656234,-0.018853188,0.182165086
19.43,-0.002105772,-0.018820763,0.183090389
19.44,-0.102699459,-0.035540581,0.020769537
19.45,-0.122024953,-0.033047676,-0.102283776
19.46,-0.10576272,-0.00663662,-0.115403175
19.47,-0.106749117,-0.006597519,-0.113917291
19.48,-0.098345459,0.048500061,0.0169155
19.49,0.019865215,0.079665184,0.200602353
19.5,0.018578947,0.079772949,0.203177154
19.51,-0.084370494,0.080062866,0.197103083
19.52,-0.10137558,0.018080711,0.066468298
19.53,-0.094743729,0.003907204,0.141153693
19.54,0.03790623,0.023097038,0.298509359
19.55,0.066669166,0.027736664,0.322757244
19.56,-0.127237201,0.008483887,0.187258601
19.57,-0.302921414,-0.060866356,-0.052793205
19.58,-0.302548528,-0.06064415,-0.050394356
19.59,-0.19392091,-0.069930077,-0.002351701
19.6,0.018996537,-0.074638367,0.252722085
19.61,0.016664267,-0.07482338,0.252631486
19.62,0.156931996,-0.156579971,0.503008068
19.63,0.065444887,-0.111440659,0.434280843
19.64,0.063681126,-0.111803055,0.431794256
19.65,-0.006361365,-0.047270775,0.150700867
19.66,-0.140802026,0.000733376,-0.173231244
19.67,-0.085485756,0.015010834,0.08874476
19.68,-0.050337851,0.081858635,0.457795709
19.69,-0.05385375,0.081510544,0.456914872
19.7,-0.040043354,-0.016881943,0.2365942
19.71,-0.145672858,0.028429985,0.282402277
19.72,-0.12719959,-0.000317574,0.294674039
19.73,-0.037378967,-0.11975956,0.158165872
19.74,0.014481664,-0.229469299,0.077908456
19.75,0.015806198,-0.229003906,0.082169592
19.76,0.019083381,-0.202328682,0.257672906
19.77,0.128809094,-0.132764816,0.422349393
19.78,-0.0372352,0.046965599,0.108896852
19.79,-0.16675663,0.02090168,0.004614294
19.8,-0.195139587,0.011679649,-0.001158714
19.81,-0.194669962,0.011983871,0.001933396
19.82,-0.097147942,0.007364273,-0.007695854
19.83,-0.083279669,0.072039604,0.244441271
19.84,-0.110160649,0.076887131,0.13313961
19.85,-0.179639041,0.077075958,0.161537647
19.86,-0.178916872,0.077279091,0.163420975
19.87,-0.082342684,-0.070893288,0.031523645
19.88,-0.016925156,-0.099378586,0.086423516
19.89,-0.016552508,-0.099277496,0.08718282
19.9,0.102930903,-0.08497715,0.206250668
19.91,0.053832829,-0.046767235,0.098608851
19.92,0.009622633,0.015504837,0.169232905
19.93,0.008593619,0.015554428,0.170535207
19.94,-0.002068341,-0.001126289,0.122066259
19.95,0.018155336,-0.07288456,0.123984098
19.96,0.092797279,-0.080029488,0.085347712
19.97,0.037587881,-0.048869133,0.174014092
19.98,0.003827035,-0.000975609,0.145300329
19.99,-0.046220005,0.046962738,0.09482348
20,-0.019465625,0.068557739,0.106570303
20.01,-0.021431029,0.06856823,0.108284712
20.02,-0.039856017,0.082962036,0.102772415
20.03,-0.031959116,0.078157425,0.139766753
20.04,-0.241438508,0.037498474,-0.083775342
20.05,-0.240994573,0.037786484,-0.080980122
20.06,-0.24722904,0.083556175,-0.050103068
20.07,0.07604748,-0.007195473,0.196566224
20.08,0.07388413,-0.007255554,0.197686136
20.09,0.255628735,-0.120016098,0.709703803
20.1,0.162038744,-0.094121933,0.584741592
20.11,0.160774708,-0.094466209,0.58202827
20.12,0.000950992,-0.048819542,-0.005824149
20.13,-0.202157557,-0.084456444,-0.383731484
20.14,-0.086629689,-0.017548561,-0.074895799
20.15,-0.111271739,0.05140686,0.305305362
20.16,-0.086326063,0.074666977,0.394197017
20.17,-0.077010214,-0.012151718,0.240936697
20.18,-0.073973417,-0.017424583,0.196303666
20.19,-0.060253143,0.049346924,0.198655963
20.2,-0.059929907,0.049268723,0.197435498
20.21,-0.054073095,0.027820587,0.140264511
20.22,-0.011820316,-0.007925034,0.184000373
20.23,0.039455533,-0.002951622,0.307406068
20.24,0.039908528,-0.002771378,0.309062004
20.25,0.046776891,-0.057535172,0.037391782
20.26,0.045995116,-0.057271004,0.040848613
20.27,0.008826017,-0.021183014,0.228077829
20.28,-0.009202659,-0.001904488,0.156300306
20.29,-0.010425448,-0.001801491,0.158174276
20.3,-0.033862829,0.03649807,0.035191834
20.31,-0.104882598,0.050850868,0.096073329
20.32,-0.09161526,0.077147484,0.132388413
20.33,-0.142883718,0.081954956,0.107118726
20.34,-0.174158394,0.077337265,0.082747996
20.35,-0.173829615,0.077580452,0.085006595
20.36,-0.101813734,-0.041921616,0.183003485
20.37,-0.101595998,-0.041816711,0.183857501
20.38,-0.003459632,-0.003577232,0.252556741
20.39,-0.003727973,-0.003716469,0.251374841
20.4,-0.078164399,0.008232117,0.22012645
20.41,-0.07829237,0.008221626,0.220039368
20.42,0.003019392,-0.003722191,0.179729521
20.43,0.002663434,-0.003724098,0.180065036
20.44,-0.033523679,-0.061199188,0.160876334
20.45,-0.069667518,-0.044470787,0.160717964
20.46,-0.081577778,-0.001409531,0.177018464
20.47,-0.07461828,0.022445679,0.229023755
20.48,0.01338774,0.063019753,0.2711007
20.49,-0.07383579,0.048527718,0.268144131
20.5,-0.088852048,0.0197649,0.15572542
20.51,-0.180390656,-0.044834137,-0.070717692
20.52,-0.352409005,-0.001516342,-0.159763575
20.53,-0.277191341,-0.001360893,-0.098959208
20.54,-0.075679779,0.003417969,0.463264585
20.55,0.08381635,-0.042383194,0.448684514
20.56,0.088877916,-0.090595245,0.327034235
20.57,-0.003858626,-0.188988686,0.584641516
20.58,-0.027691543,-0.210931778,0.438904792
20.59,-0.156227171,-0.146602631,-0.379149079
20.6,-0.188705683,-0.055483818,-0.32336247
20.61,-0.04283762,0.083295822,0.247978449
20.62,0.024463773,0.113907814,0.536020458
20.63,0.020998418,0.113262177,0.531713128
20.64,-0.084753752,0.076747894,0.376391053
20.65,-0.199285805,-0.053046227,0.18061775
20.66,-0.207301319,-0.065387726,0.052537024
20.67,-0.193388045,-0.048840523,0.098479033
20.68,-0.088079989,-0.005896568,0.254735887
20.69,0.028962433,0.077705383,0.307732642
20.7,0.066820979,0.07757473,0.416848689
20.71,0.06395036,0.084673882,0.186264753
20.72,0.039129078,0.055966377,-0.030587852
20.73,0.037991285,0.056138039,-0.027815998
20.74,0.036430001,-0.082667351,0.163274646
20.75,0.034143388,-0.082698822,0.164594472
20.76,0.045513093,-0.118750572,0.076780796
20.77,0.042062342,-0.118993759,0.076672077
20.78,0.02107954,-0.023586273,0.166781843
20.79,-0.076909363,-0.014453888,0.167575657
20.8,-0.079062641,-0.005300522,0.211585701
20.81,-0.083625972,-0.005656242,0.210955024
20.82,-0.083122313,-0.046638489,0.12729454
20.83,-0.034623802,-0.090003014,0.079228401
20.84,-0.100847065,-0.044793129,0.14593786
20.85,-0.044486523,-0.064199448,0.119299173
20.86,-0.047969103,-0.064462662,0.11876142
20.87,-0.024838448,0.035839081,0.161167502
20.88,0.038943112,0.076276779,0.229998827
20.89,0.035697818,0.076007843,0.22937572
20.9,-0.000628889,0.104537964,0.21941638
20.91,-0.002790451,0.104496002,0.220375001
20.92,-0.064705968,0.08297348,0.032771587
20.93,-0.100362003,-0.008152008,0.176346839
20.94,-0.103008091,-0.008490562,0.174447715
20.95,-0.027145267,-0.025716782,0.28144896
20.96,-0.02778846,0.031165123,0.320095956
20.97,-0.075895131,0.03059864,0.2459355
20.98,-0.092361271,0.039749146,0.127479792
20.99,-0.129944503,-0.013262749,0.045684695
21,-0.212200046,-0.035033226,-0.18133527
21.01,-0.202485561,0.036729813,-0.110304892
21.02,-0.201747596,0.036653519,-0.111786664
21.03,-0.08453691,0.048397064,0.278246939
21.04,0.28754878,-0.026165009,0.866770446
21.05,-0.055386364,-0.126717567,-0.018793285
21.06,-0.016975105,-0.150633812,0.213879824
21.07,0.069203615,-0.026368141,0.321192622
21.08,0.090216935,0.064242363,0.017945826
21.09,0.071867108,0.068800926,0.069029391
21.1,-0.054994643,0.092405319,0.243818581
21.11,-0.189778864,0.091949463,0.230992675
21.12,-0.312559247,0.06755352,0.287458718
21.13,-0.209715605,0.031139374,0.247427225
21.14,-0.118618488,-0.031518936,0.121762395
21.15,-0.165075302,0.013728142,0.193823338
21.16,-0.198246539,0.063896179,0.233036101
21.17,-0.196696937,0.063976288,0.232742667
21.18,-0.0964908,0.054613113,0.219806194
21.19,-0.094534457,0.054902077,0.22172749
21.2,0.036523104,0.040852547,0.020871341
21.21,0.04975003,0.014985085,0.023318112
21.22,0.014620304,-0.015668869,0.253199339
21.23,-0.001219809,-0.02968502,0.261556387
21.24,0.027994871,-0.050936699,0.04939115
21.25,0.010975719,-0.024277687,-0.021044314
21.26,-0.047472417,0.023729324,0.117614925
21.27,-0.067999661,0.045296669,0.231303752
21.28,-0.179326952,0.004691124,0.142118156
21.29,-0.211152196,-0.054953575,0.039901316
21.3,-0.23541379,-0.059364319,0.063645184
21.31,-0.202102602,-0.068640709,0.153297722
21.32,-0.106370807,-0.032594681,0.133373082
21.33,-0.106748104,-0.032516479,0.134598792
21.34,-0.006430805,0.017785072,0.233188987
21.35,-0.000209868,0.070427895,0.221417546
21.36,-0.09703064,0.070431709,0.214935541
21.37,-0.097353876,0.070463181,0.215524733
21.38,-0.06648463,0.041755676,0.127638042
21.39,-0.066765189,0.04183197,0.128417194
21.4,-0.009666145,-0.020385742,0.210632682
21.41,0.054025888,-0.015554428,0.266613483
21.42,0.052699327,-0.037097931,0.32512933
21.43,0.05168283,-0.037118912,0.325518072
21.44,0.00075978,-0.075390816,0.130008757
21.45,0.023908794,-0.111237526,0.018615365
21.46,0.065364689,-0.077685356,0.005774677
21.47,0.022240579,-0.084885597,0.031214416
21.48,0.031486034,-0.01312542,0.197354019
21.49,-0.033906043,0.060894966,0.13490355
21.5,-0.124893308,0.070411682,-0.010356367
21.51,-0.078616142,0.068091393,0.118382633
21.52,0.144136548,-0.058837891,0.430742472
21.53,0.133090854,-0.142873764,0.284363806
21.54,0.01389575,-0.150299072,-0.058117449
21.55,-0.010891259,-0.167312622,0.244982243
21.56,-0.042180121,-0.045692444,0.54762429
21.57,-0.168405592,-0.036704063,0.04635185
21.58,-0.15058881,-0.068058014,-0.24036485
21.59,-0.152633131,-0.068243027,-0.241141677
21.6,-0.089255452,0.046151161,0.37267834
21.61,-0.110125423,0.066738129,0.584357977
21.62,-0.082256556,0.065695763,0.432898819
21.63,-0.089567006,0.064777374,0.145928621
21.64,-0.079089105,0.064202309,-0.020535827
21.65,-0.082496941,0.08062458,0.052816451
21.66,-0.102109075,0.063657761,0.153495848
21.67,-0.102043927,0.063577652,0.15241158
21.68,0.010505676,0.051575661,0.223879755
21.69,-0.000937879,0.063639641,0.028462827
21.7,-0.002779484,0.051915169,0.074162662
21.71,-0.001990378,-0.002814293,0.298117876
21.72,0.017593414,-0.050494194,0.369610518
21.73,0.06557101,-0.047907829,0.175383687
21.74,0.017043978,-0.030989647,0.067649364
21.75,-0.110454977,0.00508213,0.072217524
21.76,-0.16795522,0.041091919,0.075746953
21.77,-0.167777538,0.041165352,0.076619029
21.78,-0.270574391,0.062812805,0.178157091
21.79,-0.240831554,0.000618935,0.171085298
21.8,-0.239569902,0.000707626,0.171363533
21.81,-0.182753563,0.02717495,0.190861404
21.82,-0.075307906,0.056002617,0.183707893
21.83,-0.064047694,0.065692902,0.207798481
21.84,-0.073848724,0.06344986,0.17244488
21.85,-0.080958009,0.061300278,0.11131835
21.86,-0.056789637,0.066378593,0.110799849
21.87,-0.023499608,0.059474945,0.139002681
21.88,-0.03395474,0.066946983,0.146230459
21.89,-0.03263694,0.067247391,0.148903489
21.9,-0.045448661,0.0675354,0.191976905
21.91,-0.055903196,-0.023180008,0.270724893
21.92,-0.065812349,-0.04923439,0.260708749
21.93,-0.032126606,-0.044146538,0.140515626
21.94,-0.099141836,-0.053397179,0.097224534
21.95,-0.110403895,-0.053060532,0.065493941
21.96,-0.107693493,-0.052783966,0.066949964
21.97,-0.065044105,0.026477814,0.126169622
21.98,-0.07265985,-0.013949394,0.056034744
21.99,-0.22630614,0.017495155,-0.226509094
22,-0.223444343,0.017908096,-0.223563075
22.01,-0.017988861,0.032484055,0.321215093
22.02,0.238413632,-0.034581184,0.763691783
22.03,0.100512266,-0.166463852,0.290610969
22.04,-0.005928874,-0.185583115,0.078603029
22.05,-0.099465728,-0.11845398,0.192207158
22.06,-0.129922926,-0.001163483,0.045383632
22.07,-0.224258602,0.018106461,-0.282183051
22.08,-0.09177506,0.066161156,-0.031801939
22.09,-0.09501338,0.097138405,0.335883558
22.1,-0.096406281,0.096730232,0.332074821
22.11,-0.100286722,0.108236313,0.342150629
22.12,-0.131303012,0.06725502,0.27665478
22.13,-0.149495959,0.004882813,0.090163291
22.14,-0.092611849,-0.042944908,0.027367949
22.15,-0.007166445,-0.112242699,0.018405199
22.16,0.099435717,-0.097734451,0.239478648
22.17,0.115051389,-0.121667862,0.468573272
22.18,0.116366565,-0.121724129,0.467095017
22.19,0.184541971,-0.157717705,0.542092681
22.2,0.189829111,-0.174430847,0.27412802
22.21,-0.00838834,-0.124007225,-0.026202738
22.22,-0.008433938,-0.123882294,-0.024753153
22.23,-0.026125848,-0.04961586,-0.093168318
22.24,-0.090060711,0.098633766,0.238553345
22.25,-0.149141848,0.129481316,0.25805372
22.26,-0.224518836,0.102948189,0.203847647
22.27,-0.332357049,0.069353104,0.049659491
22.28,-0.331107378,0.069415092,0.049672365
22.29,-0.233553827,0.019309998,0.060098171
22.3,-0.231318653,0.019424438,0.059911132
22.31,-0.094451964,-0.037906647,0.339787602
22.32,-0.045871258,-0.044926643,0.375382006
22.33,-0.032839894,-0.030391693,0.336729944
22.34,-0.029440939,-0.030277252,0.33584553
22.35,0.063839853,-0.075692177,0.117316544
22.36,0.060953975,-0.058923721,0.168618083
22.37,0.112375259,-0.059041977,0.327020824
22.38,0.045482874,-0.042523384,0.328812003
22.39,0.045623183,-0.04272747,0.326352298
22.4,-0.260089397,-0.021256447,0.068728149
22.41,-0.258526921,-0.021186829,0.068336487
22.42,-0.142315805,0.010006905,-0.072882414
22.43,-0.055408835,0.069916725,-0.003359079
22.44,-0.021699548,0.069904327,0.144744635
22.45,0.066915512,0.06980896,0.220293462
22.46,0.066531181,0.069690704,0.219079435
22.47,-0.019559264,0.043306351,0.218490243
22.48,-0.133956075,-0.061985016,-0.025272191
22.49,-0.221442998,-0.04986763,0.054620922
22.5,-0.220130503,-0.049791336,0.054456115
22.51,0.060391665,-0.054681778,0.359630883
22.52,0.109450638,-0.150729179,0.591733575
22.53,0.116698086,-0.211153984,0.651283741
22.54,0.159751296,-0.252571106,0.457887203
22.55,-0.017063141,-0.138313294,0.202379227
22.56,-0.017528415,-0.138802528,0.196616411
22.57,-0.122838557,0.066904068,-0.064329624
22.58,-0.116287589,0.140914917,0.235154152
22.59,-0.117801189,0.140559197,0.231914699
22.6,-0.090966702,0.154520989,0.300098449
22.61,-0.164726496,0.07278347,0.058026552
22.62,-0.165786803,0.072705269,0.057588756
22.63,-0.220885515,0.06552887,0.031380355
22.64,-0.16033715,0.063278198,0.083073497
22.65,-0.043733537,-0.00830555,0.192681074
22.66,0.053746343,-0.036759377,0.31441021
22.67,0.143916547,-0.072489738,0.49039641
22.68,0.104102641,-0.127508164,0.406679213
22.69,0.105076999,-0.127409935,0.407060921
22.7,0.047617614,-0.177624703,0.091860116
22.71,0.025752664,-0.151314735,0.149334371
22.72,0.003322959,-0.086868286,0.075574279
22.73,-0.072225213,0.020589828,0.175894857
22.74,-0.229059815,0.065691948,0.275205314
22.75,-0.289095581,0.089296341,0.196642757
22.76,-0.288646638,0.089121819,0.194299996
22.77,-0.239234686,0.096337318,0.037929773
22.78,-0.236869991,0.096505165,0.038267612
22.79,-0.197805047,0.070402145,0.134562314
22.8,-0.060390353,0.044350624,0.197785556
22.81,-0.020931959,-0.024888992,0.334042341
22.82,-0.015629351,-0.01280117,0.276030302
22.83,-0.013355851,-0.012709618,0.275265157
22.84,-0.064270794,-0.015125275,0.297750086
22.85,-0.050485969,-0.063070297,0.242817462
22.86,-0.046536863,-0.101412773,0.214855492
22.87,0.000411272,-0.091879845,0.256226957
22.88,0.051816821,-0.103967667,0.345000416
22.89,0.044844151,-0.106559753,0.347032964
22.9,0.044831872,-0.106720924,0.34477669
22.91,-0.014915407,-0.073400497,0.292148322
22.92,0.030458927,-0.030413628,0.156811655
22.93,-0.017214119,0.043696404,0.289091855
22.94,-0.026530802,0.022023201,0.29460296
22.95,-0.026305497,0.021956444,0.293525726
22.96,-0.049787045,0.002731323,0.325656712
22.97,-0.242582321,-0.047532082,0.018540144
22.98,-0.240344763,-0.047400475,0.018392265
22.99,-0.135436893,0.014936447,0.039625704
23,-0.065234542,-0.016277313,0.248306453
23.01,-0.065718532,-0.016654968,0.244024217
23.02,0.165214181,-0.113061905,0.919005394
23.03,0.16340071,-0.113952637,0.90875113
23.04,0.003610015,-0.013822556,0.126707852
23.05,-0.145855725,0.005199432,-0.16823101
23.06,-0.139642954,0.01004982,-0.039324164
23.07,-0.122892976,0.029141426,0.328581065
23.08,-0.159647346,0.062322617,0.466006517
23.09,-0.160576999,0.061882973,0.460791409
23.1,-0.13700515,0.025752068,0.247323424
23.11,-0.198904753,-0.022177696,0.011746347
23.12,-0.14043963,-0.026927948,0.109609425
23.13,-0.038972914,-0.069996834,0.023084641
23.14,0.018922448,-0.096250534,0.045359671
23.15,0.119038671,-0.100980759,0.161519945
23.16,0.175128222,-0.081898689,0.501632094
23.17,0.144407779,-0.072476387,0.393450141
23.18,0.013186276,-0.062933922,0.066570878
23.19,-0.102976024,-0.005328178,0.021669269
23.2,-0.089346051,-0.0242939,0.029718339
23.21,-0.090665281,-0.02421093,0.031936586
23.22,-0.034983397,0.06196785,0.133854568
23.23,0.001212835,0.076263428,0.242308855
23.24,-0.000638962,0.076192856,0.242893994
23.25,-0.150619268,0.061903954,0.020186603
23.26,-0.196289957,0.004670143,0.042591929
23.27,-0.147744477,-0.021495819,0.037121713
23.28,-0.099608541,0.012115479,0.141149342
23.29,-0.049246311,0.01931572,0.256178528
23.3,0.044541597,-0.004652023,0.274626046
23.31,0.049331546,-0.011819839,0.157515287
23.32,-0.034484982,0.002679825,0.168947101
23.33,-0.041222692,-0.01151371,0.16119659
23.34,-0.007543862,-0.011396408,0.086160362
23.35,-0.034350812,0.003043175,0.029910088
23.36,-0.058849514,0.003103256,0.014444292
23.37,-0.064341486,0.029464722,0.082363069
23.38,-0.064946473,0.029480934,0.083134651
23.39,0.003889561,-0.001652718,0.34921363
23.4,0.003014565,-0.001638412,0.350072831
23.41,-0.024283171,-0.013543129,0.110081852
23.42,-0.039403439,0.017749786,0.036075473
23.43,-0.030719221,-0.010868073,0.10285151
23.44,-0.031769276,-0.010878563,0.10372889
23.45,-0.059079528,-0.025256157,0.085106015
23.46,-0.057335794,-0.04199028,0.033199489
23.47,-0.181417525,0.037126541,-0.066139638
23.48,-0.132899046,0.022867203,0.071078181
23.49,-0.010445535,-0.010601044,0.397176474
23.5,0.019883275,-0.111266136,0.286414415
23.51,0.117032707,-0.19272995,0.532910168
23.52,0.173813433,-0.173770905,0.564237475
23.53,-0.082107127,-0.140470505,-0.025271416
23.54,-0.080248058,-0.140322685,-0.024775147
23.55,-0.203007639,-0.058591843,-0.613185763
23.56,-0.227566183,0.001009941,-0.275940716
23.57,-0.181140482,0.062759399,0.463098884
23.58,-0.069886506,0.05030632,0.273411781
23.59,-0.094652176,-0.014650345,0.08318454
23.6,-0.221331656,-0.009989738,0.117218852
23.61,-0.231399834,0.016427994,0.13812083
23.62,-0.130766988,0.011837006,0.069377184
23.63,-0.08786124,-0.023783684,-0.036197782
23.64,-0.057149589,0.017271042,0.086684048
23.65,-0.055288434,0.017584801,0.089337826
23.66,-0.013016105,0.0058918,0.115671873
23.67,-0.011465371,0.006391525,0.120961785
23.68,-0.000428438,0.014090538,-0.062568665
23.69,-0.027997077,0.009709358,0.030344963
23.7,0.00173986,-0.023479462,0.062359512
23.71,-0.031494081,0.022229195,0.077188015
23.72,-0.031341255,0.022415161,0.079356551
23.73,-0.084384143,0.008150101,0.083262384
23.74,-0.262135983,-0.020465851,0.056464732
23.75,-0.249937534,-0.061044693,0.167891383
23.76,-0.191632867,-0.11361599,0.048891366
23.77,-0.190958023,-0.113507271,0.049737155
23.78,-0.180523455,-0.075078011,0.134375572
23.79,-0.133739591,-0.065436363,0.13422358
23.8,-0.132704377,-0.065340042,0.134518743
23.81,-0.088793457,-0.043720245,0.065450728
23.82,-0.160074592,0.01379776,0.060993612
23.83,-0.164292395,-0.012482643,0.097140968
23.84,-0.123228729,0.009099007,0.030242145
23.85,-0.108833313,0.009160995,0.081329107
23.86,-0.092055559,-0.021865845,0.087223589
23.87,-0.091856241,-0.021751404,0.088627636
23.88,-0.122678459,-0.01682663,0.099676549
23.89,-0.103046119,-0.086060524,0.018048465
23.9,-0.102808476,-0.085885048,0.019863367
23.91,-0.054898143,-0.016326904,0.198600352
23.92,-0.052717566,-0.040149689,0.169138372
23.93,-0.120104432,-0.01366806,0.061233461
23.94,-0.091588855,-0.023036003,-0.091795683
23.95,-0.233396411,-0.080322266,-0.261428535
23.96,-0.298139751,-0.056279182,-0.3296538
23.97,-0.109297454,-0.056283951,-0.202542663
23.98,0.140310466,0.010572433,0.531586051
23.99,0.112693995,-0.016263008,0.350999028
24,0.109041601,-0.016588211,0.349673957
24.01,-0.092055738,-0.143557549,0.331505805
24.02,-0.093215168,-0.143784523,0.329732984
24.03,-0.110930502,-0.0505476,-0.329688072
24.04,-0.054896772,0.026104927,-0.340231419
24.05,-0.046013176,0.066533089,0.120801508
24.06,-0.122413516,0.06588459,0.29088226
24.07,-0.127182663,0.065182686,0.285695225
24.08,-0.148433685,-0.026443481,0.156320989
24.09,-0.209823728,-0.103663445,0.122987151
24.1,-0.229367733,-0.068242073,0.111611545
24.11,-0.230873466,-0.068616867,0.108018458
24.12,-0.20986712,-0.085612297,0.09581691
24.13,-0.142805815,-0.083283424,-0.000975311
24.14,-0.14277482,-0.083377838,-0.002229691
24.15,0.010109782,-0.124219894,0.063397825
24.16,-0.074493825,-0.14107132,-0.16695118
24.17,-0.097275078,-0.143470764,-0.199629903
24.18,-0.00296247,-0.138702393,-0.088778377
24.19,0.00194633,-0.076594353,0.054754734
24.2,-0.079419494,-0.021720886,-0.060924411
24.21,-0.218170166,-0.017138481,-0.160247624
24.22,-0.25624615,-0.077263832,-0.205038548
24.23,-0.189474106,-0.103940964,-0.246080756
24.24,-0.259874225,-0.18346405,-0.171128571
24.25,-0.195970774,-0.150615692,-0.120034337
24.26,-0.268477261,-0.132151604,0.097852468
24.27,-0.270455897,-0.132884026,0.089647532
24.28,-0.164454222,-0.090470314,0.007491887
24.29,-0.173143387,-0.047919273,-0.006156921
24.3,-0.188325286,-0.067620277,-0.017791986
24.31,-0.191230774,-0.108831406,-0.156288505
24.32,-0.151226282,-0.128460884,-0.287205339
24.33,-0.118829608,-0.097808838,-0.300228715
24.34,-0.089518666,-0.064836502,-0.105394423
24.35,-0.001269162,-0.043951988,-0.088967443
24.36,-0.004987597,-0.044633865,-0.096000433
24.37,-0.154150307,-0.085962296,-0.193790793
24.38,-0.15721792,-0.086544991,-0.199997246
24.39,-0.231906831,-0.264225006,-0.454362512
24.4,-0.217533469,-0.281429291,-0.384972751
24.41,-0.150495768,-0.267533302,-0.347117245
24.42,-0.106445015,-0.248955727,-0.32683295
24.43,-0.110565305,-0.249570847,-0.332987428
24.44,-0.308814228,-0.135329247,-0.108225167
24.45,-0.412424654,-0.243743897,-0.32954514
24.46,-0.413619995,-0.24417305,-0.335471034
24.47,-0.548262119,-0.332709312,-0.791176438
24.48,-0.229920626,-0.337450028,-0.097967207
24.49,-0.042729914,-0.335435867,0.151586503
24.5,-0.203291267,-0.369680405,-0.691479147
24.51,-0.345783919,-0.314903259,-0.561510146
24.52,-0.345451623,-0.315207481,-0.566756785
24.53,-0.401469261,-0.065487862,-0.727743566
24.54,-0.52631408,0.043136597,-1.263288975
24.55,-0.53347826,0.041679382,-1.2840693
24.56,-0.548534632,0.013803482,-0.969694853
24.57,-0.616623342,-0.02368927,-0.757374048
24.58,-0.58617121,-0.255085945,-0.624918997
24.59,-0.487820715,-0.431248665,-0.618876934
24.6,-0.493247122,-0.432470322,-0.642811298
24.61,-0.642618299,-0.850086212,-0.773370028
24.62,-0.638718009,-1.166996956,-0.932798982
24.63,-0.672129035,-1.383277893,-0.990577102
24.64,-0.606871605,-1.522941589,-0.878244042
24.65,-0.539794207,-1.557393074,-0.818874955
24.66,-0.53990531,-1.558319092,-0.856930256
24.67,-0.673046529,-1.48729229,-0.657527149
24.68,-0.676032364,-1.449612617,-0.345178098
24.69,-0.714760304,-1.423725128,-0.144056827
24.7,-0.434834749,-1.514879227,-0.325855702
24.71,-0.247226745,-1.596164703,-0.50464356
24.72,-0.176053226,-1.590929985,-0.56249702
24.73,-0.183282405,-1.645153999,-0.523077726
24.74,-0.116733551,-1.69881916,-0.299452692
24.75,-0.007450342,-1.778059006,-0.013782501
24.76,-0.021185726,-1.774851799,-0.110060871
24.77,0.436279416,-2.143871307,1.222310066
24.78,0.41873616,-2.138162613,1.116376638
24.79,0.617834389,-2.650896072,0.985558569
24.8,0.116440266,-2.777051926,0.981216252
24.81,0.362250507,-3.525161743,-0.974490583
24.82,0.938192725,-3.84857893,-1.464479685
24.83,1.394241214,-4.04540062,-1.627621412
24.84,1.676395178,-4.086548328,-1.803212166
24.85,2.184435844,-3.809463978,-2.076964855
24.86,2.10384655,-3.790982723,-2.205834389
24.87,3.059319258,-2.119876385,-1.598040223
24.88,2.820914745,-0.773531914,-0.946926892
24.89,2.716437578,-0.745286942,-1.083466053
24.9,2.374171734,0.760907173,-0.975205421
24.91,-0.216026291,4.158470154,-1.557896018
24.92,-0.315843046,4.194626808,-1.688892961
24.93,-1.400111914,5.005726814,-1.815036416
24.94,-1.178115964,3.996185303,-0.93782723
24.95,-1.004284263,2.965652466,-0.074305773
24.96,-0.889201462,2.09424305,0.312249661
24.97,-0.956264257,2.129462242,0.218507052
24.98,-0.62883091,0.758826256,0.854662895
24.99,-0.410280645,0.238379479,0.897460699
25,-0.417718113,0.083509445,0.492438793
25.01,-0.461888611,0.11722374,0.41016531
25.02,-1.268096924,0.665068626,0.329344034
25.03,-1.366075516,1.401123047,0.534886837
25.04,-1.324820876,2.059303284,0.737257719
25.05,-1.110744596,2.357639313,0.775171518
25.06,-0.29509294,2.527758598,0.619075775
25.07,0.260954619,2.70175457,0.130640745
25.08,0.462775827,2.871258736,-0.443312168
25.09,0.653412581,3.229259491,-1.013973475
25.1,0.47735548,3.570747375,-1.228671789
25.11,0.577835083,4.071597099,-1.370019674
25.12,0.542942405,4.44944191,-1.205585003
25.13,0.559217811,4.450112343,-1.21168828
25.14,0.032860279,4.642198563,-1.221545935
25.15,-1.605446815,4.760064125,0.037613869
25.16,-1.802366734,4.36916256,0.401235819
25.17,-1.695313096,3.824529648,-0.037272453
25.18,-1.510678768,3.556410789,-0.265864372
25.19,-1.055287361,2.705713272,0.599460602
25.2,-1.031849504,2.696320534,0.616866827
25.21,-0.99173069,1.397602081,2.321550369
25.22,-1.088745713,-1.871639729,4.695354939
25.23,-0.728132486,-3.967479229,5.286829948
25.24,-0.645236015,-5.04791832,4.905235291
25.25,-0.645914435,-5.018841743,4.835926056
25.26,-0.641624451,-4.98889637,4.961445808
25.27,-0.455698818,-1.47798872,4.651907921
25.28,-0.908889353,1.134995461,2.163873672
25.29,-0.898412347,1.157552719,2.112966061
25.3,-3.671738625,7.210102081,-0.084702015
25.31,-5.179641724,9.196288109,0.554732323
25.32,-5.029382229,9.17714119,0.574296951
25.33,-5.711725235,12.49391174,2.633738041
25.34,-5.584298611,12.46896648,2.679005623
25.35,-4.438137531,13.10504627,2.537601948
25.36,-0.010062911,11.25163269,1.705417156
25.37,1.089125514,9.552823067,1.099069595
25.38,0.51766628,8.274406433,0.352999687
25.39,0.436734498,6.68076992,-0.343972445
25.4,-0.403515875,5.059335709,-1.156323671
25.41,-1.149627328,3.137005806,-2.099666595
25.42,-0.629953384,0.295952797,-1.914141893
25.43,0.851485133,-2.755845547,0.036534309
25.44,1.800168395,-5.224843979,1.480321407
25.45,1.505789042,-7.006608009,0.96575141
25.46,1.176660776,-8.817481041,-1.251528502
25.47,0.450055212,-10.58833504,-4.048322678
25.48,0.470962971,-10.62836266,-3.924149275
25.49,-0.277279437,-12.64762688,-6.561506271
25.5,-0.149340451,-14.31060028,-6.403993607
25.51,0.781525493,-15.11044693,-6.121490955
25.52,1.908673763,-15.14369202,-4.985162735
25.53,3.105656147,-14.58029747,-2.127680779
25.54,3.195549011,-13.74798393,-1.298592925
25.55,1.464867115,-12.29938412,-0.004218102
25.56,-0.152845442,-10.09286118,-0.6671772
25.57,-1.653406143,-7.511370659,-2.045667171
25.58,-0.902272821,-3.275396347,-2.18703413
25.59,3.091751099,-0.438677788,-2.08875227
25.6,7.857486248,2.576223373,-1.065933466
25.61,10.36586475,5.006530762,0.71221447
25.62,9.709273338,8.929589272,2.209399462
25.63,7.036896229,13.43110561,4.007580757
25.64,2.445554733,16.57540894,5.09572506
25.65,-2.53516984,17.41749763,6.968574524
25.66,-1.683811545,15.08956337,7.329335213
25.67,-1.294372082,12.37079525,3.761003733
25.68,-0.487595916,8.961562157,-0.116849661
25.69,-0.231312394,6.798599243,0.105063677
25.7,-1.422882795,6.110909462,1.216643333
25.71,-1.172388315,6.31733036,2.75715065
25.72,-1.366148233,5.156693459,3.218896627
25.73,-1.693781614,4.037827492,5.611974716
25.74,-0.85849452,1.650571823,8.881603241
25.75,1.654107094,-0.950250626,12.53197098
25.76,1.708245754,-0.972020149,12.56963825
25.77,3.020294666,-4.373416901,11.6281147
25.78,-3.541554451,-8.573131561,-3.161391973
25.79,-3.4930439,-8.613034248,-3.068548441
25.8,-5.316329479,-9.742910385,-9.986809731
25.81,-6.817024231,-10.46558952,-10.2862072
25.82,-6.676416397,-10.10863781,-7.02046299
25.83,-5.319602489,-11.37626648,-0.475556612
25.84,-5.313522816,-11.37038517,-0.492763519
25.85,-4.410362244,-12.24078751,0.23237896
25.86,-5.102525711,-13.28782558,-0.066741467
25.87,-4.138765335,-13.72560501,-1.238145113
25.88,-1.372335672,-12.91570282,-1.847812057
25.89,0.353614807,-10.67567444,-2.025024414
25.9,0.336714804,-10.67062569,-2.035544395
25.91,1.093618155,-2.63142252,-0.911049843
25.92,1.114108324,-2.637694836,-0.89786458
25.93,3.114809752,3.030650139,1.316267252
25.94,4.156322956,8.758958817,2.292037725
25.95,0.297893286,13.86632156,2.330066204
25.96,-1.622867584,17.80766678,11.79490376
25.97,-1.578255057,17.83015442,11.73262691
25.98,0.242441714,16.11943054,18.5735302
25.99,-0.634217501,15.59012127,9.090067863
26,-2.7345469,14.75560093,-0.786150456
26.01,-2.711468697,14.70641899,-0.656672001
26.02,-3.960021734,12.7682476,-5.455615997
26.03,-4.567928314,11.09689236,-5.342418671
26.04,-3.838994503,8.349471092,-3.854552031
26.05,-1.638211608,2.73626709,0.945268869
26.06,0.426785618,-0.161189079,3.948517084
26.07,2.975606441,-2.917404652,6.792650223
26.08,4.8975811,-5.35782814,9.028283119
26.09,5.338546753,-7.000454426,8.241867065
26.1,5.290281773,-7.01518774,8.292206764
26.11,2.457274437,-9.28461647,0.158940554
26.12,0.226738423,-10.81188869,-4.266823769
26.13,0.193667352,-10.84631443,-4.146047592
26.14,-1.199582934,-13.23190212,-9.183031082
26.15,0.288038194,-14.33968735,-7.830024719
26.16,2.008506775,-15.13536072,-4.687606335
26.17,2.565354586,-15.34949493,-1.410578012
26.18,2.080448151,-14.69244957,2.175835848
26.19,0.351396442,-12.60922623,3.774358988
26.2,0.298373878,-12.6055088,3.780730486
26.21,-2.529908895,-8.144245148,-6.575517654
26.22,-2.002947807,-6.515050888,-12.31245708
26.23,-1.707618475,-2.53063345,-10.59524727
26.24,3.376584053,2.675737381,-2.374492168
26.25,10.7359333,5.976887703,4.571153641
26.26,11.63371849,7.338805199,5.881333828
26.27,6.858290195,10.05571079,3.354295731
26.28,6.788875103,10.05534458,3.407144547
26.29,1.434158087,11.75537682,3.975928307
26.3,-3.103066683,12.47125626,3.207901955
26.31,1.740944386,9.153544426,7.836452484
26.32,0.975693584,7.886937141,8.288135529
26.33,0.493318439,8.501156807,2.247996807
26.34,-1.399034858,10.77981281,-3.576695442
26.35,-1.837814808,14.45071983,-4.488213539
26.36,-1.731367588,14.4554739,-4.554531574
26.37,-2.891785622,15.28721142,1.185536861
26.38,-0.743633211,8.417191505,15.0706625
26.39,1.975472689,2.582769394,16.682724
26.4,1.95183897,2.584659576,16.68331718
26.41,-2.244871616,-9.407216072,7.119976044
26.42,-2.201033115,-9.455454826,7.29813385
26.43,-6.583284855,-14.99297142,-9.041349411
26.44,-6.497089863,-15.03005981,-8.896920204
26.45,-3.784277439,-14.98622131,-7.535355568
26.46,-2.601410389,-14.78234863,-3.242091179
26.47,-1.571113467,-14.57458973,-0.35842967
26.48,-2.591582775,-14.51228905,1.401840925
26.49,-2.579972506,-14.50294304,1.347395658
26.5,-7.269377708,-13.53423882,1.60653615
26.51,-7.250792503,-13.52541828,1.556958795
26.52,-5.135387897,-11.30811882,-1.79281497
26.53,-2.755496025,-10.09980392,-3.440137863
26.54,-2.130553484,-8.777503967,-3.874281883
26.55,-2.144917011,-8.774492264,-3.886377573
26.56,0.033897311,-3.755178452,-1.628528476
26.57,4.011152267,1.339162827,3.85504508
26.58,5.225829124,5.431882858,7.708038807
26.59,5.225372314,5.448971748,7.629818916
26.6,0.87874794,14.52796364,7.214139938
26.61,-3.203444719,17.54997444,8.870544434
26.62,-6.385634899,19.73674202,11.6154356
26.63,-7.91437912,19.840168,11.17600155
26.64,-6.691339493,18.6914444,5.047057152
26.65,-5.42032671,16.27531433,-1.274708748
26.66,-4.22732687,13.72353935,-2.613368034
26.67,-1.408934355,10.46473503,-1.416634798
26.68,0.408487946,7.553694725,0.161378145
26.69,1.350038409,5.304146767,1.017432213
26.7,1.777355194,3.308208466,2.036020756
26.71,1.286202431,1.563672066,4.810854912
26.72,1.231971145,1.574408531,4.77996254
26.73,2.641799927,-1.815163612,8.524312019
26.74,2.751420975,-4.174742699,5.707588196
26.75,1.407686591,-6.625198364,0.82837534
26.76,-0.507249355,-8.649180412,-2.918348789
26.77,-0.492627561,-8.676497459,-2.798564434
26.78,-1.460994244,-10.40911674,-4.510799408
26.79,-2.048993111,-12.50828266,-4.783324718
26.8,0.568380117,-15.75945377,-2.940000296
26.81,2.820291758,-17.47083855,-1.225059986
26.82,3.85341382,-18.0997448,-0.024770856
26.83,3.865706444,-18.22177315,-0.613801122
26.84,3.353646994,-16.53997612,-3.36742115
26.85,1.147643805,-13.22660637,-5.770591736
26.86,-1.453084707,-9.573922157,-5.762733459
26.87,-2.649472237,-5.970142365,-5.306639194
26.88,-1.38034451,-2.965871334,-5.880674362
26.89,1.701267958,1.851311684,-2.472189426
26.9,7.940173626,6.400407791,4.418797493
26.91,12.01729965,9.730797768,7.321371555
26.92,10.16403961,12.67368126,5.898560524
26.93,3.376822472,14.90161037,5.133775234
26.94,-2.085197687,15.34381676,6.405575752
26.95,-1.093260527,13.6464777,5.460857868
26.96,-1.095770121,13.65167999,5.43977356
26.97,2.366657257,9.34528923,5.085017204
26.98,1.415776372,9.913083076,3.602498293
26.99,-0.671783209,11.35664654,0.988120079
27,-0.584267974,11.34608078,0.986650944
27.01,-2.498980522,13.25269604,-0.861328244
27.02,-4.098758221,12.04517746,2.935041428
27.03,-1.833436489,7.160220146,8.850419998
27.04,0.469688177,3.607325554,13.49356365
27.05,0.476861119,3.616210938,13.4580555
27.06,0.721039236,-5.532381535,9.967953682
27.07,-2.712823391,-9.978242874,3.002429485
27.08,-5.140174389,-13.52705956,-4.406733513
27.09,-5.252966881,-15.30495834,-8.292160988
27.1,-5.146744728,-15.33914757,-8.157059669
27.11,-5.159721851,-15.81922817,-5.816141605
27.12,-5.131167412,-15.83302307,-5.746375084
27.13,-5.623028755,-15.26271725,-3.605977058
27.14,-5.482290745,-14.49137115,0.371745467
27.15,-5.424250126,-14.38043499,2.255348682
27.16,-5.453500748,-14.36093044,2.161067009
27.17,-4.352502346,-12.43852997,-0.769898295
27.18,-4.369057178,-12.42490959,-0.830695748
27.19,-3.130677938,-8.146749496,-1.926638961
27.2,-2.921779633,-5.592993259,-1.943324327
27.21,-2.149607182,-3.229002476,-0.99560678
27.22,-2.136794329,-3.218778133,-1.043037295
27.23,6.448820591,5.245967865,6.813014984
27.24,7.991114616,9.440658569,7.886689186
27.25,4.837286949,14.86795998,8.660306931
27.26,-0.543611288,17.60960007,12.43175793
27.27,-5.21342659,18.24726486,17.44683075
27.28,-5.167675018,18.26865005,17.36650467
27.29,-10.91560268,18.55724716,5.880970001
27.3,-8.81321907,17.14413452,-4.813734055
27.31,-3.885722399,13.88130188,-4.132163048
27.32,0.322947025,10.32978058,1.129853249
27.33,2.929982185,7.065372467,3.665637016
27.34,3.668260574,4.716296196,3.07429266
27.35,2.598576069,3.959195137,3.484308481
27.36,2.125671625,2.597728729,5.63396883
27.37,2.634687662,0.519512177,7.056838989
27.38,2.716080904,-1.78828001,5.471998215
27.39,2.69456315,-1.812551975,5.573757648
27.4,1.544044852,-4.085163116,2.314194202
27.41,-2.254983664,-9.416889191,-6.199779987
27.42,-2.531141043,-11.23834896,-7.800059319
27.43,-1.992502093,-13.2562809,-7.738670349
27.44,-0.202292115,-15.26149559,-6.607025146
27.45,2.34888792,-16.91808128,-5.060517311
27.46,5.605112553,-18.12984467,-2.202678442
27.47,5.525284767,-18.12267685,-2.215501308
27.48,7.503295898,-18.03493118,0.568546176
27.49,3.639233589,-14.63115311,0.658146262
27.5,-0.759373307,-11.50061989,-1.545173407
27.51,-4.388137341,-8.550909996,-3.601696014
27.52,-4.905659199,-6.460198402,-6.255134106
27.53,-2.27747488,-4.629531384,-8.3325634
27.54,1.297195911,-0.989785194,-5.613264084
27.55,8.242988586,3.27920723,1.035454273
27.56,14.94196987,6.973290443,6.342386246
27.57,16.90405273,10.91921425,6.004546165
27.58,13.58433247,13.8088398,4.663450718
27.59,13.48853779,13.82732296,4.642745495
27.6,-3.145048141,18.29249954,10.84080124
27.61,-6.530609608,16.44834518,13.10512352
27.62,-4.068220139,13.56714439,8.257637024
27.63,-4.910868645,12.79179001,0.821159959
27.64,-5.826936722,11.98078442,-3.343080997
27.65,-5.87126112,10.44750595,-1.958145857
27.66,-5.85875845,10.45721149,-2.01569891
27.67,-3.919142246,5.78974247,6.005514622
27.68,-2.744900942,3.598303795,7.956307411
27.69,-2.268870354,1.736602783,7.602380276
27.7,-2.591096163,-0.93241024,8.253275871
27.71,-2.632258415,-4.95912838,10.38617802
27.72,-2.526384354,-4.984215736,10.45254898
27.73,-2.025700808,-12.0711937,1.823539615
27.74,-4.338030815,-13.91278172,-5.943393707
27.75,-5.048588753,-14.98795128,-11.00673962
27.76,-4.023353577,-14.96135998,-8.207289696
27.77,-3.984442234,-14.97756958,-8.117473602
27.78,-3.148472548,-14.51660538,2.057534695
27.79,-3.167944193,-14.50939941,2.017019749
27.8,-4.589423656,-14.29333305,2.902410269
27.81,-5.737229824,-12.30265808,0.844112754
27.82,-5.754368305,-12.30226231,0.845622778
27.83,-4.751349449,-11.2451601,0.661863804
27.84,-3.797703266,-9.789818764,-0.485698223
27.85,-3.379662037,-6.383860588,-2.188977718
27.86,-2.024231434,-3.984306335,-1.637001872
27.87,-2.022529125,-3.983639717,-1.641460299
27.88,6.499006748,6.492224693,6.404837608
27.89,8.028202057,12.48957443,3.035058498
27.9,5.024960518,19.60672569,1.170701623
27.91,1.235682487,20.90196609,9.694099426
27.92,-3.326503515,20.14035034,22.39646339
27.93,-3.313345194,20.18803024,22.18933487
27.94,-13.49275589,18.91676712,14.21264362
27.95,-12.24867725,16.92417908,-3.166874409
27.96,-7.42634964,13.06147671,-10.68650532
27.97,-7.425846577,13.03416443,-10.56773281
27.98,0.42629236,5.24399662,-0.178701997
27.99,2.322401285,2.753743172,1.604483604
28,1.88314414,1.138440132,3.204782724
28.01,1.619813442,-0.58430481,5.045974731
28.02,2.288390875,-2.311336994,6.743090153
28.03,3.063970089,-3.918596745,6.383981705
28.04,2.80453372,-5.26312542,4.24767828
28.05,1.326166153,-6.796360016,0.585692883
