Time (s),Linear Acceleration x (m/s^2),Linear Acceleration y (m/s^2),Linear Acceleration z (m/s^2)
0,-0.264131248,0.018123627,0.011560008
0.01,-0.315057874,-0.02715683,-0.014417604
0.02,-0.205273986,-0.084381104,0.107565835
0.03,-0.055656135,-0.053131104,0.178680301
0.04,0.014610469,-0.019489288,0.183039159
0.05,-0.078171492,-0.014565468,0.071513548
0.06,-0.131407082,0.035998344,-0.004808202
0.07,-0.155748785,-0.004382133,0.099593326
0.08,-0.15419513,-0.004098892,0.10555017
0.09,0.044430315,-0.011119843,0.192749292
0.1,-0.042096794,0.003369331,0.155794516
0.11,-0.037843645,0.003490448,0.054191396
0.12,-0.038711369,0.003599167,0.061120883
0.13,0.003231704,0.025269508,0.046601892
0.14,0.001289904,0.025333405,0.054326922
0.15,-0.139086902,0.051776886,0.188784868
0.16,-0.099032223,-0.000748634,0.097165078
0.17,-0.099762023,-0.000607491,0.103638649
0.18,-0.040721118,-0.041172981,0.028295368
0.19,-0.046539843,-0.021951675,0.042774856
0.2,-0.00033313,0.028306007,0.08929947
0.21,-0.033570588,0.056940079,0.178114921
0.22,0.002964973,0.056853294,0.208683953
0.23,-0.044254363,0.056768417,0.226914525
0.24,-0.10559243,0.051896095,0.285871178
0.25,0.051338732,0.047070503,0.210594684
0.26,0.180337071,0.008628845,0.153465197
0.27,0.086482286,-0.068114281,0.135079593
0.28,-0.083495736,-0.116084099,0.068806678
0.29,-0.233324885,-0.029891968,-0.188964337
0.3,-0.278779864,0.05165863,-0.14183417
0.31,-0.256825984,-0.03676796,0.019725472
0.32,0.03210175,-0.144469261,0.386209041
0.33,0.177923799,-0.168588638,0.514371097
0.34,-0.040514529,-0.166389465,0.034348756
0.35,-0.22828126,-0.156742096,-0.088354439
0.36,-0.228366911,-0.156605721,-0.084642738
0.37,-0.145096242,-0.041662216,0.046035767
0.38,-0.071896613,0.001413345,0.023962885
0.39,0.135917246,0.065864563,0.285993904
0.4,-0.061876833,0.077449799,0.636091232
0.41,-0.064931273,0.077029228,0.631641269
0.42,-0.224886358,-0.045378685,0.127345488
0.43,-0.319267035,-0.112495422,-0.172230572
0.44,-0.319386005,-0.112485886,-0.171464264
0.45,-0.275910616,-0.102863312,-0.197531194
0.46,-0.055458725,-0.074113846,0.149690062
0.47,0.030673206,-0.035787582,0.315415263
0.48,-0.048213363,0.014517784,0.251230419
0.49,-0.042196155,0.026638985,0.061041027
0.5,-0.010447741,-0.009124756,0.080587953
0.51,0.05169934,-0.037774086,0.030457735
0.52,0.122400641,-0.025802612,0.202750206
0.53,0.161058068,0.002806664,0.244337827
0.54,0.053008616,0.024157524,0.218411148
0.55,0.050835371,0.023998261,0.21857363
0.56,-0.082982421,0.050162315,0.14219591
0.57,-0.094354272,0.023709297,0.052055776
0.58,-0.13422215,-0.007499695,0.062368184
0.59,-0.060959399,-0.062675476,0.239057034
0.6,-0.133131385,-0.048339844,0.310548604
0.61,-0.158675492,-0.026758194,0.32681635
0.62,-0.157487154,-0.026680946,0.326314241
0.63,-0.070602119,0.011714935,0.140012637
0.64,-0.105186403,0.01184082,0.035378248
0.65,-0.103780031,0.011945724,0.035316885
0.66,0.029167354,0.050310135,0.295216143
0.67,-0.024567962,0.043210983,0.325789928
0.68,-0.023016095,0.043349266,0.325933129
0.69,0.004695177,0.00996685,0.269234508
0.7,0.017078877,-0.006728172,0.042673916
0.71,-0.191465557,0.002842903,0.150703833
0.72,-0.117878139,0.055401802,0.050893158
0.73,-0.016139209,0.086372375,0.17170763
0.74,-0.050801277,0.028786659,0.321670145
0.75,-0.05159682,0.028684616,0.320786923
0.76,0.141405165,-0.141399384,0.609695733
0.77,-0.061320543,-0.18232441,0.068729967
0.78,-0.06094557,-0.182254791,0.069578111
0.79,0.052578449,-0.06486702,0.320770055
0.8,0.057706892,-0.036160469,0.27184996
0.81,-0.01146549,-0.000177383,-0.158215851
0.82,-0.076884866,0.054947853,0.282932729
0.83,-0.079213262,0.054645538,0.280158579
0.84,-0.122726619,0.061435699,0.560502231
0.85,-0.068236291,0.053928375,0.361692131
0.86,-0.13467443,0.017868042,0.078875452
0.87,-0.199814677,0.034629822,-0.05889827
0.88,-0.160934329,0.046683311,0.117067456
0.89,-0.160079479,0.046840668,0.119365215
0.9,0.078012347,-0.041523933,0.139785424
0.91,0.047328949,-0.017392159,0.139165685
0.92,0.019060314,-0.021978378,0.181784332
0.93,-0.013965666,-0.021747589,0.255795717
0.94,-0.032809436,-0.028739929,0.231592685
0.95,0.128804147,-0.102837563,0.138667643
0.96,0.14024049,-0.05973053,0.08231315
0.97,0.072267652,-0.035826683,0.164216384
0.98,-0.040819407,0.016788483,0.216441959
0.99,-0.095771611,-2.86102E-06,0.131396562
1,-0.121525466,-0.019079208,-0.079088151
1.01,-0.123062491,-0.018937111,-0.072961181
1.02,-0.105018854,0.014783859,-0.119342864
1.03,-0.132046819,0.000593185,0.098993659
1.04,-0.131992459,0.000785828,0.103431374
1.05,-0.012146592,-0.042086601,0.105404645
1.06,0.02387768,-0.077818871,0.068609506
1.07,0.023811042,-0.077699661,0.071286619
1.08,0.040526867,-0.10876751,0.008278996
1.09,-0.060086727,-0.089562416,0.171850145
1.1,-0.045516789,-0.036899567,0.233886212
1.11,0.046116233,0.015855789,0.112230599
1.12,-0.115791678,0.063959122,0.12503776
1.13,-0.279116809,0.057108879,0.236525178
1.14,-0.140125036,-0.043038368,-0.041567981
1.15,-0.107928038,-0.085766792,-0.349163503
1.16,-0.169402063,0.058261871,-0.469478935
1.17,-0.076686203,0.120903015,-0.119471312
1.18,-0.025363922,0.0588274,0.205515206
1.19,0.164327681,0.00623703,0.364293695
1.2,-0.005771041,-0.070280075,0.071982265
1.21,-0.191062331,-0.050830841,0.224124968
1.22,-0.216442227,-0.119882584,0.372630745
1.23,-0.131182313,-0.177031517,0.444636107
1.24,-0.127900481,-0.176760674,0.445074499
1.25,-0.087839425,-0.229194641,0.061418772
1.26,-0.23866117,-0.018428802,-0.301400423
1.27,-0.273003995,0.141791344,-0.030901611
1.28,-0.164606631,0.241979599,0.143991619
1.29,-0.104214847,0.265605927,0.26517266
1.3,-0.04075104,0.160083771,0.323406905
1.31,0.023389637,0.07625103,0.203597307
1.32,0.023472011,0.076412201,0.206868291
1.33,0.226614535,0.007136345,0.397385478
1.34,0.240085244,-0.002404213,0.452102423
1.35,0.251178145,-0.081390381,0.36529997
1.36,0.19239217,-0.117298126,0.259931922
1.37,0.138170004,-0.16279316,0.204615116
1.38,0.00641042,-0.129442215,0.12375629
1.39,-0.122987866,-0.036283493,0.106470883
1.4,-0.113412201,0.05923748,-0.15563792
1.41,-0.075205088,0.10697937,-0.188105583
1.42,-0.177560568,0.18589592,0.162207931
1.43,-0.070249021,0.161840439,0.435994685
1.44,0.006799996,0.111559868,0.341902494
1.45,-0.152174115,0.068660736,0.312522292
1.46,-0.223132074,0.001996994,0.178325951
1.47,-0.218914747,0.002493858,0.181577027
1.48,-0.195170283,-0.102286339,0.113929868
1.49,-0.075653374,-0.156776428,0.230392307
1.5,0.03568846,-0.144415855,0.297161311
1.51,0.050775945,-0.098633766,0.338746011
1.52,0.051595926,-0.105529785,0.212207735
1.53,0.054626703,-0.105226517,0.213162839
1.54,-0.028211176,-0.097698212,-0.019818366
1.55,-0.065731406,-0.056720734,0.059556276
1.56,0.066007376,-0.011072159,0.123507261
1.57,0.090814114,-0.018257141,0.246695548
1.58,-0.047933459,-0.020709991,0.159051478
1.59,0.06253612,0.084623337,0.072134525
1.6,0.039076746,0.07988739,0.225501984
1.61,-0.011047006,0.063127518,0.155797958
1.62,-0.040432096,0.055838585,0.322368413
1.63,-0.044582844,-0.059391022,0.623401225
1.64,-0.046253383,-0.05977726,0.618578315
1.65,-0.250060141,-0.093486786,0.014603347
1.66,-0.263035536,0.002365112,-0.316439033
1.67,-0.129824579,-0.023735046,-0.34077704
1.68,-0.13031435,-0.023715019,-0.339545429
1.69,-0.022568107,-0.000133514,-0.000260353
1.7,0.115131438,0.037528992,0.519326747
1.71,0.028427899,0.070408821,0.461173475
1.72,-0.265113294,0.065280914,0.197954744
1.73,-0.17458427,-0.013569832,0.037640065
1.74,-0.103345573,-0.087563515,0.120682061
1.75,0.056192875,-0.11369133,0.304455459
1.76,0.114971221,-0.113538742,0.382051915
1.77,0.022947967,-0.077456474,0.292384058
1.78,0.024750054,-0.077220917,0.293937713
1.79,-0.057051122,-0.098502159,0.097317189
1.8,0.025528789,-0.062403679,0.195092499
1.81,-0.005554974,-0.009643555,0.287294835
1.82,-0.108859479,0.023848534,0.33772248
1.83,-0.15412885,0.062187195,0.067556381
1.84,-0.154092014,0.062291145,0.069447339
1.85,-0.199376881,0.06007576,-0.09502995
1.86,-0.155588806,0.065058708,0.115859002
1.87,-0.18834728,0.062817574,0.242207795
1.88,-0.186577916,0.060686111,0.222785235
1.89,-0.135953665,0.041869164,0.239391357
1.9,-0.083021104,0.006267548,0.183979899
1.91,-0.070857406,-0.007760048,0.145389676
1.92,-0.068429887,-0.007436752,0.14749217
1.93,-0.056979418,0.004735947,0.356779039
1.94,0.073434293,-0.090925217,0.290060192
1.95,0.092598975,-0.153141975,0.22114706
1.96,0.091874182,-0.1531744,0.221649766
1.97,0.07687521,-0.141284943,0.297815859
1.98,0.032561004,-0.110305786,0.268170953
1.99,-0.028836668,-0.124860764,0.156924903
2,-0.119491458,-0.137044907,-0.023132026
2.01,-0.24374491,-0.043816566,-0.056268454
2.02,-0.187859356,0.061413765,0.147324443
2.03,-0.098751485,0.046867371,0.115915388
2.04,-0.102465808,0.046640396,0.117372006
2.05,-0.00650388,-0.056630135,0.470303029
2.06,-0.016318977,-0.054822922,0.644116581
2.07,-0.063337505,-0.076910973,0.256827027
2.08,-0.168283939,0.021018982,0.018435389
2.09,-0.225109041,0.037846565,-0.08924216
2.1,-0.200829685,0.054742813,-0.02962786
2.11,-0.201821029,0.054760933,-0.02768141
2.12,-0.043812811,0.044985771,0.214078933
2.13,-0.069007933,0.061532974,0.484788179
2.14,-0.069097936,0.061473846,0.483690977
2.15,-0.203739107,0.05922699,0.191932589
2.16,-0.112902582,-0.151233673,0.072861791
2.17,0.063570201,-0.182184219,0.162261307
2.18,0.188624263,-0.194122315,0.310584754
2.19,0.142775297,-0.139143944,0.460216463
2.2,0.141931295,-0.139307022,0.458375216
2.21,0.021304786,-0.151341438,0.195118368
2.22,-0.05915004,-0.120227814,-0.109214723
2.23,-0.080689669,-0.070053101,-0.030854344
2.24,-0.145323932,0.042319298,0.058157057
2.25,-0.156443,0.080522537,0.125726312
2.26,-0.183458924,0.061395645,0.158257663
2.27,-0.145157576,0.06149292,0.181903988
2.28,-0.144684076,0.013776779,0.181877643
2.29,-0.144165039,0.013879776,0.18312034
2.3,-0.072715878,-0.010048866,0.11908108
2.31,-0.041753948,-0.01486969,0.159326047
2.32,-0.085537374,-0.022195816,0.229794711
2.33,-0.10010767,-0.022315025,0.34729898
2.34,-0.030609369,-0.123048782,0.336930454
2.35,0.017111301,-0.180655479,0.150127977
2.36,0.009327233,-0.173607826,0.057399601
2.37,0.008642495,-0.173752785,0.055447906
2.38,-0.018345714,-0.07818222,0.24432385
2.39,-0.01922071,-0.078409195,0.241128326
2.4,0.008637667,-0.03312397,0.274592102
2.41,-0.011122465,0.050577164,0.18968305
2.42,-0.050387979,-0.016533852,-0.035243809
2.43,-0.051200509,-0.016519547,-0.033582568
2.44,-0.147110283,0.03866291,-0.067184269
2.45,-0.060917258,0.057868004,0.039045811
2.46,-0.061747015,0.057825089,0.039442718
2.47,-0.082853794,0.028893471,-0.069006324
2.48,-0.099660993,0.009302139,0.25416249
2.49,-0.043664634,0.044629097,0.927339792
2.5,0.066133261,-0.104142189,0.181622148
2.51,-0.097957611,-0.104125977,-0.047579944
2.52,-0.139200151,-0.089613914,-0.152798891
2.53,-0.031513333,-0.120718002,0.027007908
2.54,-0.033477008,-0.12100029,0.024791986
2.55,-0.028224289,-0.056816101,0.459046751
2.56,-0.137780428,0.026535988,0.12228775
2.57,-0.137708247,0.026399612,0.119068205
2.58,-0.172358334,-0.026269913,0.033553004
2.59,-0.027297258,-0.100426674,0.156846523
2.6,-0.026419878,-0.100358009,0.156740725
2.61,0.084332824,-0.126626968,0.135924041
2.62,0.103895903,-0.081063271,0.378547788
2.63,0.103654802,-0.081103325,0.378147394
2.64,-0.113786995,-0.061896324,0.026404679
2.65,-0.12834847,-0.080989838,-0.091416389
2.66,-0.17647624,-0.056968689,0.125951082
2.67,-0.116628408,-0.018678665,0.123068184
2.68,-0.112150848,0.005213737,0.105871022
2.69,-0.112145603,0.005188942,0.105597466
2.7,-0.160787523,0.057940483,0.193084359
2.71,-0.14196837,0.053338051,0.08776027
2.72,-0.175138414,0.041597366,0.067026019
2.73,-0.155352414,-0.013190269,0.072579712
2.74,-0.111806035,-0.02490139,0.13797158
2.75,-0.069351017,-0.015216827,0.259497404
2.76,-0.032637537,-0.010412216,0.145755351
2.77,-0.032485843,-0.010444641,0.144823045
2.78,0.015224934,0.058926582,0.119868487
2.79,0.031607449,0.058833122,0.125770032
2.8,0.045304477,0.053912163,0.152788073
2.81,0.001841903,0.017921448,0.161344647
2.82,-0.079717517,0.03943634,0.228113696
2.83,-0.113019884,0.008354187,0.163845271
2.84,-0.184526086,-0.022675514,0.177192628
2.85,-0.160213292,-0.135101318,0.047258735
2.86,-0.159959018,-0.134943008,0.050238043
2.87,-0.13346684,0.011232376,0.028553873
2.88,-0.03475529,0.020874977,0.021700144
2.89,0.131883264,-0.046205521,0.122811467
2.9,0.114306808,-0.012972832,0.522091866
2.91,0.012199819,-0.008703232,0.716654301
2.92,0.052861393,-0.040267944,0.500696898
2.93,-0.032019615,0.024101257,0.1542584
2.94,-0.134748399,0.040813446,-0.417033315
2.95,-0.177677333,0.057661057,-0.376994103
2.96,-0.140676439,0.071928024,0.408326238
2.97,-0.007156968,0.09541893,0.805855513
2.98,0.060778379,0.056555748,0.591934621
2.99,-0.095535636,0.041777611,0.133217722
3,-0.204373121,-0.001491547,-0.074385017
3.01,-0.242549419,-0.027832985,0.023047268
3.02,-0.241684616,-0.027812004,0.02230376
3.03,-0.028021932,-0.03739357,0.174534291
3.04,-0.015634716,-0.085212708,0.28769356
3.05,0.044189751,-0.068416595,0.362462014
3.06,-0.068865418,-0.087604523,0.12832287
3.07,-0.095517516,-0.046813011,0.037363142
3.08,-0.060014904,-0.118510246,0.084100485
3.09,-0.03921783,-0.113630295,0.142425776
3.1,0.024131954,-0.084843636,0.030977309
3.11,-0.008952916,-0.022580147,0.05572778
3.12,-0.078060091,0.056368828,0.189783722
3.13,-0.211032569,0.142518997,0.243535638
3.14,-0.211058319,0.142577171,0.244732142
3.15,-0.276858568,0.056539536,0.124034584
3.16,-0.162848771,-0.003077507,-0.024033487
3.17,-0.120975912,-0.07704258,-0.04001081
3.18,-0.175448,-0.072113037,0.081867993
3.19,-0.175011337,-0.072124481,0.080949694
3.2,-0.106068075,-0.014788628,0.256412804
3.21,-0.0893929,-0.002923965,0.254035533
3.22,0.010976374,-0.067674637,0.111113876
3.23,0.010429859,-0.06771946,0.111115038
3.24,-0.047427595,-0.055750847,0.12109372
3.25,-0.057359278,-0.024619102,0.138577282
3.26,-0.050587058,-0.038954735,0.084887266
3.27,-0.046513319,-0.026948929,0.076932192
3.28,-0.067070067,-0.048532486,0.054707378
3.29,-0.068873346,-0.04859066,0.056094438
3.3,-0.178035796,-0.024668694,-0.133490562
3.31,-0.127312899,0.05905056,-0.069762319
3.32,0.035359919,0.051749229,0.23344247
3.33,0.112731159,-0.001238823,0.618866921
3.34,-0.04047364,-0.066387177,0.436169714
3.35,-0.043452382,-0.066706657,0.434013426
3.36,-0.037409365,-0.153100014,0.168510884
3.37,-0.038005292,-0.153235436,0.166699439
3.38,-0.201467991,-0.016765594,-0.366593123
3.39,-0.114603281,0.054909706,0.363147438
3.4,-0.064951777,0.06165123,0.774985671
3.41,-0.036815465,0.018033981,0.486127347
3.42,-0.0294891,-0.003797531,0.009726375
3.43,-0.031342328,-0.003903389,0.010278165
3.44,-0.061954319,-0.056666374,-0.105830759
3.45,-0.101663232,-0.037592888,0.270543844
3.46,-0.102968454,-0.037727356,0.26950866
3.47,0.096417785,-0.033119202,0.40234828
3.48,-0.010359406,0.000267982,0.306162834
3.49,-0.011324763,0.000226021,0.306472659
3.5,-0.057562411,-0.042805672,-0.050166219
3.51,-0.059004962,-0.042750359,-0.04637152
3.52,0.103656411,-0.066718102,0.244013712
3.53,0.048206747,-0.007045746,0.347201943
3.54,-0.057574391,0.007082939,0.243634924
3.55,-0.100658417,0.018866539,0.17619133
3.56,-0.141391397,-0.057936668,0.075355887
3.57,-0.143423498,-0.058056831,0.075767964
3.58,-0.178544641,-0.10121727,0.165092647
3.59,-0.203866601,-0.101376534,0.221710026
3.6,-0.180640757,-0.063183784,0.184159845
3.61,-0.181097269,-0.063261032,0.183226943
3.62,-0.116902232,-0.029806137,-0.023317844
3.63,-0.07001096,0.039479256,0.104386628
3.64,-0.16414088,0.032143593,0.262276709
3.65,-0.159171939,-0.003914833,0.256612629
3.66,-0.082095742,-0.039922714,0.115347564
3.67,-0.155929565,-0.071069717,0.092590868
3.68,-0.059096456,-0.044649124,0.022990346
3.69,-0.058641732,-0.04460907,0.023533344
3.7,-0.075102091,-0.008645058,0.091144145
3.71,-0.168057978,0.01055336,0.156329632
3.72,-0.246292174,0.051316261,-0.087926745
3.73,-0.195246995,0.063361168,-0.259794891
3.74,-0.19481653,0.063457489,-0.258608878
3.75,-0.071504593,0.051366806,0.176439524
3.76,0.083842516,0.01513958,0.762798429
3.77,0.037200749,-0.121795654,0.559155464
3.78,-0.058789432,-0.17240715,0.110755116
3.79,-0.060084462,-0.172502518,0.11054644
3.8,-0.100897551,-0.043273926,-0.096654713
3.81,0.044120073,0.011689186,-0.152461857
3.82,0.113115132,0.049795151,0.005238175
3.83,0.058751345,0.068585396,0.400985062
3.84,0.054139435,0.068072319,0.396524608
3.85,-0.13654083,0.043740273,0.28093487
3.86,-0.246922612,0.026704788,0.137384832
3.87,-0.119633734,-0.04057312,0.125419974
3.88,-0.057433724,-0.071960449,0.058864355
3.89,-0.047785163,-0.067315102,0.065867722
3.9,0.019069254,-0.026761055,0.253350049
3.91,0.056702316,0.001771927,0.205490261
3.92,0.010673702,0.039896011,0.107719541
3.93,-0.047051251,0.018227577,0.144660682
3.94,-0.071012318,-0.063284874,0.150708288
3.95,-0.028381467,-0.128068924,0.09459421
3.96,0.080295384,-0.118711472,0.064018071
3.97,0.040051699,-0.071128845,0.061171949
3.98,-0.13383913,0.000404358,0.234535962
3.99,-0.101107717,0.03602314,0.258642465
4,-0.022720277,0.038140297,0.148988128
4.01,-0.140769661,0.035518646,0.272620082
4.02,-0.206790209,0.023365974,0.313917846
4.03,-0.145397425,-0.082107544,0.189868629
4.04,-0.146147072,-0.08217907,0.189175963
4.05,-0.110764027,-0.142099381,0.030473471
4.06,-0.058936656,-0.096726418,0.088690728
4.07,-0.155691028,-0.017899513,0.253380239
4.08,-0.179361999,-0.049191475,0.273147732
4.09,-0.2286461,-0.073224068,0.245078281
4.1,-0.34670037,-0.042159081,0.346486092
4.11,-0.167023957,-0.061382294,0.185698673
4.12,-0.081694126,-0.056633949,0.002432674
4.13,-0.081112206,-0.056698799,-7.08103E-05
4.14,-0.195119441,-0.059177399,0.048837155
4.15,-0.221413493,-0.162282944,-0.172595143
4.16,-0.156864822,-0.011601448,-0.129031628
4.17,-0.156993389,-0.011829376,-0.134735972
4.18,-0.152271211,0.00225544,0.293544859
4.19,-0.300548136,-0.076956749,0.304456651
4.2,-0.174932003,-0.177810669,0.296508223
4.21,-0.321146429,-0.144446373,-0.057304204
4.22,-0.169525921,-0.087015152,0.057416499
4.23,-0.049262762,-0.070345879,0.250176162
4.24,-0.173997045,-0.08009243,-0.163597167
4.25,-0.265334845,-0.104121208,-0.340105355
4.26,-0.264080405,-0.049237251,0.006007195
4.27,-0.266132116,-0.049585342,-0.000725925
4.28,-0.30597955,-0.054741859,0.254176945
4.29,-0.354254365,-0.07177639,0.256162852
4.3,-0.35099268,0.033452988,-0.048860937
4.31,-0.330226004,-0.043195724,-0.050809056
4.32,-0.476673484,-0.093453407,0.029693276
4.33,-0.384254694,-0.160359383,0.083442405
4.34,-0.296186864,-0.141041756,0.070136637
4.35,-0.291900873,-0.140869141,0.066574544
4.36,-0.310882449,-0.157423973,0.065314963
4.37,-0.234267831,-0.217079163,0.008999377
4.38,-0.258075714,-0.298271179,-0.112395376
4.39,-0.253514707,-0.298114777,-0.117895722
4.4,-0.284896731,-0.24534893,0.01339972
4.41,-0.375645518,-0.168652535,0.197863221
4.42,-0.458173394,0.044645309,-0.083536893
4.43,-0.446981311,0.049696922,-0.403790832
4.44,-0.470945299,0.059654236,-0.333917677
4.45,-0.462932408,0.069692612,-0.077475309
4.46,-0.442081273,0.043860435,0.026948214
4.47,-0.43231684,0.044425011,0.021409869
4.48,-0.32445991,-0.141705513,-0.159631342
4.49,-0.290658951,-0.124321938,-0.022205338
4.5,-0.118887544,-0.15008831,0.073547691
4.51,-0.133123338,-0.175987244,0.128425598
4.52,-0.125964701,-0.201880455,0.134863883
4.53,-0.138235331,-0.244573593,0.042404503
4.54,-0.018676341,-0.313595772,0.030542657
4.55,-0.005435526,-0.274947166,-0.051296189
4.56,0.019402564,-0.212400436,-0.117398605
4.57,0.012598634,-0.202549934,-0.161907539
4.58,-0.116778851,-0.195131302,-0.1612432
4.59,-0.221916139,-0.163722992,-0.520150363
4.6,-0.216291249,-0.163377762,-0.527233601
4.61,0.147499561,-0.194215775,-0.210724965
4.62,0.444880545,-0.301844597,0.059145655
4.63,0.817852259,-0.519892693,0.230431408
4.64,0.813575327,-0.520371437,0.216703326
4.65,0.691110611,-0.777070999,-0.040427148
4.66,0.819435239,-0.737123489,-0.023900591
4.67,0.806337237,-0.738237381,-0.040254928
4.68,1.086768746,-0.694432259,-0.664146543
4.69,1.055698156,-0.696764946,-0.676866949
4.7,1.159851909,-0.493840218,-0.612108827
4.71,0.970560074,0.072863579,0.323581547
4.72,0.811980486,0.36356163,-0.107139722
4.73,0.471710414,0.73579216,-0.571990728
4.74,0.26711753,0.966909409,-1.086912274
4.75,0.015237987,1.181347847,-1.209886193
4.76,-0.201652527,1.297727585,-1.018646598
4.77,-0.26031667,1.272968292,-0.926292598
4.78,-0.235426515,1.068727493,-0.950930834
4.79,-0.249356836,0.730446816,-0.879688382
4.8,-0.234895825,0.334783554,-0.777596533
4.81,-0.293227017,0.008610725,-0.691109359
4.82,-0.11560297,-0.394062042,-0.54912746
4.83,-0.124524534,-0.394465447,-0.548604548
4.84,0.021085441,-0.674901962,-0.49251616
4.85,0.007893443,-0.840312958,-0.479052693
4.86,-0.107118726,-0.905083656,-0.564339757
4.87,-0.06457895,-0.919532776,-0.73846072
4.88,0.180382848,-0.737617493,-0.689835072
4.89,0.341813088,-0.581947327,-0.648470223
4.9,0.426291823,-0.498078346,-0.665969908
4.91,0.383613914,-0.450104713,-0.549297571
4.92,0.377490461,-0.449950218,-0.566306293
4.93,0.288723052,-0.430724144,-0.572007716
4.94,0.446930498,-0.564834595,-0.983525693
4.95,0.215125695,-0.584058762,-1.040977716
4.96,0.208027825,-0.584084511,-1.049111962
4.97,0.095689073,-0.587932587,-1.084932923
4.98,-0.068047464,-0.670545578,-1.099381924
4.99,-0.093764722,-0.621202469,-1.040949941
5,-0.070083737,-0.585911751,-1.011322021
5.01,-0.132855117,-0.59109211,-1.044022202
5.02,-0.131189525,-0.591042519,-1.045556784
5.03,-0.129658967,-0.662796974,-1.081862211
5.04,-0.118451327,-0.48073864,-0.917472839
5.05,0.101055861,-0.085566521,-0.697800219
5.06,-0.125759095,-0.001599312,-1.15347147
5.07,-0.217959911,0.053715706,-0.788689256
5.08,-0.195188224,0.022954941,-1.143947124
5.09,-0.185106397,0.023347855,-1.149309874
5.1,-0.004478186,0.129179001,-1.695872307
5.11,0.011097848,0.129776001,-1.699276805
5.12,0.121480972,0.290897369,-1.464152575
5.13,-0.027166605,0.389904022,-0.858278096
5.14,-0.034448504,0.539237976,-0.469077796
5.15,-0.062894255,0.547379494,-1.124893785
5.16,-0.353862137,0.586672783,-1.533607364
5.17,-0.496716708,0.721867561,-1.82714498
5.18,-0.474606574,0.723043442,-1.831513643
5.19,-0.372238219,0.808032036,-1.734481692
5.2,0.207055569,1.127649307,-1.177844048
5.21,0.578505456,1.236516953,-0.983383775
5.22,0.46484679,1.407556534,-0.776129723
5.23,0.454530597,1.791893959,-0.635476947
5.24,0.516505003,2.068543434,-0.477321327
5.25,0.485716939,2.491295815,-0.184374929
5.26,0.613498747,2.911741257,0.156338871
5.27,0.943734527,3.054424286,0.444489092
5.28,1.102435589,3.156312943,1.306065798
5.29,0.982447207,3.152973175,2.278609037
5.3,0.93490541,2.953269005,2.672004938
5.31,0.835026264,2.789196968,2.712663412
5.32,0.753038943,2.643938065,2.863075256
5.33,0.405518949,2.713877678,3.237266302
5.34,-0.387127101,2.7454319,3.724465847
5.35,-1.415177822,2.564297676,3.951888561
5.36,-1.786193848,2.096339226,3.698049784
5.37,-1.9098804,1.456238747,3.719270706
5.38,-1.889068842,1.457984924,3.720550776
5.39,-1.566374898,0.372550964,3.719953775
5.4,-1.423923254,0.12021637,3.231582403
5.41,-1.031226635,0.126303673,2.651834249
5.42,-0.873770356,0.440941811,2.191217422
5.43,-1.051936984,0.987837791,1.963666439
5.44,-1.314515233,1.492015839,1.670225382
5.45,-1.629943848,1.912682533,1.060161829
5.46,-1.712975264,2.019915581,0.655964017
5.47,-1.499951601,1.842352867,0.589576244
5.48,-1.50392139,1.844051361,0.547879934
5.49,-1.100905895,1.313850403,0.838833988
5.5,-0.745956063,-0.092960358,1.897444725
5.51,-0.396626592,-1.11446476,1.815615535
5.52,-0.280492783,-2.1509161,0.955712616
5.53,-0.219806552,-3.042104244,0.352106571
5.54,0.225055814,-3.890807629,-0.257847726
5.55,0.682471037,-4.658858776,-0.413296282
5.56,0.659819067,-4.661128521,-0.406145811
5.57,0.763176262,-5.185247421,0.339243233
5.58,0.390834063,-5.35467577,0.705925345
5.59,0.302802235,-5.497317791,0.649178684
5.6,0.278951585,-5.634879589,0.193250418
5.61,0.2675125,-5.636058331,0.199123681
5.62,0.205110341,-5.623176575,-0.812664688
5.63,0.359776884,-5.357205868,-1.213144541
5.64,0.331839502,-4.95502615,-1.147069693
5.65,0.305675745,-4.95721674,-1.137905002
5.66,0.327805489,-4.446808338,-1.10742116
5.67,-0.217884958,-3.370908737,-1.071316957
5.68,-0.540187478,-2.706678391,-1.187060833
5.69,-0.783143878,-1.901123047,-1.27884376
5.7,-0.791452944,-1.521757126,-1.209459543
5.71,-0.760527968,-1.041897774,-0.914786875
5.72,-0.760595202,-0.533320427,-0.537745595
5.73,-0.841351867,-0.103722572,-0.310307473
5.74,-0.974808991,0.184663773,-0.345537335
5.75,-0.95308131,0.497004509,-0.630709767
5.76,-1.0190593,0.862019539,-0.838670254
5.77,-1.016759753,0.860907555,-0.804642558
5.78,-1.637890339,1.779455185,-0.456751466
5.79,-1.900793552,2.305540085,-0.343762517
5.8,-1.938970685,2.671250343,-0.395852715
5.81,-1.861354828,2.907690048,-0.47777468
5.82,-1.710211277,3.029259682,-0.562963426
5.83,-2.003552198,3.368777275,-0.648951948
5.84,-2.237796307,4.352682114,-0.464954078
5.85,-1.570684195,5.374975204,0.004634321
5.86,-1.572945595,5.374642372,0.014985904
5.87,-0.007599235,5.735310555,0.605301082
5.88,2.879276037,5.413140297,3.480016708
5.89,2.529086351,4.935556412,5.004401684
5.9,2.509583712,4.93488121,4.997321129
5.91,1.529295921,2.757938385,5.336457253
5.92,1.364038467,1.438439369,4.806229591
5.93,1.360662341,0.238869667,3.756954193
5.94,0.712932944,-0.215953827,1.732568502
5.95,0.254114986,0.260554314,-0.135676444
5.96,0.19617869,1.034122467,-0.62184459
5.97,0.45742923,1.769608498,-0.321867347
5.98,0.896238565,2.332938194,0.42398575
5.99,0.788389921,2.676254272,1.453419209
6,0.81249094,2.677589417,1.440348148
6.01,0.767879188,2.50421524,2.270660877
6.02,1.423123121,1.499837875,2.444236517
6.03,1.771171451,0.907202721,2.052020788
6.04,1.741308808,0.326444626,1.423808575
6.05,1.724468231,0.327430725,1.384861231
6.06,0.775917292,-0.890489578,-0.237228438
6.07,0.428541273,-1.761382103,-0.495242536
6.08,0.090293556,-2.749609947,-0.387764305
6.09,-0.184244424,-3.452968121,-0.382502377
6.1,-0.618481517,-4.156375408,-0.027075261
6.11,-0.517361283,-4.634762287,0.179280639
6.12,0.148755252,-5.07270956,0.288697183
6.13,0.411472589,-5.448534966,0.431691825
6.14,0.419962496,-5.448344231,0.435310304
6.15,0.579105794,-5.656134129,0.722246647
6.16,0.456320316,-5.576303959,0.429601967
6.17,0.414316714,-5.345422745,-0.083445877
6.18,0.329586178,-4.978036404,-0.629903436
6.19,0.340814263,-4.976912975,-0.640020907
6.2,0.350592732,-4.666695118,-0.933527231
6.21,0.050641686,-3.666453362,-0.715491414
6.22,0.083435386,-3.149581432,-0.73085165
6.23,0.087041587,-3.147098064,-0.767165661
6.24,-0.192263603,-1.940064907,-0.833626092
6.25,-0.109675229,-1.271712303,-1.097266912
6.26,-0.105815351,-1.269158363,-1.128691792
6.27,-0.039204538,-0.788170815,-1.344781637
6.28,0.118568122,-0.288419724,-1.30846715
6.29,0.589969516,0.33068943,-0.187588036
6.3,0.595358193,0.741348267,0.375649929
6.31,0.602649808,0.74229908,0.369069994
6.32,0.085378021,1.839198112,-0.777406335
6.33,0.096999496,1.838838577,-0.764733017
6.34,-0.096664131,3.209999084,-0.997697473
6.35,-0.155792952,3.371704102,-1.401369333
6.36,-0.279404819,3.370449066,-2.046065807
6.37,-0.486890853,3.333346367,-2.480255365
6.38,-1.045911312,3.445192337,-2.491268873
6.39,-1.296631098,3.835731506,-1.81715858
6.4,-0.709060669,4.516421318,-0.179234982
6.41,-0.168049455,4.840749741,1.338273048
6.42,0.538478434,4.849262238,2.137485981
6.43,0.260159969,4.553608894,3.214362621
6.44,-0.945036054,3.956466675,4.397334099
6.45,-1.19644618,3.105547905,5.364273071
6.46,-0.982967913,1.696751595,5.868855953
6.47,-0.209280014,0.455880165,5.442310333
6.48,0.584649563,-0.229434013,4.835841656
6.49,0.206431508,-0.170339584,4.460608959
6.5,-0.399403453,0.298415184,4.079248428
6.51,-0.747249544,1.202973366,2.865958214
6.52,-1.408652306,2.073763847,1.246128321
6.53,-1.412458181,2.075353622,1.227206588
6.54,-2.87006855,3.241086006,1.017108679
6.55,-3.964750767,3.61068821,1.987419248
6.56,-3.951336861,3.615355492,1.951204658
6.57,-4.117477894,3.308526039,2.704514265
6.58,-1.27664113,0.783454895,1.829348564
6.59,-0.593703091,-0.210454941,0.640152216
6.6,-0.304307282,-1.166855812,-0.126833916
6.61,0.076245487,-2.161848545,-0.376432717
6.62,0.286037624,-2.948654175,-0.508260965
6.63,0.596195996,-3.74796629,-0.712198436
6.64,0.818704844,-4.480882168,-0.796580911
6.65,0.794429958,-4.481852055,-0.800591946
6.66,0.716715336,-5.302227497,-0.367508054
6.67,0.69013679,-5.303919315,-0.365580082
6.68,1.051862836,-5.663388252,-0.337555289
6.69,0.961444616,-5.777080059,-0.510003865
6.7,0.600534141,-5.761504173,-0.440831184
6.71,0.228249952,-5.594720364,-0.23263371
6.72,0.205528125,-5.597797871,-0.213834286
6.73,0.474290073,-5.560750008,-1.042289138
6.74,0.388994873,-5.306357861,-1.142356157
6.75,0.280456305,-4.872033596,-1.198564053
6.76,0.334347606,-4.140223026,-0.856855989
6.77,0.212858632,-3.355202675,-0.658388376
6.78,-0.180733085,-2.76620388,-1.380866051
6.79,-0.532867253,-2.002442837,-1.526833177
6.8,-0.704558492,-1.142734528,-1.081621051
6.81,-1.080215096,-0.210958481,-0.946087956
6.82,-1.151686192,0.49317646,-0.79466182
6.83,-1.240254402,1.254590988,-0.593377829
6.84,-1.758293509,1.943977356,-0.086298704
6.85,-1.859448195,2.408183098,-0.070160627
6.86,-1.732811928,2.718868256,-0.591832995
6.87,-1.595630884,2.92629528,-0.918135583
6.88,-1.586109042,2.92308712,-0.868134975
6.89,-1.503657818,3.4683218,-1.235973597
6.9,-1.92608285,3.788816452,-1.65712595
6.91,-2.548879862,4.021324158,-1.890590072
6.92,-3.146516323,4.014989853,-2.114728212
6.93,-3.730645657,3.77449894,-2.004043102
6.94,-3.80611372,3.716331482,-1.406887889
6.95,-2.903541803,3.967238426,-0.26098901
6.96,-0.885404944,4.143906593,0.770970583
6.97,1.190847993,4.071041107,0.967548251
6.98,1.198678017,4.069793701,1.032117128
6.99,2.645466328,3.889202118,2.805788517
7,2.887315512,3.562997818,3.774841309
7.01,2.708052874,2.983219147,4.39817667
7.02,2.69103384,2.250267982,4.520960331
7.03,2.685282946,1.538766861,3.934564352
7.04,2.470657825,0.791366577,2.979080439
7.05,1.987091064,0.403184891,1.729420424
7.06,1.980690956,0.403007507,1.739952683
7.07,0.478254646,0.714149475,-0.516290784
7.08,0.357418418,1.144985199,-0.483604193
7.09,0.353405953,1.499178886,0.078227662
7.1,0.475508571,1.661870003,0.465980053
7.11,0.512389123,1.695357323,0.571236253
7.12,0.440251887,1.396086693,0.7849105
7.13,0.416372508,1.027524948,1.112986207
7.14,0.04785867,0.357420921,1.204131842
7.15,0.044304475,0.357847214,1.174058199
7.16,-0.163693756,-0.484413147,0.89352864
7.17,-0.949255228,-2.811105251,-0.278829306
7.18,-0.93357718,-2.810441494,-0.287415326
7.19,-1.244860172,-3.630921364,-0.379635751
7.2,-0.335041404,-5.526350975,0.723054707
7.21,-0.407761037,-6.15271616,0.256150872
7.22,-0.374087304,-6.151562214,0.263153434
7.23,-0.190211862,-6.367947578,0.254636526
7.24,0.194069237,-6.205630779,0.173491359
7.25,0.231554896,-6.203613758,0.16878742
7.26,0.433140874,-5.854375362,-0.134329781
7.27,0.607100129,-5.251262665,-0.148073867
7.28,0.452589691,-4.169154167,-0.474628061
7.29,0.577261925,-3.630485058,-1.060188413
7.3,0.683294892,-3.046385288,-1.34829247
7.31,0.696732163,-3.04415369,-1.384067297
7.32,0.787582755,-1.893052578,-1.45225203
7.33,0.794944227,-1.891557217,-1.475195885
7.34,0.25035432,-0.271808624,-0.842673779
7.35,0.261294812,-0.270713806,-0.849658251
7.36,0.230351627,0.452804565,-0.714714825
7.37,0.766448617,0.845515251,0.018283695
7.38,0.968334675,0.847883225,0.102349311
7.39,0.972830832,0.847623825,0.1160312
7.4,0.751528859,0.916728973,-0.372029692
7.41,0.183266521,1.306574821,-1.273261428
7.42,-0.473527253,2.845659256,-2.243364334
7.43,-0.371411264,3.570631981,-2.18708992
7.44,-0.211129189,4.01072216,-2.12852931
7.45,-0.206202269,4.010469437,-2.105097055
7.46,-1.03861022,3.984524727,-1.149690628
7.47,-1.053820014,3.969110489,-0.27420485
7.48,-0.629415333,4.298887253,1.203074574
7.49,0.000746906,4.367829323,1.295895696
7.5,0.184480488,4.254665375,0.855196178
7.51,0.068749607,4.146532059,1.489703655
7.52,-0.056671858,3.461760521,2.896784544
7.53,-0.030052722,3.464271545,2.899229527
7.54,-0.368756414,0.997849464,5.51249361
7.55,0.056144893,0.043874741,5.530231953
7.56,0.054174185,0.044219971,5.502583027
7.57,0.237190485,0.117854118,4.335341454
7.58,-0.379316211,0.787168503,3.079327583
7.59,-1.035179496,1.834327698,1.335323095
7.6,-1.740629673,3.070623398,0.012314647
7.61,-2.229707956,4.144453049,-0.146212027
7.62,-2.841825247,4.689571381,1.221201658
7.63,-2.847159863,4.689679146,1.205707073
7.64,-3.43255806,3.304237366,1.857274175
7.65,-1.637377977,1.580792427,0.7008003
7.66,-0.668067813,0.270820618,0.264035642
7.67,-0.684556902,0.270373344,0.242650926
7.68,-0.288082838,-0.577723503,0.033825397
7.69,1.221353531,-2.460260868,0.75752157
7.7,1.686014533,-3.232016563,0.803476095
7.71,1.4982059,-3.970423222,0.53844893
7.72,1.120527744,-4.493449211,0.320507944
7.73,0.713391423,-4.772415161,0.138039529
7.74,0.685725391,-4.773982048,0.133943796
7.75,0.686211467,-4.852810383,-0.725737333
7.76,0.659320056,-4.953960896,-0.889327228
7.77,0.58853662,-5.078911781,-0.593841314
7.78,0.561208189,-5.081472397,-0.574159861
7.79,0.78797245,-5.148449421,-0.007967055
7.8,0.696795464,-5.102745056,-0.165343851
7.81,0.181170791,-4.827038288,-0.509058774
7.82,0.172783762,-4.828863621,-0.477266014
7.83,-0.645911634,-4.291811466,-1.63689518
7.84,-0.822433233,-3.962939739,-1.939448118
7.85,-0.825864911,-3.964263439,-1.905512571
7.86,-1.004832387,-2.500108719,-1.529126167
7.87,-1.025353312,-1.617500305,-1.271166801
7.88,-0.972035527,-0.631752014,-0.933447659
7.89,-0.919911623,0.196182251,-0.457943708
7.9,-0.736215234,0.653155327,-0.041214496
7.91,-0.453775019,1.000061989,-0.062878847
7.92,-0.660012007,1.469051361,-0.38145718
7.93,-0.709025145,1.902158737,-0.74377358
7.94,-0.670846343,2.407097816,-0.959164023
7.95,-0.924473643,2.912034035,-0.667538047
7.96,-0.929862976,2.911769867,-0.664821208
7.97,-2.11542511,3.115083694,-0.964399517
7.98,-2.117680788,3.115002632,-0.967652917
7.99,-3.401726961,2.961929321,-2.045270205
8,-3.673138857,3.017598152,-2.097272873
8.01,-2.996839523,3.634087563,-1.150126934
8.02,-1.331192613,4.41855526,-0.171935946
8.03,0.568683505,4.673986435,0.293178201
8.04,0.58359611,4.675368309,0.356154621
8.05,3.865359306,4.259950638,4.042889118
8.06,3.040480137,3.505010605,4.957848072
8.07,3.045967102,3.506885529,5.014064789
8.08,2.102921724,1.78659153,3.50193429
8.09,2.675607443,0.210865974,2.217577696
8.1,2.643502474,0.209189415,2.21827507
8.11,2.897600889,-0.600199699,-0.056650192
8.12,1.91954565,0.517374992,0.167620048
8.13,1.1792171,1.386079788,0.644600093
8.14,1.151160121,1.383687973,0.591128588
8.15,1.31942451,2.691426277,1.325783253
8.16,1.296033978,2.689970016,1.276942968
8.17,1.065621614,3.107867241,1.405385852
8.18,0.553946018,3.02806282,1.126571774
8.19,0.177666381,2.163238525,0.812811256
8.2,0.159893692,2.163020134,0.766984999
8.21,-0.114302084,1.133583069,0.590961218
8.22,-0.818941176,-1.638687134,-0.190247417
8.23,-0.925421298,-2.713314533,-0.423082441
8.24,-0.983451068,-3.771145821,-0.442898601
8.25,-0.965932071,-3.770626068,-0.448045313
8.26,-0.620992601,-5.390891552,0.014534131
8.27,-0.427272439,-5.856973648,0.168589488
8.28,0.045008898,-6.042774677,0.128332511
8.29,0.068089902,-6.041744709,0.115617693
8.3,0.768434167,-5.817864895,0.460985929
8.31,0.528572857,-5.368826866,0.247535899
8.32,0.461692154,-4.965071678,-0.351470828
8.33,0.491628736,-4.963518143,-0.360281318
8.34,-0.131295443,-4.248323917,-1.554791212
8.35,-0.18131572,-3.925674438,-1.77307725
8.36,0.021132708,-3.569559097,-1.719852209
8.37,0.458330125,-2.959897041,-1.135516644
8.38,0.778857112,-2.398447514,-0.678127706
8.39,0.623478472,-1.743737221,-0.566369534
8.4,0.450282693,-1.136931419,-0.628367901
8.41,0.464682102,-1.135900497,-0.632739544
8.42,0.299119562,-0.43817234,-0.559109688
8.43,0.083292842,0.639951706,-0.488916397
8.44,0.095603406,0.640611649,-0.484675705
8.45,-0.650382519,2.089728355,-1.609185934
8.46,-0.522252083,2.705593109,-1.473837852
8.47,0.152085483,3.295077324,-0.591879964
8.48,0.372393668,3.379283905,-0.524798691
8.49,0.087265313,3.434830666,-1.515690446
8.5,-0.195772529,3.593490601,-1.829623818
8.51,-0.817710459,3.788327217,-1.233747721
8.52,-1.252806544,4.431276321,-0.520822167
8.53,-0.283929825,5.411588669,1.019694686
8.54,0.760493815,5.77128315,1.93735218
8.55,1.072494984,5.52734375,2.656728268
8.56,0.297216833,4.921958923,4.060718536
8.57,0.310391605,4.922749519,4.066512585
8.58,-0.655287385,1.868470192,4.886296272
8.59,-0.657987595,1.868656158,4.87606144
8.6,0.108308792,-0.427440643,4.661385059
8.61,0.646636546,-0.748570442,4.526527882
8.62,0.031231761,-0.32503891,3.892439127
8.63,-0.556570768,0.457999229,2.507282734
8.64,-1.024660826,1.674473763,0.848598421
8.65,-1.046859145,1.67467308,0.821917951
8.66,-1.78305006,3.868364334,0.35993582
8.67,-1.786631107,3.869377136,0.341087937
8.68,-4.171753883,4.841112137,3.031077862
8.69,-4.162671089,4.843538284,3.003902435
8.7,-0.978494287,1.969489098,2.313094616
8.71,-0.545838594,0.487672806,0.992112398
8.72,-0.080298722,-0.635540009,0.093044877
8.73,0.915766537,-1.96284914,-0.605565846
8.74,1.56367147,-3.058442116,-0.835894764
8.75,1.651654243,-3.710887432,-0.824527085
8.76,1.476094007,-4.315280437,-0.607043207
8.77,1.434907436,-4.316208363,-0.61670506
8.78,0.702305794,-5.38263607,-0.226055801
8.79,0.671680629,-5.383986473,-0.22216785
8.8,0.226415575,-5.804911137,-0.38041985
8.81,0.23668693,-5.924851418,-0.450874895
8.82,0.328360438,-5.941808701,-0.433786422
8.83,0.336399436,-5.695233345,-0.618162751
8.84,0.117120504,-5.436701775,-0.881279826
8.85,-0.006680146,-5.206927299,-1.298809409
8.86,-0.213688642,-4.95796299,-1.555524826
8.87,-0.355381072,-4.545986176,-1.8342278
8.88,-0.363758743,-4.548030853,-1.799487233
8.89,-0.940426886,-3.230745792,-1.650137424
8.9,-0.586318553,-2.469009399,-0.56355232
8.91,-0.759635329,-1.96576786,-0.787331343
8.92,-1.202501774,-1.000526428,-1.171886206
8.93,-1.066623092,-0.061205864,-0.890248418
8.94,-1.202405214,0.747030258,-0.448622167
8.95,-1.416362166,1.48404026,-0.951197982
8.96,-1.384524107,1.48415947,-0.883615553
8.97,-1.16765213,2.990795135,-1.967180133
8.98,-1.150767088,2.9914608,-1.913356185
8.99,-0.206559569,3.849078178,-0.440503687
9,-0.298316091,4.244221687,0.280991942
9.01,-0.895014942,4.449949265,0.219343305
9.02,-2.289047956,4.291647911,-0.644867659
9.03,-3.463676214,3.968333244,-1.76403439
9.04,-3.996230364,3.259923935,-2.527781963
9.05,-3.97475028,3.354103088,-2.540169716
9.06,-2.741968632,4.272512436,-1.040861845
9.07,-0.01665619,4.741077423,0.2047638
9.08,2.017106056,4.529343605,0.598026156
9.09,2.554718494,4.118727684,1.234371662
9.1,2.246339798,3.487772942,2.64573431
9.11,2.247540712,3.488835335,2.675508022
9.12,1.524549842,0.80798626,3.718142748
9.13,1.903112054,-0.372278214,3.103796244
9.14,2.486619949,-1.503149986,2.629561663
9.15,2.573511839,-1.909258842,1.959837437
9.16,2.080427408,-1.503781319,0.472249866
9.17,1.282743216,-0.729369164,-0.434405655
9.18,1.271229029,-0.730504036,-0.458982468
9.19,0.092172742,1.504926682,-0.156611562
9.2,0.196622923,2.425982475,0.530563831
9.21,0.401822656,2.952037811,0.706586063
9.22,0.377587915,3.07592392,1.076316714
9.23,0.243369192,2.436010361,1.628042102
9.24,-0.152309388,1.549466133,1.918806911
9.25,-0.160068333,1.548931122,1.870693803
9.26,-0.404312134,-1.202445984,0.851799667
9.27,-0.589575291,-2.33986187,0.285947681
9.28,-0.773910165,-3.512924671,-0.126515448
9.29,-1.011107445,-4.388867855,-0.174025476
9.3,-1.066143394,-5.077805996,-0.330727011
9.31,-1.189401269,-5.376205444,-0.342112064
9.32,-0.912201285,-5.51864481,-0.374818683
9.33,-0.297960222,-5.533955097,0.458951533
9.34,0.22457777,-5.486782551,0.609712243
9.35,0.249640033,-5.484987736,0.578563094
9.36,0.613293767,-5.2389884,0.265491456
9.37,0.786907435,-4.458862782,0.185630113
9.38,0.992967248,-4.131215572,-0.412733793
9.39,0.897850156,-3.846734047,-0.955280066
9.4,0.767902315,-3.418634415,-1.276150227
9.41,0.682975411,-3.019310951,-1.231372595
9.42,0.602869093,-2.493221283,-1.17550683
9.43,0.61069262,-2.491802216,-1.196996212
9.44,0.501792371,-1.822732449,-1.193493247
9.45,0.321066827,-1.170717239,-1.302542925
9.46,-0.276943028,0.230540276,-0.755079866
9.47,0.09892258,0.695491791,-0.691190243
9.48,0.425416827,1.176732063,-0.823374093
9.49,0.772395372,1.717256546,-0.876711249
9.5,1.028022051,2.544859886,-0.758850157
9.51,0.96579206,3.477643967,-0.439473569
9.52,0.983986855,4.348290443,-0.211615399
9.53,0.667295098,4.847911835,-0.277798116
9.54,0.158857256,4.92176342,-0.507608533
9.55,-0.534637809,4.576945305,-1.065115929
9.56,-0.537935734,4.577116013,-1.072327137
9.57,-1.492498159,4.625279427,-0.962018609
9.58,-0.7145105,5.221813202,0.800572634
9.59,-0.71031189,5.222123146,0.798853576
9.6,-0.298533917,5.222203255,1.482586741
9.61,-0.314531028,4.231176376,1.076114535
9.62,-1.106932044,3.147469521,1.93576467
9.63,-1.77920866,1.729104042,2.845077038
9.64,-1.498728752,0.425835609,3.263933897
9.65,-0.433705151,-0.750741959,3.306527615
9.66,0.083650708,-1.245768547,3.300993443
9.67,0.523575664,-1.123202324,3.141916513
9.68,0.646458685,-0.55547905,2.617309332
9.69,0.164719075,0.069272995,2.053112507
9.7,-0.196421385,0.710508347,1.394659996
9.71,-0.179681242,1.588474274,0.68616432
9.72,-0.690164447,2.432674408,0.705932498
9.73,-1.938963413,3.229208946,1.349326611
9.74,-3.052177429,3.655293465,1.561869383
9.75,-3.188862324,3.425674438,1.442743778
9.76,-3.183239698,3.425678253,1.448732257
9.77,-2.13138628,2.392974854,1.528137088
9.78,-0.270035803,-0.581734657,1.068669915
9.79,0.571784198,-1.966859341,0.11567837
9.8,0.865755618,-2.789431572,0.037813663
9.81,1.037876368,-3.539849758,0.331466138
9.82,1.125050187,-4.134239197,0.258828819
9.83,1.094966054,-4.134599686,0.24171108
9.84,0.658713222,-4.932371616,-0.019718111
9.85,0.142166451,-5.301674843,-0.270447433
9.86,0.030001611,-5.510792255,-0.594004214
9.87,0.160374597,-5.614782333,-0.470543712
9.88,0.08148241,-5.666109562,-0.394165576
9.89,-0.139262199,-5.573875427,-0.600406647
9.9,-0.157293528,-5.575212479,-0.58444047
9.91,-0.184502229,-5.243892193,-1.442136288
9.92,-0.197627381,-5.245299816,-1.420172215
9.93,-0.10214448,-4.870659351,-1.866547823
9.94,-0.015477046,-4.428634644,-1.749124885
9.95,0.186172202,-3.696936607,-1.056900501
9.96,0.065859392,-2.857745171,-0.841656208
9.97,-0.366210014,-1.331656456,-1.416707754
9.98,-1.009442806,-0.511818886,-1.230860472
9.99,-1.277422905,0.258024216,-1.012031317
10,-1.320741653,0.822207451,-0.717104912
10.01,-1.308115721,0.821573257,-0.67455405
10.02,-0.857731402,1.323805809,-0.517061532
10.03,-0.217286006,2.017651558,-0.705286026
10.04,-0.543848157,2.560761452,-0.592828989
10.05,-1.067377567,3.113609314,-0.645303786
10.06,-1.601392508,3.597192764,-0.831677795
10.07,-2.10070014,3.850991249,-1.208656669
10.08,-2.642559528,3.791194916,-1.688972592
10.09,-3.417972565,3.599831581,-1.833805919
10.1,-3.402555466,3.600236893,-1.830834746
10.11,-3.672595263,3.89068985,-1.359096408
10.12,-1.228650451,4.933053017,-0.007642332
10.13,0.56707722,5.1277771,0.526896656
10.14,2.091364145,5.111504555,1.821953416
10.15,3.046519756,5.099787712,3.152485371
10.16,3.137939692,4.753008842,3.724009991
10.17,3.164130449,3.865279198,3.599637985
10.18,2.332931995,2.740373611,3.880903721
10.19,2.322652817,2.740316391,3.895390987
10.2,1.811372876,1.595524788,3.758416653
10.21,0.739618719,-0.452066422,1.509130955
10.22,0.04676044,-0.806808472,-0.296515644
10.23,0.046003789,-0.80707264,-0.308930278
10.24,-0.0579018,-0.366671562,-0.368743449
10.25,-0.050905943,-0.366699219,-0.383511424
10.26,0.86967063,0.121685028,0.557817876
10.27,1.053225636,0.315394402,1.300421357
10.28,0.925923586,0.415549278,1.421649933
10.29,0.473504245,0.30021286,1.143018961
10.3,0.182142854,0.208969116,0.845799625
10.31,0.032359064,-0.375394821,0.731958628
10.32,-0.197490066,-1.203802109,0.448124081
10.33,-0.475719363,-2.257065296,0.065253109
10.34,-0.481157273,-3.238343716,-0.210819721
10.35,-0.400338203,-4.17404747,-0.353877157
10.36,-0.40825671,-4.786465168,-0.168903813
10.37,-0.322999656,-5.250284672,0.125839666
10.38,0.023617327,-5.457800865,0.014135122
10.39,0.040368259,-5.456973076,0.002670318
10.4,0.391138881,-5.511154652,-0.095995009
10.41,0.196301237,-5.172512054,-0.127388582
10.42,0.409959763,-4.915171623,-0.446088105
10.43,0.430751801,-4.914031982,-0.454512835
10.44,0.305993199,-4.12761879,-1.021078944
10.45,0.518259823,-3.563903809,-0.963269293
10.46,0.780169308,-3.024364948,-1.014140248
10.47,0.785927415,-3.023844242,-1.022854328
10.48,0.684984863,-1.747332573,-0.925297976
10.49,0.518774271,-1.179536819,-0.725491703
10.5,0.153335601,-0.705033302,-0.370679617
10.51,0.106192112,-0.22800827,0.127219066
10.52,0.196451783,0.079014778,0.443667889
10.53,0.312886089,0.44096756,0.056253135
10.54,0.131285906,0.812197685,-0.610911906
10.55,0.129689276,0.812026978,-0.607588291
10.56,0.02346921,2.169161797,-1.994206786
10.57,0.059996486,3.121517181,-1.451240063
10.58,0.133404285,3.934973717,-1.275699735
10.59,-0.187913597,4.413220406,-1.490051389
10.6,-0.200394869,4.412852287,-1.500952244
10.61,-1.93068862,4.733805656,-1.838629246
10.62,-1.753290534,4.920900345,-0.621822953
10.63,-0.587017596,5.424097061,1.666448832
10.64,-0.439410031,5.110697746,1.7271806
10.65,-0.439450085,5.110800743,1.723862886
10.66,-0.209369123,4.407157898,2.234054804
10.67,-0.713507652,3.380630493,1.792206168
10.68,-1.446388483,1.96155262,1.670879245
10.69,-0.893003225,0.908853531,2.927205086
10.7,0.568644226,-0.366807938,4.689307213
10.71,1.499839306,-1.175897598,5.38298893
10.72,1.081879616,-0.888278961,4.853169918
10.73,0.462782413,-0.152503014,3.713674307
10.74,0.052986532,0.741451263,2.161897898
10.75,-1.119208097,1.805430412,0.957433581
10.76,-2.241768599,2.869570732,0.408436358
10.77,-2.52874589,3.376022339,0.615012109
10.78,-2.296891451,3.473126411,1.461584687
10.79,-2.288071632,3.474654198,1.442798138
10.8,-2.256006479,3.138807297,2.377430439
10.81,-2.154400587,1.356805801,1.53329587
10.82,-1.402825356,0.062316895,-0.203475863
10.83,-0.506438077,-1.348070145,-1.345734119
10.84,0.233729094,-2.68239069,-1.292600751
10.85,0.772259593,-3.681463242,-0.856243014
10.86,0.747842372,-3.682074547,-0.86659956
10.87,1.521406293,-5.102382183,-0.159245133
10.88,1.574878216,-5.464531898,-0.012560248
10.89,1.521935582,-5.733468056,-0.019942641
10.9,1.174868584,-5.777530193,-0.258666724
10.91,0.511761069,-5.721133709,-0.150337398
10.92,0.478940725,-5.722074032,-0.15089798
10.93,0.146257907,-5.586476803,-0.190638512
10.94,0.026439741,-5.420009613,-0.705043137
10.95,-0.14339076,-5.084008217,-1.143491149
10.96,-0.504640997,-4.573306561,-1.306959629
10.97,-0.972691178,-3.961850166,-1.157161474
10.98,-1.075720668,-3.3861413,-1.202093363
10.99,-0.979233384,-2.678783417,-1.326372504
11,-0.883020043,-1.988407612,-1.643571615
11.01,-0.703547776,-1.156937599,-1.789072752
11.02,-0.921906889,-0.576888084,-1.676711559
11.03,-0.909755826,-0.578442574,-1.634173512
11.04,-1.436249852,0.150665283,-1.238033295
11.05,-1.700418711,0.9759655,-0.524573326
11.06,-1.660771012,1.609954834,0.05324775
11.07,-1.005325079,2.382728577,-0.375494093
11.08,-0.895395696,2.602343559,-1.272111058
11.09,-0.388152152,2.853160858,-1.29078269
11.1,0.073647141,3.132826805,-0.540260494
11.11,-0.300205857,3.302329063,-0.684668362
11.12,-0.708525062,3.471934319,-1.087390423
11.13,-1.826644182,3.581816673,-1.542582273
11.14,-1.827838898,3.581749916,-1.537614465
11.15,-3.379490376,3.586788177,-1.835956097
11.16,-2.459574461,4.547393799,-0.093307301
11.17,-0.145406097,4.511861801,0.987099886
11.18,0.967503905,4.48088932,1.287861586
11.19,1.640282273,4.382949829,1.614399433
11.2,2.165233374,4.079266548,2.151568651
11.21,2.164470434,3.4046278,2.6791749
11.22,1.940527439,2.720341682,3.264183283
11.23,1.915748358,1.595191002,3.613153219
11.24,2.079737425,0.701760292,3.189966917
11.25,1.915833354,0.073914528,2.280146599
11.26,1.909732103,0.073554993,2.268702269
11.27,0.475226253,0.372805595,0.056089625
11.28,0.378733665,0.772900581,-0.440066457
11.29,0.677089989,1.1323843,-0.561928868
11.3,1.253292203,1.479627609,-0.12182153
11.31,1.529359341,1.488990784,0.64489311
11.32,1.524262547,1.488548279,0.608577907
11.33,1.615840673,0.863103867,2.122380733
11.34,0.997085333,0.477246285,1.979101658
11.35,0.01388371,0.010430336,1.416157126
11.36,-0.536052048,-0.81026268,0.403655112
11.37,-0.788847446,-1.879765034,-0.361738831
11.38,-1.140818238,-2.786319733,-0.591014862
11.39,-1.276093245,-3.661590576,-0.33846134
11.4,-0.967734098,-4.527167797,-0.258096963
11.41,-0.743508101,-5.09819603,-0.219604433
11.42,-0.722003222,-5.096843719,-0.237271041
11.43,-0.344115377,-5.729746342,-0.111047253
11.44,0.382160187,-6.091848373,0.584978342
11.45,0.716616094,-5.977389336,0.367388159
11.46,0.780923128,-5.637841702,-0.065081269
11.47,0.790071845,-5.159370422,-0.40982306
11.48,0.886765242,-4.668869972,-0.74029392
11.49,1.281819582,-3.974908352,-0.871070147
11.5,1.233320713,-3.357650757,-0.425286174
11.51,1.246269822,-3.35586834,-0.446334213
11.52,0.928235292,-2.236488819,-1.254904151
11.53,0.929831862,-2.235830784,-1.266010761
11.54,0.590187073,-0.920829773,-0.646353245
11.55,0.593790054,-0.920433998,-0.649751604
11.56,-0.172808588,0.281651497,-0.984923363
11.57,-0.267138958,0.837309837,-0.681102037
11.58,-0.134033859,1.088785172,-1.009964824
11.59,0.277317762,1.488401413,-0.9550879
11.6,0.453424513,2.076972008,-0.726239562
11.61,0.470769763,2.756484985,-0.598431706
11.62,0.340588331,3.680196762,-0.675493896
11.63,-0.047146857,4.452965736,-1.116062641
11.64,-0.318231523,4.610467911,-1.618462801
11.65,-0.543199122,4.47120285,-1.545753002
11.66,-0.740333021,4.126304626,-1.040422678
11.67,-0.749930322,4.12639904,-1.052874684
11.68,-1.277920246,3.874939919,-0.061680049
11.69,-1.268638372,3.874640465,-0.045640796
11.7,0.128477424,4.541956902,2.126173258
11.71,0.169536471,4.21304512,1.637419581
11.72,0.189153612,4.212203979,1.686075807
11.73,0.0906744,3.488683701,1.087828875
11.74,-0.093716383,1.372339249,2.597452641
11.75,0.16633594,0.127680779,3.77648592
11.76,0.591425061,-0.724537849,4.271040916
11.77,0.622941375,-1.016792297,4.267990112
11.78,0.268219411,-0.607726097,3.823546886
11.79,-0.42105788,0.253842354,2.902522802
11.8,-1.273894072,1.335645676,1.800625801
11.81,-1.873836279,2.297826767,0.677573085
11.82,-2.131529331,3.154680252,0.354614258
11.83,-2.413133383,3.666786194,0.928781152
11.84,-2.425196648,3.666855812,0.912310541
11.85,-2.240254164,3.023306847,2.353591442
11.86,-1.518250942,1.967992783,2.048804045
11.87,-1.517043948,1.968150139,2.046744823
11.88,-0.22756213,-0.44803524,0.07083714
11.89,0.229315013,-1.610023499,-0.574059725
11.9,0.50025779,-2.563912392,-0.780688047
11.91,0.687777638,-3.24467802,-0.706669688
11.92,1.141049027,-3.966134071,-0.540826857
11.93,1.928381681,-4.635027409,-0.251386434
11.94,1.895306468,-4.636006832,-0.263493627
11.95,1.255443931,-5.319245815,0.94246304
11.96,0.795652151,-5.111834526,0.391838551
11.97,0.660639226,-4.938324451,0.079636931
11.98,0.630810499,-4.939658642,0.08634901
11.99,0.16182752,-4.902685642,-0.406607688
12,0.030668974,-4.930420876,-0.346563637
12.01,0.008544907,-4.979688168,-0.563806057
12.02,0.0496227,-5.062573433,-1.135563135
12.03,-0.198516056,-4.92513895,-1.501815438
12.04,-0.417935282,-4.543245316,-1.788807511
12.05,-0.661281824,-3.718252182,-1.955160618
12.06,-0.783412218,-2.787816048,-1.741536498
12.07,-0.834038675,-1.749677658,-1.298582554
12.08,-1.026780725,-0.632390976,-0.940424919
12.09,-1.531632304,0.386916161,-0.239488408
12.1,-1.446324706,1.064061165,0.144193217
12.11,-0.860174179,1.47070694,0.095352754
12.12,-0.746891379,1.894146919,-0.423703343
12.13,-0.733112991,1.89392662,-0.377396941
12.14,-0.939142108,2.655353546,-1.931395173
12.15,-1.014460325,2.847241402,-2.269352913
12.16,-0.986450791,3.139900208,-1.858534098
12.17,-0.996301115,3.39426899,-1.304373384
12.18,-0.991770208,3.394714355,-1.277955413
12.19,-1.377241135,3.615307808,-0.776986599
12.2,-3.296253204,3.321193695,-1.332674026
12.21,-3.983016014,3.365039825,-1.632232428
12.22,-3.026110649,3.948132515,-0.92358464
12.23,-2.999923229,3.949721336,-0.890816331
12.24,0.514183462,4.399107933,0.19313553
12.25,1.737407446,4.307154655,1.375538945
12.26,1.737334728,4.308186531,1.4057827
12.27,3.123720407,3.459095001,3.885825157
12.28,2.931622982,2.387290955,4.10766077
12.29,2.248020887,1.214579582,4.014455318
12.3,2.145785332,0.390893936,3.320916891
12.31,2.010214567,-0.172110558,1.961094499
12.32,1.374201536,-0.055110931,0.415908724
12.33,0.942727983,0.447422028,-0.472298741
12.34,0.377240509,1.275524139,-0.752742648
12.35,0.250454605,2.094130516,-0.506333172
12.36,0.255396158,2.093823433,-0.517632008
12.37,0.956079006,2.866383553,1.220959425
12.38,1.240034342,2.645038605,2.198128939
12.39,0.989041567,1.863292694,1.333038568
12.4,0.639893174,0.947684288,0.232151717
12.41,0.637329459,0.946809769,0.204218
12.42,-0.26970464,-0.842531204,-0.322545409
12.43,-0.292570114,-1.899132729,-0.504576445
12.44,-0.339805663,-2.914803982,-0.095076084
12.45,-0.570200741,-3.638138294,0.480553359
12.46,-0.374712318,-4.502429485,0.453738511
12.47,-0.361323237,-4.502182484,0.431098789
12.48,-0.36421603,-5.076352596,0.315447569
12.49,-0.161896646,-5.475522995,0.247948855
12.5,-0.049761593,-5.723655224,0.711629629
12.51,-0.025536954,-5.722686291,0.697086155
12.52,0.580193996,-5.501365662,0.215275556
12.53,0.715031624,-5.306283951,-0.108048871
12.54,0.809817195,-4.969827652,-0.298760563
12.55,0.834780693,-4.968513489,-0.309583575
12.56,0.771097183,-4.557700157,-0.418281823
12.57,0.580240428,-3.948092461,-0.507680953
12.58,0.372380018,-2.708884716,-1.216722131
12.59,0.049193859,-1.905591488,-0.981327176
12.6,0.013611794,-1.174222946,-1.13549757
12.61,-0.091852129,-0.493323326,-1.095764041
12.62,0.044821084,-0.028037071,-1.055695653
12.63,0.054480016,-0.0274086,-1.052947283
12.64,0.319844157,0.571602821,-0.272396117
12.65,0.374554873,0.978957176,-0.510558009
12.66,0.250732958,1.567975998,-0.875537098
12.67,0.047862709,2.274153709,-0.858708859
12.68,0.043837368,2.273851395,-0.856494069
12.69,0.00424844,3.140143394,-1.067594409
12.7,-0.19369024,4.248239517,-1.335997581
12.71,-0.284783244,4.324342728,-1.41966629
12.72,-0.290083945,4.323975563,-1.414998889
12.73,-0.465733409,4.029384613,-1.519911766
12.74,-0.547074378,4.216405869,0.384746373
12.75,-0.093268692,4.712532043,1.004650831
12.76,0.165678918,4.701207161,0.588330507
12.77,0.180232644,4.702281952,0.623404741
12.78,-0.170746386,3.971216202,1.80922091
12.79,-0.632959187,2.749938011,2.043062687
12.8,-0.397783577,1.308637619,2.2359128
12.81,0.358400792,-0.125995636,3.747912407
12.82,0.873860896,-1.075901985,5.118894577
12.83,0.862053573,-1.077102661,5.102641582
12.84,0.792468131,-1.131495476,5.046844482
12.85,0.380876452,-0.503641129,4.666322231
12.86,-1.183976293,1.304833412,1.77712667
12.87,-2.028743505,2.474514008,0.469828785
12.88,-2.571297169,3.465064049,0.213456512
12.89,-2.862905741,3.857381821,0.885114849
12.9,-3.154609203,3.613024712,1.650288582
12.91,-2.399354219,2.712897301,1.582141995
12.92,-2.401504993,2.712882996,1.554707527
12.93,-1.242049217,1.589538574,0.922232688
12.94,-0.622682095,0.657661438,0.500331283
12.95,-0.123483658,-0.317417145,0.407525778
12.96,0.460035741,-1.137133598,0.227723077
12.97,0.655745506,-2.490843296,0.450582981
12.98,0.903152406,-3.274866104,0.420594275
12.99,1.068737626,-3.822164536,0.335885495
13,0.988670588,-4.292953968,0.1708152
13.01,0.960082173,-4.294458866,0.171112716
13.02,0.383491218,-4.844194412,-0.247650012
13.03,0.279280484,-5.092140675,-0.330364555
13.04,0.256275743,-5.093451023,-0.314006686
13.05,0.342471808,-5.362943172,-0.359984249
13.06,0.170846969,-5.419226646,-0.47845763
13.07,0.095561802,-5.369978428,-0.851401091
13.08,-0.116957277,-5.188905239,-1.050836802
13.09,-0.266913474,-4.90469408,-1.062794924
13.1,-0.290567011,-4.428788662,-1.043227434
13.11,-0.317920774,-3.842672825,-1.143032312
13.12,-0.598952293,-3.163043976,-1.123538613
13.13,-0.937348008,-2.301236629,-1.028913379
13.14,-0.937026501,-2.301126003,-1.001389384
13.15,-1.261015654,-0.718193054,-0.946736991
13.16,-1.022794008,-0.145512581,-0.746880293
13.17,-1.071799636,0.463129997,-0.383100331
13.18,-1.101981759,1.146114349,-0.217406273
13.19,-1.226673365,1.738235474,-0.415191889
13.2,-1.292940259,2.232334137,-0.98233366
13.21,-1.25468421,2.664282799,-1.37763238
13.22,-1.220679402,3.100870132,-1.407737017
13.23,-1.027762413,3.482149124,-1.160508394
13.24,-1.222970963,3.592535019,-0.700153172
13.25,-1.669485569,3.523040771,-0.377180517
13.26,-2.840623617,3.19717598,-1.08055532
13.27,-3.553976059,2.62515831,-1.593974352
13.28,-2.820625067,2.836668968,-0.856876254
13.29,-1.615865707,3.489200592,-0.113694787
13.3,-0.216208249,3.931567192,-0.433793813
13.31,1.612546802,4.154118538,0.110909879
13.32,2.304732323,4.060527802,1.584699154
13.33,2.302073717,4.06255722,1.628728271
13.34,2.490584135,2.783759117,2.818317413
13.35,2.173101902,1.591105461,2.753513336
13.36,1.801166534,0.625351906,2.26791954
13.37,1.341001391,0.044405937,1.264188766
13.38,1.329964399,0.045014381,1.279679775
13.39,1.117293954,0.450033188,-0.170160949
13.4,1.18482697,1.237812996,-0.060471058
13.41,1.358917952,2.008440971,0.10483098
13.42,1.659839988,2.745205879,0.605319381
13.43,1.875079393,3.232282639,1.318975687
13.44,1.942182064,3.046108246,1.903468132
13.45,1.827429056,2.667998314,2.306869984
13.46,1.812450409,2.665447235,2.270453691
13.47,0.686285019,1.164022446,0.745594144
13.48,0.163685054,0.256541252,-0.04736492
13.49,-0.760758996,-0.497441292,-0.427175373
13.5,-1.246771336,-1.435396194,-0.632043481
13.51,-1.271407485,-2.334591866,-0.608955979
13.52,-1.157136083,-3.312379837,-0.228855044
13.53,-0.902344048,-4.179663658,0.155440435
13.54,-0.62167275,-4.840617657,0.508286893
13.55,-0.600445271,-4.840445995,0.489990771
13.56,-0.221889645,-5.507972717,0.647665501
13.57,0.481997699,-6.172830582,0.206272736
13.58,0.508852124,-6.171964645,0.200291336
13.59,0.890812039,-6.068029404,0.117075272
13.6,0.934933364,-5.650351048,0.168789238
13.61,1.099773884,-5.251801014,0.133367077
13.62,1.175758839,-4.527681828,0.122568622
13.63,1.055672884,-3.877751827,-0.24229148
13.64,0.906919479,-3.347556591,-0.463102967
13.65,0.679794908,-2.774469376,-0.997389078
13.66,0.340444922,-2.13929081,-1.70627439
13.67,0.351232588,-2.138623238,-1.704221606
13.68,0.336191863,-1.479706764,-2.09933567
13.69,0.633937597,-0.77794075,-1.009198308
13.7,0.510778785,-0.095351219,0.026644766
13.71,0.425490797,0.486736298,-0.235412106
13.72,0.435282052,0.922621727,0.005393744
13.73,0.405104607,1.827667236,-1.048108697
13.74,0.404175788,1.827641487,-1.046131253
13.75,0.194508225,3.110793114,-0.983714759
13.76,-0.07206279,3.677866936,-0.829587936
13.77,-0.449975193,4.060498238,-1.105881691
13.78,-0.812066376,4.060111046,-1.403993845
13.79,-0.815146506,4.059885025,-1.40732801
13.8,-0.837022364,3.707889557,-1.673698664
13.81,-0.852132499,3.497473717,-0.074414968
13.82,-0.042201519,4.369572639,1.333073497
13.83,0.191904098,5.107916832,1.46346271
13.84,0.319776416,5.202795982,0.686508954
13.85,0.164384484,4.984714508,0.636135995
13.86,0.185008168,4.987353325,0.680162787
13.87,0.046548188,3.021974564,2.405562878
13.88,0.212443203,2.023420334,3.25029254
13.89,0.222285718,2.024802208,3.267685652
13.9,0.565220892,0.576330185,3.971500397
13.91,0.829357326,-0.636479378,3.843256474
13.92,0.70952642,-1.055242538,3.495354652
13.93,-0.327556133,-0.406680107,3.134423733
13.94,-1.002211571,0.37822628,3.025127411
13.95,-2.10821104,1.369438171,2.871160507
13.96,-2.973528624,2.225054741,2.560133219
13.97,-3.391990423,2.755934715,2.510010004
13.98,-3.530497074,2.703327179,2.445988417
13.99,-3.516247272,2.703866005,2.431785107
14,-2.838558435,2.256698608,2.523258924
14.01,-1.67908752,0.729782105,1.142617464
14.02,-1.319476247,0.040868759,1.046355486
14.03,-1.306743026,0.041305542,1.019801736
14.04,-0.831161201,-0.59536171,1.017734766
14.05,-0.503639817,-1.162779808,0.873324692
14.06,0.078860164,-2.288347244,0.478721261
14.07,0.552515924,-2.765289307,0.640145481
14.08,0.87360692,-2.842654705,0.853890598
14.09,0.719738483,-2.979969501,0.858953118
14.1,0.633529902,-3.023834229,0.41263321
14.11,0.299693793,-3.014952183,-0.061825171
14.12,0.109368593,-3.125743389,-0.016484827
14.13,0.209328383,-3.382613659,0.373897463
14.14,0.198152334,-3.383369923,0.384978831
14.15,0.024502277,-3.743299484,-0.222548455
14.16,0.1878286,-3.930827618,-0.051603861
14.17,0.317539573,-3.94842577,0.110243604
14.18,0.304358006,-3.949216366,0.129648566
14.19,0.142089218,-3.904378414,-0.439088941
14.2,-0.043439269,-3.732524395,-1.205844522
14.21,-0.33120817,-3.606060028,-0.977687657
14.22,-0.469217718,-3.34301424,-0.44687295
14.23,-0.478354096,-3.343362331,-0.433194548
14.24,-0.081669897,-2.81460619,0.025368318
14.25,-0.091980577,-2.814923763,0.039528951
14.26,-0.344327599,-2.357835293,0.156518892
14.27,-0.27612707,-1.766623497,0.043197192
14.28,-0.129948914,-0.318216324,-0.602941394
14.29,-0.017548025,0.754376411,-0.799179614
14.3,-0.027662009,0.754397392,-0.775186181
14.31,-0.051073104,1.66680336,-0.880906224
14.32,-0.701411128,3.61611557,-0.449966222
14.33,-1.227631211,4.119514465,-0.136794567
14.34,-1.515920162,3.945388794,-0.0190579
14.35,-1.518428802,3.945976257,0.002950519
14.36,-1.448325992,3.120420456,-0.047657162
14.37,-2.084978104,0.906224251,-0.801500559
14.38,-2.532492876,0.275064468,-1.301352262
14.39,-2.51526165,0.276861191,-1.272247195
14.4,-2.708848476,0.658055306,-1.97418654
14.41,-2.669443369,0.662241936,-1.922410727
14.42,-1.081103206,2.705005646,-1.15553093
14.43,-0.352278233,3.603909492,-0.608867288
14.44,0.316627801,4.3568573,0.279220849
14.45,0.919350505,4.499030113,1.497580528
14.46,1.422555923,4.174021721,2.278519154
14.47,1.436084986,4.179369926,2.332049847
14.48,2.612383604,3.420539856,2.285709858
14.49,2.707374096,2.706115723,1.266353846
14.5,2.697154522,2.707643509,1.28856039
14.51,1.066575289,1.174835205,0.32893312
14.52,0.446833223,0.361325264,0.903832376
14.53,0.437926859,0.358675957,0.882008672
14.54,1.238598347,-0.551714897,1.504810333
14.55,1.560069323,-0.348845482,1.222614527
14.56,1.799475908,0.244083405,1.255814433
14.57,2.137766123,0.927274704,1.813519716
14.58,1.948285341,1.38697052,2.123211861
14.59,1.470348358,1.695519447,1.694896579
14.6,0.803466916,1.506329536,2.075089693
14.61,0.484399498,1.027546883,2.707875252
14.62,0.457119346,0.041437149,1.967951298
14.63,0.385176271,-0.670833588,0.846408188
14.64,0.249133602,-1.398991585,0.35232079
14.65,0.283199847,-1.848916054,0.453746587
14.66,0.486293078,-2.200622082,0.628179669
14.67,0.468434155,-2.202773571,0.586678624
14.68,0.923949003,-2.283830643,1.182076454
14.69,0.906908512,-2.285590172,1.139345527
14.7,0.343450815,-1.755391121,0.996012926
14.71,0.439180017,-1.442757607,0.643078864
14.72,0.368195236,-1.187347412,0.495806843
14.73,0.360857159,-1.187949181,0.466215432
14.74,0.264891148,-1.030418396,0.981779218
14.75,0.552123785,-1.033284187,1.240016937
14.76,0.540506125,-1.033695221,1.209764481
14.77,0.60812074,-1.223135948,1.034229159
14.78,0.600990534,-1.357382774,1.174507856
14.79,0.664488733,-1.450834274,1.341191173
14.8,0.775226831,-1.400554657,1.465735793
14.81,0.765054107,-1.208930016,1.435096383
14.82,0.675035954,-0.921432495,1.421042562
14.83,0.510650516,-0.494929314,1.330863714
14.84,0.373960912,0.022719383,1.170766234
14.85,0.467328191,0.492516518,0.895705521
14.86,0.462868571,0.49300766,0.873551011
14.87,0.218726486,1.171033859,0.351700127
14.88,0.215304554,1.122102737,0.024044961
14.89,0.418967843,0.917216301,-0.080590725
14.9,0.38833493,0.736008644,0.00528115
14.91,0.648424566,0.477669716,0.115681559
14.92,0.66660887,0.236047745,0.142688632
14.93,0.670099318,0.236232758,0.139163941
14.94,0.375088722,0.104683876,0.24223879
14.95,-0.133930415,0.028104782,-0.053897232
14.96,-0.359801829,0.025606155,-0.201436967
14.97,-0.348840565,0.025408745,-0.192458719
14.98,-0.377879441,0.015604019,-0.451884806
14.99,-0.366488278,0.015339851,-0.439667732
15,0.010273054,0.213879585,-0.471979678
15.01,0.266090155,0.355057716,0.395125777
15.02,0.679445982,0.441225052,1.408711076
15.03,0.688146591,0.441110611,1.417686462
15.04,0.366795898,0.364203453,-0.132910937
15.05,0.374627888,0.363913536,-0.117913276
15.06,0.228051513,0.189002991,-0.416307032
15.07,-0.124648139,-0.004972458,-0.823108196
15.08,-0.23966831,-0.253919601,-0.319952071
15.09,-0.253245652,-0.452493668,0.353773981
15.1,-0.254525483,-0.452373505,0.348177791
15.11,-0.373971522,-0.734894753,0.36284098
15.12,-0.445998251,-1.029512405,-0.126958534
15.13,-0.300588846,-1.235563278,-0.405811697
15.14,-0.316690207,-1.123134613,-0.316145331
15.15,-0.085364893,-0.910116196,-0.312617272
15.16,-0.07952413,-0.486394882,-0.220478356
15.17,-0.014788032,0.023493767,-0.228830025
15.18,-0.0617522,0.315472603,-0.320088148
15.19,-0.162753761,0.537936211,-0.327329874
15.2,-0.159403861,0.537734985,-0.313425839
15.21,-0.357802868,0.575841904,-0.421745539
15.22,-0.494518936,0.324264526,-0.224291354
15.23,-0.492189616,0.324172974,-0.215144754
15.24,-0.468356788,0.094259262,-0.147690862
15.25,-0.739619851,-0.027840614,-0.085749142
15.26,-0.786773801,-0.116243362,-0.080784209
15.27,-0.775711715,-0.115986824,-0.076562218
15.28,-0.733011723,-0.168278694,-0.18650201
15.29,-0.607219338,-0.218079567,0.200466692
15.3,-0.410475493,-0.217505455,0.237018526
15.31,-0.43107608,-0.216843605,0.019406646
15.32,-0.49639836,-0.266412735,-0.140258655
15.33,-0.462782979,-0.256063461,-0.179942504
15.34,-0.329353273,-0.291208267,-0.178957582
15.35,-0.229327917,-0.2617836,-0.294693589
15.36,-0.216441542,-0.261227608,-0.291492164
15.37,0.001492143,-0.153086662,-0.462221146
15.38,-0.042218775,0.012408257,-0.169120163
15.39,-0.035311133,0.115546227,-0.066753864
15.4,-0.178477258,0.199477196,-0.036578208
15.41,-0.125329226,0.187608719,-0.210390627
15.42,-0.130760253,0.111001015,-0.42614913
15.43,-0.129086763,0.111002922,-0.418316543
15.44,-0.395450771,-0.008688927,-0.604931057
15.45,-0.507545471,0.022518158,-0.505992711
15.46,-0.311371416,0.039451599,-0.122118101
15.47,-0.109112531,-0.025062561,0.046273604
15.48,-0.206385553,-0.262074471,-0.111926958
15.49,-0.15275234,-0.264431953,0.046641055
15.5,-0.018729627,-0.204574585,0.245948121
15.51,-0.122247815,-0.168655396,-0.423502922
15.52,-0.07827872,-0.15427208,-0.67391336
15.53,-0.238843381,0.013439178,-0.116893783
15.54,-0.221814394,0.025554657,0.112297848
15.55,-0.220165491,0.025650024,0.111560181
15.56,-0.042311668,-0.084464073,-0.053043898
15.57,-0.042267501,-0.084454536,-0.052672729
15.58,0.022177398,-0.06054306,-0.085243315
15.59,0.022296965,-0.060540199,-0.083375178
15.6,0.053013355,0.025614738,-0.111900218
15.61,0.075040638,0.030286789,-0.132094428
15.62,0.298945159,0.075563431,-0.140653938
15.63,0.257759541,0.123181343,-0.017708384
15.64,0.252147853,0.12287426,-0.014111236
15.65,-0.060937077,0.031661987,-0.236334115
15.66,-0.117334843,-0.073894501,-0.465368152
15.67,-0.166184127,-0.095636368,-0.39928326
15.68,-0.188578904,-0.114961624,-0.235626414
15.69,-0.170026362,-0.050462723,-0.128355965
15.7,-0.172875047,-0.050601006,-0.122658044
15.71,-0.035768807,0.025815964,-0.09479557
15.72,-0.082133263,0.028051376,-0.138457969
15.73,-0.111318588,0.027931213,-0.091582164
15.74,-0.133072496,-0.032028198,-0.157851026
15.75,-0.149909198,-0.0417099,-0.196906656
15.76,-0.157039642,-0.013063431,-0.188143432
15.77,-0.159040749,-0.013139725,-0.182115257
15.78,-0.282236546,0.027542114,-0.109578714
15.79,-0.267915934,0.046720505,-0.12604478
15.8,-0.140609324,0.097047806,-0.182748213
15.81,-0.209515154,0.140208244,-0.195832744
15.82,-0.064944744,0.164250374,-0.107667409
15.83,0.044908077,0.137951851,-0.072238073
15.84,-0.049093813,0.135573387,-0.020130061
15.85,-0.073291957,0.073394775,-0.106156997
15.86,-0.20209828,0.032794952,-0.214934841
15.87,-0.200847685,0.032948494,-0.205069274
15.88,-0.273250282,-0.069777489,-0.448492974
15.89,-0.387949616,-0.067136765,-0.58392942
15.9,-0.309485525,-0.066785812,-0.431744278
15.91,0.005573422,-0.032928467,0.306770533
15.92,0.047228843,-0.039962769,0.301315427
15.93,0.047225624,-0.039841652,0.308460027
15.94,-0.095587939,-0.235972405,-0.111232773
15.95,-0.056495428,-0.283733368,0.082702182
15.96,-0.055347711,-0.283630371,0.085461698
15.97,-0.330045551,-0.192398071,-0.555302799
15.98,-0.192996502,0.114356041,-0.199041784
15.99,-0.264709652,0.100189209,0.145052105
16,-0.142217398,0.040560722,0.153931722
16.01,-0.140309513,0.040754318,0.15913105
16.02,-0.357594162,-0.033159256,-0.202553719
16.03,-0.271234363,-0.092573166,-0.251484633
16.04,-0.296513289,-0.130367279,-0.258446813
16.05,-0.188797474,-0.117780685,-0.202627659
16.06,-0.150718987,-0.098012924,-0.101651639
16.07,-0.000517309,-0.066308975,-0.040095776
16.08,0.074059576,-0.017921448,0.092879713
16.09,-0.046548605,0.030380249,-0.024582565
16.1,-0.054797769,0.02361393,-0.304654539
16.11,-0.152481198,-0.031094551,-0.220784366
16.12,-0.150146008,-0.030790329,-0.215176463
16.13,-0.028717577,-0.068874359,-0.163109899
16.14,0.012681305,-0.054364204,-0.15928188
16.15,0.024809599,-0.023103714,-0.170276582
16.16,0.024967968,-0.022997856,-0.166675925
16.17,-0.196831584,-0.041991234,-0.053551763
16.18,-0.195052028,-0.041838646,-0.051467359
16.19,-0.271855593,-0.12786293,-0.042833775
16.2,-0.178509355,-0.108519554,-0.165870667
16.21,-0.184062243,-0.031761169,-0.073087901
16.22,-0.166834414,0.025756836,0.073689997
16.23,0.028697968,0.018549919,0.028916001
16.24,0.026222229,0.01845932,0.030254543
16.25,-0.028891325,0.044703484,0.031360477
16.26,-0.078729153,0.044605255,-0.032753617
16.27,-0.021107733,0.061273575,-0.089321315
16.28,-0.024003208,0.06121254,-0.086627841
16.29,0.073163837,0.025247574,0.044360965
16.3,0.069547087,0.025204659,0.048909724
16.31,0.085215181,0.037161827,0.168589994
16.32,0.03944549,-0.039395332,-0.000158042
16.33,0.058162272,-0.067994118,-0.138722837
16.34,-0.110366881,-0.060761452,-0.333520919
16.35,-0.180610359,0.03746891,-0.536153555
16.36,-0.071364999,0.128442764,-0.146101981
16.37,-0.07568258,0.128325462,-0.143476307
16.38,0.096196532,0.132857323,0.752304554
16.39,-0.000820518,-0.027683258,-0.317764014
16.4,-0.00479877,-0.027510643,-0.308511049
16.41,0.029594481,-0.204691887,0.347416073
16.42,0.144867927,-0.202457428,-0.089312315
16.43,0.139772356,-0.202515602,-0.084965229
16.44,0.156076461,-0.130791664,-0.291572124
16.45,0.129910946,0.024496078,0.165214762
16.46,-0.028729111,0.028867722,0.283773482
16.47,-0.036109567,0.028453827,0.282256067
16.48,-0.059501797,0.028107643,0.096722007
16.49,-0.127628505,-0.019994736,-0.118052542
16.5,-0.151370376,0.00864315,-0.019503325
16.51,-0.066152543,-0.000953674,0.065119833
16.52,0.021328628,0.022989273,0.126181901
16.53,0.063432246,0.03498745,0.319531739
16.54,0.115239799,0.035040855,0.146759778
16.55,-0.05308944,0.03517437,-0.146447301
16.56,-0.136719763,0.023478508,0.034336567
16.57,-0.138776124,0.023719788,0.041758239
16.58,-0.016549647,-0.112520218,0.01527077
16.59,-0.042442948,-0.117101669,0.220193282
16.6,0.008276433,-0.112224579,0.171155542
16.61,-0.008245796,-0.085824013,0.052200437
16.62,-0.120167285,-0.10973835,0.013780326
16.63,-0.121594399,-0.109745979,0.014858782
16.64,-0.265943259,-0.018818855,0.282100409
16.65,-0.144700587,-0.095555305,0.149059802
16.66,-0.145508111,-0.095588684,0.149099559
16.67,-0.198467702,-0.004597664,0.02719146
16.68,-0.197842568,-0.00461483,0.026194245
16.69,-0.130110472,0.024095535,0.089614511
16.7,-0.129913479,0.024009705,0.087771505
16.71,0.046479851,0.02865696,0.13835296
16.72,0.069349736,0.018928528,0.320057809
16.73,-0.044094801,0.013977051,0.231522903
16.74,-0.129983276,-0.038769722,0.251197994
16.75,-0.153277218,-0.053215027,0.270412475
16.76,-0.152384669,-0.053292274,0.267807841
16.77,0.005925655,-0.122813225,0.148414493
16.78,0.031463623,-0.089418411,0.153789967
16.79,0.061482131,0.001423836,0.381386459
16.8,-0.00190562,0.029934883,0.386905193
16.81,-0.002345204,0.029781342,0.383711368
16.82,-0.224083364,0.03456974,-0.148655862
16.83,-0.222623527,0.034607887,-0.148920655
16.84,-0.078423977,-0.032502174,0.136139035
16.85,0.07427007,-0.068645477,0.553011894
16.86,-0.176897854,-0.10705471,0.179201692
16.87,0.009679288,-0.049793243,0.481339902
16.88,-0.038064152,0.03134346,0.443802118
16.89,-0.218538195,0.033581734,-0.02104184
16.9,-0.21580556,0.033662796,-0.021703511
16.91,-0.173222512,0.031319618,0.106496602
16.92,-0.069404751,0.016884804,0.151885003
16.93,-0.13408789,0.016730309,0.301616728
16.94,-0.064408422,-0.045705795,0.344492286
16.95,-0.059420258,-0.000447273,0.209596455
16.96,-0.137590766,0.028162003,0.171923593
16.97,-0.134771317,0.02816391,0.16881977
16.98,-0.100200892,-0.043605804,0.188442245
16.99,-0.096382231,-0.043489456,0.187350377
17,0.029408902,0.018896103,0.31832704
17.01,0.033001959,0.019047737,0.318486631
17.02,-0.116592974,-0.026157379,0.070241839
17.03,-0.112980068,-0.025848389,0.074088573
17.04,-0.069575459,-0.09023571,-0.147420555
17.05,0.035058588,-0.01338768,-0.191452861
17.06,0.016316801,0.034640312,-0.018612146
17.07,-0.002699792,0.13044548,0.312581658
17.08,-0.002717614,0.130435944,0.312455952
17.09,-0.088704854,0.125713348,0.273278296
17.1,-0.175744653,0.066101074,0.129189104
17.11,-0.214029402,0.013770103,0.055717587
17.12,-0.208332896,-0.110337257,0.025625885
17.13,-0.142592162,-0.184184074,0.057165742
17.14,-0.077691078,-0.181559563,0.213181645
17.15,-0.008400083,-0.14788723,0.226255998
17.16,-0.052349359,-0.049645424,0.360371053
17.17,-0.050802439,-0.049654007,0.358678281
17.18,-0.146899968,-0.042441368,0.272988915
17.19,-0.101673305,0.007851601,0.022263467
17.2,-0.066555917,0.034175873,0.079867035
17.21,-0.051017165,0.034116745,0.141881496
17.22,0.083788216,0.041258812,0.214310125
17.23,0.117687404,0.036459923,0.185011834
17.24,0.02218765,0.03652668,0.25077486
17.25,-0.060359061,0.007900238,0.26380831
17.26,-0.094469339,-0.003918648,0.148389727
17.27,-0.124294043,-0.087539673,0.048201859
17.28,-0.144652158,-0.046619415,-0.252287954
17.29,-0.193669915,0.037456512,-0.144253999
17.3,-0.060248524,0.037735939,0.346226692
17.31,0.064533174,0.037823677,0.652042091
17.32,-0.113147914,-0.086669922,0.202430457
17.33,-0.113024861,-0.086539268,0.205440164
17.34,0.002023071,-0.07205677,0.385152131
17.35,-0.04964149,-0.009753227,0.251093209
17.36,-0.123825491,-0.028722763,-0.116307616
17.37,-0.011423558,-0.05236721,0.074823916
17.38,-0.018119723,0.014790535,0.182209671
17.39,-0.04035297,0.036312103,0.134577245
17.4,-0.071228594,0.038559914,0.229387879
17.41,-0.074043363,0.03834343,0.227350235
17.42,-0.017222196,0.105145454,0.098396719
17.43,-0.162090451,0.057195663,-0.074145377
17.44,-0.149794042,0.038129807,-0.050811768
17.45,-0.122683674,-0.009634018,0.142748565
17.46,0.043903351,-0.040603638,0.400755584
17.47,0.044249684,-0.040525436,0.402220398
17.48,0.13017264,-0.026024818,0.324026436
17.49,0.01007548,-0.040204048,0.22765322
17.5,-0.04033199,-0.083077431,0.112850636
17.51,-0.02366358,-0.106753349,-0.041776657
17.52,-0.069631785,-0.137619019,-0.052570373
17.53,0.042318434,-0.060816765,0.145879567
17.54,-0.007067531,-0.039269447,0.283611119
17.55,-0.242257953,0.008624077,0.281934619
17.56,-0.477873445,0.039822578,0.171775788
17.57,-0.539177656,0.039988518,0.014257491
17.58,-0.534813047,0.040239334,0.014977634
17.59,-0.415215522,0.040542603,-0.151063263
17.6,-0.30543673,0.040797234,-0.104622781
17.61,0.08370471,0.043366432,0.328602999
17.62,0.151288211,0.041107178,0.409484625
17.63,0.099289238,-0.016223907,0.430674195
17.64,0.068969041,-0.052028656,0.353060216
17.65,-0.004337609,-0.114156723,0.301588595
17.66,-0.037041545,-0.200260162,0.23798722
17.67,0.04472965,-0.22651577,0.169802427
17.68,0.092066765,-0.197712898,0.16444397
17.69,0.112259388,-0.113880158,0.281415075
17.7,0.112959623,-0.113870621,0.28091529
17.71,-0.085027814,0.041877747,0.050204992
17.72,-0.083968341,0.042010307,0.051757485
17.73,-0.116538644,0.025355339,-0.061840236
17.74,-0.135117114,0.00389576,-0.113579631
17.75,-0.134440482,0.003949165,-0.112975836
17.76,-0.293680549,0.042263985,0.055905938
17.77,-0.065432668,0.039857864,0.363356948
17.78,0.032197982,-0.039214134,0.425125241
17.79,0.052575111,-0.130273819,0.426916897
17.8,-0.044255078,-0.171100617,0.246113539
17.81,-0.044147789,-0.171145439,0.245130956
17.82,-0.085179567,-0.046616554,0.159749597
17.83,-0.125882626,-0.02249527,-0.040216804
17.84,0.014344871,0.035081863,0.250269026
17.85,-0.009551644,0.056612015,0.472234577
17.86,0.140913278,0.070839882,0.484332889
17.87,0.036223114,0.044311523,0.415223986
17.88,-0.089293897,0.041763306,0.298143089
17.89,-0.077574193,0.010532379,0.126373202
17.9,-0.074842632,-0.075655937,-0.007961035
17.91,0.000149727,-0.130599022,-0.020623386
17.92,0.017556727,-0.175947189,0.218503565
17.93,0.068502814,-0.163889885,0.315480411
17.94,0.06904003,-0.163794518,0.317017734
17.95,-0.002175689,-0.055843353,0.059437841
17.96,-0.039757252,-0.043592453,-0.038563937
17.97,-0.038696587,-0.043242455,-0.032686561
17.98,-0.116400421,0.048055649,-0.018228143
17.99,-0.203656972,0.050683975,0.040482968
18,-0.133366466,0.065259933,0.067338943
18.01,-0.041365504,0.067831039,0.318777502
18.02,-0.040511489,0.067925453,0.319756568
18.03,-0.172605574,-0.039579391,0.142967105
18.04,-0.170420587,-0.039307594,0.145907283
18.05,-0.13019377,-0.130077362,-0.007642031
18.06,-0.128792644,-0.129920006,-0.006419778
18.07,-0.051310539,-0.089214325,0.127067477
18.08,-0.007505119,-0.007806778,0.243692488
18.09,0.103270114,0.042510033,0.289160937
18.1,0.103933513,0.042616844,0.290395469
18.11,-0.048347592,-0.024273872,0.249272466
18.12,0.008366764,-0.129426003,0.13412565
18.13,0.090443462,-0.181926727,-0.026308358
18.14,0.054185063,-0.160242081,0.029529661
18.15,0.144063324,-0.057305336,0.253103197
18.16,0.125117272,0.023961067,0.36496371
18.17,-0.020709515,0.045373917,0.182830483
18.18,-0.022092223,0.045391083,0.184371263
18.19,-0.187437475,0.016762733,0.064478576
18.2,-0.163912654,-0.157917023,-0.182396591
18.21,-0.243955135,-0.138713837,-0.132335484
18.22,-0.181891024,-0.02613163,0.069781363
18.23,-0.182395458,-0.026144028,0.070052028
18.24,0.024348676,-0.074087143,0.350854337
18.25,0.165583193,-0.124530792,0.740536094
18.26,0.162483215,-0.124919891,0.736393571
18.27,0.250550926,-0.165959358,0.486350954
18.28,0.155762911,-0.09197998,0.253407866
18.29,-0.020134509,0.044345856,0.019414306
18.3,-0.114527643,0.044313431,0.194499135
18.31,-0.242998898,0.063373566,0.400089979
18.32,-0.165546477,0.032048225,0.304417223
18.33,-0.167362869,0.031837463,0.302342743
18.34,-0.156729221,-0.042527199,0.102297515
18.35,-0.157375693,-0.042675018,0.10024938
18.36,-0.131171048,-0.011621475,0.26635164
18.37,-0.093462706,-0.047375679,0.15277496
18.38,-0.045589268,-0.09258461,0.088801682
18.39,-0.043297112,-0.092294693,0.091976762
18.4,0.034657985,-0.142364502,0.216604084
18.41,-0.021323442,-0.14703083,0.301474571
18.42,-0.015506387,-0.127717018,0.193061084
18.43,0.03741923,-0.115655899,0.120544225
18.44,-0.102959454,-0.08201313,0.124126762
18.45,-0.121417463,-0.060434341,0.229281992
18.46,-0.12318629,-0.026906967,0.138014317
18.47,-0.146820128,-0.002964973,0.092035592
18.48,-0.213066399,0.044920921,0.136785626
18.49,-0.185105264,0.044965744,0.279698014
18.5,-0.183126926,0.045042992,0.279321015
18.51,-0.113374472,-0.007448196,0.188906133
18.52,-0.110515237,-0.007267952,0.189423442
18.53,-0.09059602,-0.052622795,0.260359705
18.54,-0.042449892,-0.052609444,0.121540964
18.55,0.01912719,-0.038253784,0.107801944
18.56,-0.054244816,0.043126106,0.206717223
18.57,-0.053498685,0.043072701,0.205158919
18.58,-0.089018524,0.028687477,0.177650511
18.59,-0.116807878,0.026376724,0.099450171
18.6,-0.178032279,-0.038143158,0.165219605
18.61,-0.140624166,-0.033251762,0.204078645
18.62,-0.024477601,-0.045134544,0.125279754
18.63,-0.0022102,0.019575119,0.178601474
18.64,-0.035216808,0.065155029,0.194347739
18.65,-0.082309425,0.058163643,0.153796405
18.66,-0.150873601,0.04161644,0.063448071
18.67,-0.255257487,0.001159668,-0.102982163
18.68,-0.33522898,0.023019791,-0.199403882
18.69,-0.333471656,0.023322105,-0.195409238
18.7,0.041153967,0.021193504,0.277370453
18.71,0.111264288,-0.024398804,0.418635607
18.72,0.099229276,-0.0891819,0.488227397
18.73,0.140217304,-0.15636158,0.538173974
18.74,0.066779017,-0.118235588,0.316223711
18.75,-0.173448443,-0.123103142,-0.386179686
18.76,-0.199692249,-0.072605133,-0.411016285
18.77,-0.191819906,0.032689095,0.22918269
18.78,-0.086968839,0.04678154,0.488161951
18.79,-0.081416786,0.046429634,0.365827203
18.8,-0.122990608,0.046169281,0.194605023
18.81,-0.125421047,0.046032906,0.194374114
18.82,-0.190725803,0.046050072,0.123512715
18.83,-0.078014791,0.026983261,0.081795186
18.84,-0.027534604,0.000785828,0.151288748
18.85,-0.024869084,-0.018216133,0.247082442
18.86,0.049922198,-0.015655518,0.33335343
18.87,0.049989074,-0.015486717,0.336239189
18.88,-0.040198922,0.032764435,0.109804094
18.89,-0.06287241,-0.0577631,0.058998585
18.9,-0.061766505,-0.057342529,0.06513375
18.91,0.027445972,-0.112053871,0.195523411
18.92,-0.046692133,-0.130862236,0.090951383
18.93,-0.137533724,-0.06825161,0.02977097
18.94,-0.151731014,0.018249512,0.080441594
18.95,-0.17819953,0.049640656,0.113738596
18.96,-0.177981198,0.049941063,0.118330002
18.97,-0.165656209,0.052618027,0.163404316
18.98,-0.196357429,0.050428391,0.207001567
18.99,-0.143355131,0.04576683,0.141867429
19,-0.143807292,0.045873642,0.143913239
19.01,-0.091548026,-0.040269852,0.159329236
19.02,-0.183293223,-0.066664696,0.259515286
19.03,-0.111996055,-0.083599091,0.307773233
19.04,-0.019022882,-0.062232971,0.204403251
19.05,-0.002820373,-0.012075424,0.183918148
19.06,0.023136139,-0.067206383,0.226296097
19.07,0.022922814,-0.067216873,0.226289123
19.08,0.070216447,-0.043244362,0.23913607
19.09,0.069898218,-0.043190956,0.240559965
19.1,0.069487005,-0.023928642,0.1824947
19.11,0.011173904,-0.007077217,0.287724048
19.12,0.009883285,-0.007084846,0.288929313
19.13,0.005394697,-0.028692245,0.303877711
19.14,0.097783059,-0.033615112,0.161177516
19.15,0.029480249,-0.031353951,0.054467976
19.16,-0.118962646,0.050058365,-0.158952773
19.17,-0.082902849,0.05004406,0.235358417
19.18,0.09334442,0.028298378,0.570061207
19.19,-0.042483211,-0.051012039,0.066090345
19.2,-0.10630548,-0.15647316,0.084386408
19.21,0.002773583,-0.175772667,0.389040351
19.22,0.068809122,-0.04681778,0.072672307
19.23,0.068432748,0.03680706,-0.085864842
19.24,0.149136156,0.079751015,0.251730859
19.25,0.044327736,0.096158981,0.438883603
19.26,-0.110724241,0.047905922,0.397732049
19.27,-0.09309876,0.006786346,0.269745469
19.28,-0.10218358,-0.039139748,0.155864388
19.29,-0.165736675,-0.020359039,0.174337685
19.3,-0.113448352,-0.0014925,0.203047425
19.31,-0.060310364,-0.042392731,0.230080098
19.32,0.014800072,0.005396843,0.1865623
19.33,0.013473809,0.005379677,0.187173724
19.34,0.04181084,0.017373085,0.211762935
19.35,-0.05652979,0.019866943,-0.023302794
19.36,-0.006137788,-0.013401031,0.083601236
19.37,0.022156566,-0.058657646,0.128244758
19.38,0.068824828,-0.096819878,0.141284525
19.39,0.038277388,-0.08234787,0.084281325
19.4,-0.055131972,0.025415421,0.155866355
19.41,-0.079388529,0.039684296,0.125429332
19.42,-0.082363158,0.039588928,0.126088679
19.43,-0.142257392,0.029967308,0.033737779
19.44,-0.204258531,-0.013222694,0.045709789
19.45,-0.148654759,-0.06368351,0.178279907
19.46,-0.061733931,-0.05909729,0.245884925
19.47,-0.077996075,-0.023338318,0.211088449
19.48,-0.112598419,0.041223526,0.141039014
19.49,-0.232701212,0.045956612,0.245875031
19.5,-0.119607061,-0.025946617,0.148435235
19.51,-0.105032474,-0.042802811,0.077354074
19.52,-0.002074242,-0.069282532,0.11828655
19.53,0.102511913,-0.043128967,0.240226328
19.54,0.027069807,-0.024169922,0.266569257
19.55,0.021029502,0.035541534,0.238881946
19.56,-0.044566661,0.042607307,0.252163947
19.57,-0.020877868,0.044957161,0.253814101
19.58,0.048120916,0.013743401,0.173738599
19.59,0.047248811,0.013662338,0.172990978
19.6,-0.011233211,0.006392479,0.081373155
19.61,-0.043375254,0.035021782,0.236059398
19.62,-0.044866085,0.034855843,0.234378904
19.63,-0.211133391,0.077918053,-0.014253914
19.64,-0.172609627,0.070837021,0.085314751
19.65,-0.030835956,0.013492584,0.496322155
19.66,0.057965279,-0.142103195,0.300424188
19.67,-0.143113792,-0.089309692,-0.217293382
19.68,-0.141927481,-0.089081764,-0.214220524
19.69,-0.013768345,-0.110593796,0.52495569
19.7,-0.013101995,-0.11066246,0.523276389
19.71,-0.012394428,-0.053125381,-0.093484461
19.72,-0.019489288,-0.043392181,0.00945586
19.73,-0.118807197,0.033151627,0.186491907
19.74,-0.121122778,0.032859802,0.183247805
19.75,-0.033090472,0.054047585,0.354294211
19.76,0.017100245,0.04413414,0.27868703
19.77,-0.085100949,0.03674984,0.130495757
19.78,-0.085095108,0.036801338,0.131281346
19.79,-0.146499515,-0.044423103,0.021156311
19.8,-0.066612244,-0.104089737,0.069079757
19.81,0.021668434,-0.096770287,0.136201799
19.82,0.142677546,-0.020048141,0.105109483
19.83,0.136100352,0.004008293,0.208909005
19.84,0.084204108,-0.01496315,0.248761624
19.85,-0.036892891,-0.019561768,0.14060235
19.86,-0.026106954,-0.055245399,-0.003617227
19.87,-0.061172277,-0.045495033,0.050661325
19.88,-0.043728977,-0.004691124,0.077348411
19.89,-0.118045807,0.026417732,0.190979958
19.9,-0.105980247,0.045410156,0.238012642
19.91,-0.105882287,0.045250893,0.268233955
19.92,-0.186224014,0.006896019,0.131752133
19.93,-0.219684839,-0.024143219,0.087644458
19.94,-0.165946364,-0.045539856,0.046249628
19.95,-0.165137112,-0.045412064,0.047569454
19.96,-0.073487699,-0.119565964,0.022039652
19.97,-0.132372201,-0.030958176,0.091318786
19.98,-0.057107508,0.043266296,0.336978018
19.99,-0.056598961,0.043146133,0.334922254
20,0.034054101,0.040594101,0.425986618
20.01,0.002063423,0.028495789,0.204251468
20.02,-0.065049052,-0.017021179,0.14184016
20.03,-0.072188318,-0.084022522,0.120524347
20.04,-0.07203868,-0.084033966,0.120416164
20.05,0.018364221,-0.115174294,0.120592713
20.06,0.003199816,-0.079294205,0.199522525
20.07,-0.100518882,-0.00521946,0.343926102
20.08,-0.100791842,-0.005400658,0.34114787
20.09,-0.077411085,-0.02469635,0.264922768
20.1,-0.11858809,0.044664383,-0.023176968
20.11,-0.106878579,0.07334137,0.007294536
20.12,-0.0665012,0.054180145,0.210690409
20.13,0.103013307,0.030241966,0.38852489
20.14,0.102015525,0.030309677,0.390077949
20.15,-0.075959593,-0.074903488,0.115337193
20.16,-0.186204076,-0.086787224,0.281770229
20.17,-0.125469238,0.008921623,0.416689634
20.18,-0.123921126,0.008832932,0.414457977
20.19,-0.171772242,-0.02680397,0.072280586
20.2,0.011433899,0.045257568,0.115697742
20.21,-0.138502896,0.095614433,0.12853542
20.22,-0.187590271,0.110014916,0.054044008
20.23,-0.095646024,0.131563187,0.144250184
20.24,-0.040370166,0.097957611,0.173853695
20.25,-0.079926282,0.064488411,0.233750314
20.26,-0.144167274,0.045537949,0.235115737
20.27,-0.211887509,0.036231995,0.258121431
20.28,-0.206364632,0.036601067,0.26014328
20.29,-0.119470358,-0.128234863,0.293422252
20.3,-0.124267817,-0.156558037,0.155186087
20.31,-0.024605691,-0.108260155,0.062959671
20.32,-0.021950781,-0.107924461,0.066335857
20.33,0.030151248,-0.055048943,0.101609886
20.34,0.030881315,-0.055005074,0.10186702
20.35,-0.119661659,0.043081284,0.248869479
20.36,-0.11935389,0.042808533,0.244469166
20.37,-0.078564703,-0.02455616,0.263244212
20.38,-0.033232778,-0.039269447,0.248351455
20.39,-0.066665232,-0.046765327,0.367774248
20.4,-0.066044778,-0.047066689,0.362553895
20.41,-0.086382449,-0.028211594,0.407197654
20.42,-0.162764281,-0.009194374,0.364401341
20.43,-0.093402296,-0.0427742,0.155961514
20.44,-0.076778919,0.036195755,0.187076092
20.45,-0.014945507,0.045711517,0.079334378
20.46,-0.101769865,0.052927971,0.078500807
20.47,-0.125534684,0.098529816,0.102105737
20.48,-0.149146974,0.108258247,0.181480974
20.49,-0.14621675,0.108465195,0.182566434
20.5,-0.060033172,0.103899002,0.186758697
20.51,-0.081426561,0.046691895,0.232071549
20.52,0.026263446,0.034963608,0.358582288
20.53,0.026554167,-0.050963402,0.224249154
20.54,0.029093921,-0.050681114,0.227029115
20.55,-0.02134347,-0.100673676,0.083649576
20.56,-0.027168453,-0.074170113,0.023049712
20.57,-0.072030425,-0.086029053,-0.009117544
20.58,-0.244242281,0.002575874,-0.145520508
20.59,-0.259980738,0.050488472,-0.014243364
20.6,-0.091597646,0.098312378,0.364802659
20.61,0.123657942,0.062215805,0.515452087
20.62,0.121881872,0.061974525,0.51278609
20.63,0.096506745,0.006728172,0.362877429
20.64,0.052122384,-0.058159828,0.431758523
20.65,0.1088292,0.022940636,0.324340642
20.66,0.10818857,0.022746086,0.321664155
20.67,0.067103893,-0.101665497,-0.028596222
20.68,0.013287693,0.010848999,0.484288275
20.69,0.045073867,0.010541916,0.487959921
20.7,0.002506584,0.00302124,0.282578498
20.71,-0.099421948,0.038628578,0.175873756
20.72,-0.195226789,-0.026186943,0.124963403
20.73,-0.194330126,-0.026255608,0.12318939
20.74,-0.157633334,-0.150774956,0.129460901
20.75,-0.105422646,-0.112358093,0.019524753
20.76,-0.103034288,-0.112159729,0.02088201
20.77,-0.078796685,-0.07361412,0.171106935
20.78,0.055259228,-0.042253494,0.213778883
20.79,0.012159586,0.056224823,0.16434601
20.8,0.01478377,0.056642532,0.168945581
20.81,-0.063810587,0.037903786,0.056213439
20.82,-0.061234593,0.038345337,0.061544299
20.83,-0.042492568,0.048345566,-0.057997704
20.84,-0.009588003,0.053452492,0.257253766
20.85,-0.030217588,0.024938583,0.326906294
20.86,-0.222539663,-0.022686005,0.461385429
20.87,-0.188332796,-0.156497955,0.374781698
20.88,-0.151490808,-0.263957977,0.134372145
20.89,-0.16725713,-0.237384796,0.082853734
20.9,-0.154229879,-0.174919128,-0.077255845
20.91,-0.158816278,-0.067062378,-0.027160764
20.92,-0.001069546,0.047909737,0.13202408
20.93,-0.0671646,0.057452202,0.217004478
20.94,-0.078020453,0.071879387,0.121303052
20.95,-0.076993465,0.071990013,0.122147709
20.96,-0.068947017,0.050628662,0.064573407
20.97,-0.008665144,0.024375916,0.185473681
20.98,0.029474258,0.012488365,0.203464627
20.99,0.028698325,0.012552261,0.205025315
21,0.046798944,-0.001781464,0.206472576
21.01,0.04592216,-0.001662254,0.209255457
21.02,-0.128790915,0.000847816,0.246860623
21.03,-0.1122455,-0.147575378,0.110931754
21.04,-0.1108917,-0.228973389,-0.046193182
21.05,-0.248878658,-0.226640701,-0.122569144
21.06,-0.237938106,-0.066307068,0.001418173
21.07,-0.111833334,-0.018594742,0.155101329
21.08,-0.027493179,-0.006860733,0.318114936
21.09,-0.017600119,0.045557976,0.284538478
21.1,-0.131718576,0.050110817,0.394660533
21.11,-0.184715867,0.004390717,0.209444583
21.12,-0.080770433,0.04981041,0.037495255
21.13,-0.079532087,0.049860001,0.037278414
21.14,0.220018238,0.050045013,0.171686202
21.15,0.096944869,0.054997444,0.429001093
21.16,0.096048474,0.055080414,0.430978537
21.17,-0.01021558,0.11493206,0.493828237
21.18,-0.135866463,-0.033479691,-0.069709659
21.19,-0.162570834,-0.107598305,0.018335462
21.2,-0.16473949,-0.157828331,0.277491093
21.21,-0.105970204,-0.188814163,0.285667598
21.22,-0.108592212,-0.236446381,0.218702644
21.23,-0.105688572,-0.236058235,0.22208181
21.24,-0.045585454,-0.238084793,0.070181429
21.25,0.092090935,-0.094177246,0.125739515
21.26,0.092414469,-0.093947411,0.128705382
21.27,0.127872318,0.037904739,0.088781774
21.28,0.050567865,0.057244301,0.108775258
21.29,-0.102937818,0.050204277,0.060997248
21.3,-0.086751878,0.052703857,0.024627149
21.31,-0.075835884,0.047913551,0.001464128
21.32,-0.117463231,0.002371788,0.116502106
21.33,-0.017600775,-0.052798271,0.261344701
21.34,-0.039961755,-0.107965469,0.262820691
21.35,-0.092893541,-0.096058846,0.207365423
21.36,-0.092253149,-0.096012115,0.207322747
21.37,-0.055345654,-0.098385811,0.168499976
21.38,0.028972149,-0.119969368,0.131813109
21.39,0.029024422,-0.120014191,0.131097078
21.4,-0.045128822,-0.100930214,0.072336257
21.41,-0.014720201,-0.048392296,0.104372621
21.42,-0.063916445,-0.000695229,0.231927991
21.43,-0.134379208,-0.029600143,0.167847872
21.44,-0.151767492,-0.046437263,0.100233018
21.45,-0.152313113,-0.046478271,0.100068748
21.46,-0.081279516,-0.084817886,0.052214801
21.47,-0.082096696,-0.08489418,0.051764131
21.48,-0.004093945,0.022709847,0.229989201
21.49,0.052023083,0.036885262,0.383909673
21.5,0.050173074,0.036705017,0.382404536
21.51,-0.076011777,0.010246277,0.30537504
21.52,-0.144221664,-0.052128792,0.136863351
21.53,-0.144604504,-0.052149773,0.136904836
21.54,-0.284873664,0.050858498,-0.021073997
21.55,-0.162149787,0.022130013,-0.035978019
21.56,0.052487075,0.045995712,0.372915745
21.57,0.088014305,-0.009381294,0.724691272
21.58,0.192746967,-0.062492371,0.67728579
21.59,-0.06404534,-0.151515961,0.273112357
21.6,-0.076049417,-0.139652252,-0.265040636
21.61,-0.114763528,-0.060606003,-0.424303711
21.62,0.003324956,0.039957047,0.113063633
21.63,0.12655744,0.111411095,0.567351043
21.64,0.104409427,0.137125015,0.566684842
21.65,-0.008204639,0.098334312,0.472030401
21.66,-0.011334181,0.097974777,0.468753576
21.67,-0.180746913,0.009232521,0.048555493
21.68,-0.18590045,-0.064985275,0.065646291
21.69,-0.115891963,-0.050528526,0.119397014
21.7,-0.103199244,-0.012095451,0.19741255
21.71,-0.020995438,-0.004751205,0.304669112
21.72,-0.020941079,-0.004626274,0.306626648
21.73,0.109714389,0.048121452,0.215059608
21.74,0.005828559,0.048329353,0.03246218
21.75,-0.131311446,0.029472351,0.094989598
21.76,-0.155307412,-0.022921562,0.152165651
21.77,-0.110153765,0.010787964,0.14340505
21.78,-0.111048073,0.010914803,0.145876974
21.79,-0.148170412,0.010985374,0.157519192
21.8,-0.09882614,0.037345886,0.201692849
21.81,-0.126199216,0.018196106,0.185880452
21.82,-0.195869058,-0.019985199,0.168655187
21.83,-0.29506579,-0.070092201,0.194527388
21.84,-0.2639561,-0.10098362,0.188916951
21.85,-0.189306647,-0.160615921,0.132757843
21.86,-0.145543695,-0.124441147,0.110594928
21.87,-0.03488338,-0.052340508,-0.01453048
21.88,-0.006884009,-0.013752937,-0.00180459
21.89,-0.05162853,0.055903435,0.19249168
21.9,0.053961009,0.07040596,0.23729831
21.91,0.031204641,0.082396507,0.231217355
21.92,-0.032256484,0.065641403,0.215511888
21.93,-0.025500357,0.041789055,0.061496139
21.94,-0.102324098,-0.022667885,0.081344664
21.95,-0.135391533,-0.020039558,0.153786004
21.96,-0.10855329,-0.003063202,0.175721943
21.97,-0.062668383,0.004313469,0.264546186
21.98,0.111854196,0.026005745,0.249901623
21.99,0.017125458,-0.009710312,0.184243679
22,-0.074599355,-0.050139427,0.006634712
22.01,-0.074099302,-0.04973793,0.012126267
22.02,-0.23343575,0.020181656,-0.065541685
22.03,-0.055124611,-0.017715454,0.549972057
22.04,0.039538145,-0.113379479,0.403658748
22.05,0.008760124,-0.158772469,0.044959962
22.06,0.001269937,-0.225730896,0.186849296
22.07,0.099361062,-0.149228096,0.514954925
22.08,0.051501334,-0.003515244,0.217383385
22.09,0.11429733,0.077785492,-0.019911647
22.1,0.049681216,0.111326218,0.132895112
22.11,-0.122728705,0.104114533,0.134058893
22.12,-0.12545228,0.104049683,0.134804189
22.13,-0.140584767,0.044049263,0.23309803
22.14,-0.13887313,-0.016023636,0.234481663
22.15,-0.021137118,0.019694328,0.197161734
22.16,-0.06317541,0.053174019,0.331465632
22.17,-0.099252909,0.031699181,0.318407565
22.18,-0.096281707,-0.023142815,0.115203321
22.19,-0.097373664,-0.08736515,0.041101635
22.2,-0.096161962,-0.08690834,0.046709001
22.21,-0.026431948,-0.091267586,0.045086145
22.22,-0.014964432,-0.047759056,-0.114411533
22.23,0.087028712,-0.002013206,0.246228904
22.24,0.123571575,0.038778305,0.334717035
22.25,0.08320713,0.02927494,0.284217447
22.26,-0.009739012,-0.020887375,0.102645278
22.27,-0.090414822,-0.011161804,-0.100081444
22.28,-0.091998279,-0.010985374,-0.09700799
22.29,-0.143922001,-0.082723618,-0.051715016
22.3,-0.153164685,-0.034833908,0.181747794
22.31,-0.154762775,-0.034902573,0.181910932
22.32,-0.082140684,-0.023003578,0.358925879
22.33,-0.075649917,-0.006127357,0.200442493
22.34,-0.14988178,0.010775566,0.163838565
22.35,-0.117993444,-0.003498077,0.102609754
22.36,-0.117408037,-0.003388405,0.103473067
22.37,-0.038751453,-0.036862373,-0.048887253
22.38,-0.058417708,-0.029725075,0.214185476
22.39,0.062827855,-0.03467083,0.282113731
22.4,-0.060723335,-0.00607872,0.33858493
22.41,-0.061517417,-0.006197929,0.337677807
22.42,-0.045220166,-0.018158913,0.194200754
22.43,-0.04583478,-0.03729248,0.065543532
22.44,-0.078266472,0.000930786,0.096312582
22.45,-0.063074529,0.02231884,0.147944987
22.46,-0.055490345,0.053267479,0.185292423
22.47,-0.021506906,0.055539131,0.163025558
22.48,-0.140884757,-0.03077507,0.129092455
22.49,-0.225519359,-0.018795013,-0.14794898
22.5,-0.18266204,0.010047913,-0.220707893
22.51,-0.00610885,0.017279625,0.35979557
22.52,0.128630251,-0.009241104,0.791568816
22.53,0.025434226,-0.043177605,0.17473048
22.54,0.023079753,-0.043290138,0.174591959
22.55,-0.021912187,-0.09129715,0.408827543
22.56,-0.022895068,-0.091568947,0.405739486
22.57,-0.140676618,-0.067811012,-0.171038687
22.58,-0.114113689,-0.046068192,-0.295517087
22.59,-0.143807679,0.006660461,0.065049827
22.6,-0.110706866,0.054074287,0.383520067
22.61,0.041179776,0.06540966,0.482477576
22.62,0.036934108,0.064715385,0.475724012
22.63,0.112039685,0.095223427,0.448015273
22.64,-0.165018052,0.051762581,0.075245023
22.65,-0.186900616,-0.001031876,-0.08186692
22.66,-0.138914883,-0.091982841,0.007108212
22.67,-0.012409627,-0.087163925,0.110779822
22.68,0.039241523,-0.044041634,0.27209115
22.69,0.002085268,-0.017715454,0.181771517
22.7,-0.013645232,0.003869057,0.051187038
22.71,-0.015117913,0.00394249,0.052968681
22.72,0.119442016,0.030219078,0.235176176
22.73,0.124120176,0.010989189,0.180532754
22.74,0.006319106,0.010960579,0.126423657
22.75,-0.046194106,0.037286758,0.120144546
22.76,-0.110515654,0.039682388,0.075866163
22.77,-0.112296104,0.039705276,0.07714802
22.78,-0.114136756,-0.111135483,0.023096204
22.79,-0.108784944,-0.151890755,0.138327062
22.8,-0.067439228,-0.125660896,0.149522185
22.81,-0.026334316,-0.018119812,0.227019966
22.82,0.009919167,0.043897629,0.301615447
22.83,0.026943117,0.00300312,0.26631403
22.84,-0.053954512,0.022028923,0.141137779
22.85,-0.038514137,0.038695335,0.092680633
22.86,-0.003761768,0.024231911,0.022510707
22.87,-0.053396463,-0.004598618,0.101068795
22.88,-0.081088692,9.05991E-05,0.074001729
22.89,-0.130211324,-0.004765511,0.097646356
22.9,-0.109603941,0.007109642,0.295669109
22.91,0.009301126,-0.0265522,0.239127249
22.92,0.008084148,-0.026639938,0.23844859
22.93,-0.05549854,0.021192551,0.243155301
22.94,-0.137082458,0.004497528,0.107664228
22.95,-0.072265774,-0.059996605,-0.101052165
22.96,-0.072827786,-0.059812546,-0.09838438
22.97,-0.171858132,-0.100382805,-0.093707561
22.98,-0.151448339,0.012178421,-0.068765819
22.99,-0.152261972,0.012183189,-0.068316936
23,0.148030177,0.031308174,0.437023491
23.01,0.091550231,-0.028610229,0.458524644
23.02,0.090520591,-0.028600693,0.459088087
23.03,-0.127472967,-0.114555359,-0.076415896
23.04,-0.175170571,-0.052196503,0.130949557
23.05,-0.179082006,0.043543816,0.010356128
23.06,-0.161221176,0.050854683,-0.227771998
23.07,-0.064875305,0.058206558,0.042153835
23.08,-0.065318346,0.058164597,0.041950405
23.09,0.031102985,0.124986649,0.312803924
23.1,-0.049712211,0.143914223,0.255458951
23.11,-0.072690696,0.074290276,0.138562143
23.12,-0.049091667,0.050290108,0.083068848
23.13,-0.118001342,0.038399696,0.131829441
23.14,-0.08051455,-0.006889343,0.174422979
23.15,-0.021010518,-0.05451107,0.296843678
23.16,0.100876778,-0.078155518,0.378620088
23.17,0.10741657,-0.075500488,0.338289708
23.18,-0.005283654,-0.010457993,0.060017109
23.19,-0.081743866,0.052295685,-0.066377521
23.2,-0.009576976,0.028914452,0.006504476
23.21,0.071278572,0.014996529,0.09531343
23.22,0.072065055,0.015325546,0.098961413
23.23,-0.014016598,-0.00838089,0.1810956
23.24,-0.029124051,-0.029857636,0.16556555
23.25,-0.030513167,-0.029768944,0.167288125
23.26,-0.249383479,0.054171562,0.052182198
23.27,-0.170619994,-0.000753403,0.020652056
23.28,-0.053604156,0.013836861,0.183852553
23.29,-0.070087314,0.021238327,0.308742911
23.3,-0.061626762,-0.033555985,0.306875229
23.31,0.054980427,-0.105015755,0.107053757
23.32,0.01799041,-0.166889191,0.015370846
23.33,-0.064840376,-0.173792839,0.066350222
23.34,-0.087816298,-0.144906998,0.146891594
23.35,-0.071084738,-0.0731287,0.182047606
23.36,0.02655825,-0.054073334,0.202517033
23.37,-0.038896412,0.034389496,0.237456739
23.38,-0.108833969,0.027117729,0.114391327
23.39,-0.144596398,0.048700333,0.088454068
23.4,-0.225048661,0.017724991,0.128032625
23.41,-0.168225318,0.029919624,0.199500144
23.42,-0.123569191,0.010984421,0.168037236
23.43,-0.131414652,-0.01748848,0.110468805
23.44,-0.014920026,-0.046011925,0.071673393
23.45,-0.002157778,-0.076904297,0.150629401
23.46,-0.076311886,-0.084025383,0.220932603
23.47,-0.212106079,-0.062432289,0.189920425
23.48,-0.21040073,-0.062421799,0.18940258
23.49,-0.158699364,-0.110295296,0.1551193
23.5,-0.065091491,-0.127186775,0.167937756
23.51,0.022788525,-0.256775856,0.13113755
23.52,0.032117307,-0.259612083,0.064688981
23.53,-0.138044179,-0.039849281,0.174432397
23.54,-0.218077004,0.079334259,-0.138198018
23.55,-0.218523592,0.078998566,-0.142124832
23.56,-0.073155552,0.069239616,-0.069852889
23.57,-0.075640649,0.068833351,-0.073720634
23.58,0.082819432,0.173585892,0.557764173
23.59,0.026575446,0.141986847,0.502967298
23.6,-0.164652914,0.062728882,0.189509094
23.61,-0.257671863,0.031606674,0.00986135
23.62,-0.202944398,-0.076002121,-0.001358986
23.63,-0.069101244,-0.185986519,0.147935987
23.64,0.064240128,-0.264998436,0.17096746
23.65,0.168250471,-0.27706337,0.243601263
23.66,0.168956846,-0.277226448,0.24108547
23.67,0.081228524,-0.224750519,0.295722485
23.68,-0.049985766,-0.148249626,-0.232891321
23.69,-0.059962958,-0.112410545,-0.204818249
23.7,-0.061378986,-0.112620354,-0.206944108
23.71,-0.108756453,-0.036338806,-0.104878187
23.72,-0.077222228,0.030304909,-0.089950025
23.73,-0.141908467,0.072971344,0.039517462
23.74,-0.16080454,0.051009178,0.075790048
23.75,-0.159975052,-0.013957024,0.012518942
23.76,-0.287053108,-0.121953011,0.069058716
23.77,-0.309557647,-0.206035614,-0.019546866
23.78,-0.275860429,-0.280513763,-0.115111351
23.79,-0.272855133,-0.28072834,-0.11949116
23.8,-0.171415657,-0.302473068,-0.164724529
23.81,-0.100744635,-0.295594215,-0.110692978
23.82,-0.146724641,-0.231254578,-0.040664911
23.83,-0.147024065,-0.049590111,-0.021078527
23.84,-0.209441066,-0.009161949,-0.101630807
23.85,-0.173296511,-0.03573513,-0.201188266
23.86,-0.168614209,-0.035944939,-0.207031727
23.87,-0.064757645,-0.072123528,-0.255746543
23.88,-0.11456582,0.001849175,-0.048230708
23.89,-0.020670682,0.030333519,-0.130246699
23.9,-0.018554419,0.030254364,-0.132751346
23.91,-0.075328201,0.047147751,-0.302664816
23.92,-0.254657596,0.045030594,-0.402152896
23.93,-0.248531818,0.045484543,-0.399319708
23.94,-0.404177994,-0.066454887,-0.543401837
23.95,-0.553659916,-0.106318474,-0.71125555
23.96,-0.573536098,-0.009344101,-0.61735189
23.97,-0.436293602,-0.046222687,-0.435365737
23.98,-0.299632371,-0.10222435,-0.379764795
23.99,-0.259805381,-0.163093567,-0.128705323
24,-0.225255907,-0.264891625,0.038022697
24.01,-0.351743877,-0.364438057,-0.184939086
24.02,-0.225551486,-0.411136627,-0.414039135
24.03,-0.214072943,-0.409816742,-0.404686213
24.04,-0.173902214,-0.295758247,-0.438121617
24.05,-0.097351789,-0.21780014,-0.071180642
24.06,-0.138133824,-0.094817162,0.128848016
24.07,-0.256810486,-0.091804504,-0.226661563
24.08,-0.434630871,-0.047906876,-0.48709929
24.09,-0.433939338,0.017701149,-0.645911396
24.1,-0.344113648,0.126564026,-0.590465605
24.11,-0.21631515,0.319246292,-0.371779561
24.12,-0.143243194,0.40393734,-0.236086488
24.13,-0.117748022,0.517124176,-0.185680628
24.14,-0.115540266,0.517458916,-0.183070719
24.15,-0.132269502,0.725570679,-0.034758925
24.16,-0.267506838,0.825659752,-0.295718372
24.17,-0.453324914,0.975931168,-0.507351875
24.18,-0.61423707,1.06872654,-0.415767193
24.19,-0.721330583,1.238093376,-0.309035838
24.2,-0.690084934,1.400331497,-0.246240795
24.21,-0.719415247,1.478934288,-0.407980442
24.22,-0.743752241,1.495534897,-0.59952271
24.23,-0.626750708,1.349611282,-0.636383116
24.24,-0.47063005,1.036135674,-0.618553221
24.25,-0.303422749,0.744054794,-0.463102222
24.26,-0.202955246,0.331922531,-0.080922842
24.27,-0.275184929,-0.11676693,-0.171931088
24.28,-0.290254474,-0.620615959,-0.429383993
24.29,-0.286085665,-0.621628761,-0.44743228
24.3,-0.268123508,-1.699882507,-0.403210759
24.31,-0.21099478,-2.114383698,-0.299407065
24.32,-0.136804879,-2.591149807,-0.176904559
24.33,-0.021154106,-2.984013557,0.006329417
24.34,-0.0247913,-2.986463547,-0.034117162
24.35,0.01333648,-3.390945435,0.10896948
24.36,-0.001700103,-3.448168278,0.129244953
24.37,0.056652606,-3.376018047,0.236549065
24.38,0.32916379,-3.368757248,0.120640412
24.39,0.317971349,-3.371136665,0.068202361
24.4,0.471736997,-3.263373852,0.089649141
24.41,0.391068101,-3.17224884,0.139320567
24.42,0.219973862,-3.102371693,0.048360053
24.43,0.200486481,-3.103932858,-0.019795785
24.44,0.185951948,-2.982997894,-0.344985426
24.45,0.012370378,-2.765782833,-0.489910513
24.46,0.010942817,-2.516973495,-0.467400014
24.47,0.524030268,-1.748085022,0.31207937
24.48,0.76141876,-1.493302345,0.686243773
24.49,1.073322773,-1.426814079,0.378397435
24.5,1.20094943,-1.302021027,-0.138473332
24.51,0.95753938,-1.303024292,-0.516927898
24.52,0.746010304,-1.424813271,-0.478052199
24.53,0.694954634,-1.418095589,-0.578817904
24.54,0.819388032,-1.790318966,-0.02867043
24.55,0.47061497,-1.892838478,-0.34370774
24.56,0.28847909,-1.790534019,-1.133938313
24.57,0.184019774,-1.36644268,-1.628565907
24.58,-0.01858085,-0.714140892,-1.963432074
24.59,0.263076663,0.120513916,-2.361991882
24.6,0.213457763,0.133792877,-2.445703268
24.61,0.48940742,2.225786209,-2.15726614
24.62,0.7869488,3.257784843,-1.579344749
24.63,0.573329628,4.012730598,-1.301356316
24.64,0.521544457,4.027767181,-1.373016834
24.65,-0.156922668,4.234037399,-1.51904285
24.66,-0.45156318,3.781786919,-1.986951947
24.67,0.045452654,2.080798149,-2.381067276
24.68,0.376222611,1.689144135,-2.130987883
24.69,0.813076794,1.661459923,-1.974531889
24.7,1.205928802,1.676586151,-1.713192463
24.71,0.657570541,2.35208416,-1.590572834
24.72,0.13962096,3.182025909,-1.026343226
24.73,-0.353533268,3.886561394,0.122927666
24.74,-0.405361056,3.91489315,0.035424232
24.75,-1.256944418,3.929412842,1.505307913
24.76,-1.55391264,3.318664551,0.901084185
24.77,-1.578752279,3.345139503,0.820958853
24.78,-2.118374348,1.79227829,-0.366528034
24.79,-2.084208012,0.910872459,-0.520664692
24.8,-2.183992386,0.196475983,-0.285351276
24.81,-2.186144352,-0.403769493,-0.010172844
24.82,-1.552042723,-1.125303268,0.41720891
24.83,-0.409088492,-1.609219074,1.204183102
24.84,-0.39005971,-1.59613657,1.160336256
24.85,-0.343662977,-2.451324463,4.083188057
24.86,-0.240146816,-2.67582655,4.210931778
24.87,-1.045479178,-2.214333534,4.126065731
24.88,-2.301484108,-1.45229578,3.743481874
24.89,-2.220650196,-1.455070019,3.731393099
24.9,-2.530283213,-0.098451614,2.264057398
24.91,-4.964510918,1.328762054,-0.493930578
24.92,-4.560688019,2.340139389,-1.357391357
24.93,-4.029037476,2.973219872,0.686800242
24.94,-2.940618992,4.604717255,3.692227125
24.95,-2.848135233,4.622106552,3.640454531
24.96,1.129993796,6.682823181,4.000623703
24.97,2.837173223,8.626503944,2.775280237
24.98,3.229447365,11.35381603,2.665084362
24.99,1.784363031,13.4439621,3.696814537
25,-0.436980099,14.46816349,2.061693907
25.01,-3.021008253,15.45746422,0.07461524
25.02,-3.025460005,15.45445442,0.082110167
25.03,-4.830729961,10.89314079,-1.467809439
25.04,-2.298693895,6.676231384,-1.031237364
25.05,-0.375166476,2.497948647,0.219477415
25.06,0.757034481,-0.831323624,1.1907866
25.07,1.625054836,-3.469808578,0.799814701
25.08,1.632428527,-6.022733688,-0.553028822
25.09,1.628296137,-8.172299385,-2.051559925
25.1,1.095370054,-9.861366272,-2.982557297
25.11,-0.013747513,-10.85062313,-3.023998976
25.12,-0.883280039,-11.2629385,-2.757760763
25.13,-0.723839641,-11.2316637,-1.830620646
25.14,-0.107327461,-10.91234779,-1.134322047
25.15,-0.154613853,-11.01417065,-0.334970474
25.16,-0.550674021,-11.37043953,-0.769556761
25.17,-0.727913261,-11.70674896,-2.620700359
25.18,-0.721709549,-11.80540085,-4.255557537
25.19,-0.786639869,-11.82997417,-4.774877548
25.2,-0.770072937,-11.05019283,-3.732346535
25.21,0.120295644,-9.909545898,-3.231517792
25.22,1.371266127,-7.998722553,-3.401738167
25.23,2.3993361,-4.869525433,-3.44462657
25.24,5.882811069,-1.718458652,0.126511574
25.25,5.78853178,-1.685124874,0.07357645
25.26,11.08834076,4.567062378,6.122968674
25.27,9.776921272,7.52585125,6.307668686
25.28,7.272805214,9.726845741,6.033225536
25.29,4.40630722,11.16320801,5.067803383
25.3,0.593097806,12.6119175,3.145999908
25.31,-3.085413218,14.43229675,0.932801962
25.32,-2.215071678,13.73886871,1.195613623
25.33,-0.691688955,12.1234684,2.264701843
25.34,-0.624345005,12.12636757,2.222960711
25.35,2.944866657,9.829410553,1.754008055
25.36,3.028180599,9.832767487,1.708047867
25.37,1.429230452,10.00176716,3.495092869
25.38,1.008888125,9.313856125,5.6929245
25.39,0.124396563,6.819249153,6.862467289
25.4,-0.459377229,3.87265873,7.522871017
25.41,-0.555444717,-1.127889156,9.405591011
25.42,-0.46974501,-1.163527012,9.474750519
25.43,-3.64460063,-7.673183918,3.355483532
25.44,-5.113549232,-10.27036381,-2.042482376
25.45,-5.058989525,-10.31091309,-1.935317755
25.46,-5.263188839,-12.20714188,-5.44016552
25.47,-5.983436108,-12.97256279,-6.979034424
25.48,-5.03933382,-11.73012924,-4.655167103
25.49,-5.700205803,-11.07279491,-1.068728209
25.5,-6.220985889,-11.58470917,0.582344294
25.51,-5.841816425,-12.50835991,1.079637527
25.52,-5.56775713,-13.40513134,1.035172224
25.53,-5.552864552,-13.38492584,0.973236799
25.54,-4.487343788,-13.36227131,-0.013622284
25.55,-3.042990446,-12.01635265,-1.966802835
25.56,-1.188928485,-6.628687859,-3.046989918
25.57,-0.155907691,-3.241132259,-1.14133811
25.58,1.955945253,0.924224854,1.699519157
25.59,4.566488266,5.3129673,4.457560539
25.6,4.146560192,9.031339645,6.089443207
25.61,1.397567391,12.3633709,6.021022797
25.62,-1.355316639,14.16802883,5.836530209
25.63,-2.064385891,15.02965641,7.095664978
25.64,-2.03296566,15.01682186,7.125790596
25.65,-2.602385998,14.97378063,8.172178268
25.66,-5.352213383,14.32273293,2.790501118
25.67,-6.077869415,12.91783714,0.396542072
25.68,-5.27026844,11.04279804,-0.102396727
25.69,-4.166796207,9.326475143,1.269531727
25.7,-2.305119753,7.68475914,1.168898821
25.71,-2.367664337,7.678402901,1.19383812
25.72,0.186102092,5.107200623,0.871622801
25.73,2.144770145,2.932349205,2.061146736
25.74,3.837295532,-1.789094448,4.423223495
25.75,4.257753372,-4.436067581,3.520423412
25.76,4.187800407,-4.455665588,3.599379301
25.77,2.740625381,-9.245876312,0.657437086
25.78,0.353940308,-11.42995358,-1.578130841
25.79,-0.831084192,-12.75177193,-4.646717072
25.8,-0.182003498,-13.37807655,-6.814463615
25.81,0.252225637,-13.5482769,-7.508666992
25.82,0.091039538,-13.75835991,-5.10088253
25.83,-0.49323982,-13.11711407,-1.449212313
25.84,-1.468470216,-12.46197987,1.857082367
25.85,-1.593715906,-12.43501663,1.819706917
25.86,-1.700683355,-12.05157566,0.810960293
25.87,-1.668713689,-11.41228485,-4.600921154
25.88,-1.772630453,-8.768507957,-5.089395523
25.89,1.51109314,-2.823814869,-3.465152264
25.9,1.457171082,-2.813811779,-3.462659359
25.91,7.974234104,7.223142624,2.453445435
25.92,6.681616306,11.87611675,5.018478394
25.93,3.729966402,14.55051136,7.0531497
25.94,0.701858759,15.00861168,7.09071064
25.95,0.456346035,13.53089428,4.503620625
25.96,1.493729115,12.22837257,3.242673159
25.97,2.231268644,10.00827503,4.085936069
25.98,1.987126112,9.139374733,3.105764151
25.99,0.96318984,9.149452209,0.632102728
26,0.438956499,9.636870384,-2.550471067
26.01,-2.507969856,10.55693245,0.073965549
26.02,-3.522090435,11.25545311,5.468007565
26.03,-2.536331177,9.975875854,12.30865765
26.04,-0.762288332,6.890860558,14.28707695
26.05,-0.74171114,6.888955116,14.28204632
26.06,0.424633265,-3.535419464,5.689656258
26.07,-2.520590544,-8.761459351,0.858062029
26.08,-3.506474495,-12.84020138,-3.43948555
26.09,-3.198069572,-15.29919624,-5.716175079
26.1,-3.106320858,-15.33407307,-5.586510658
26.11,-3.636249542,-15.59354782,-4.710188866
26.12,-4.703164101,-14.04772568,-2.126340628
26.13,-6.044687271,-13.58907509,-0.236202836
26.14,-6.793945789,-13.42859745,0.337036252
26.15,-6.702459812,-14.25811005,-0.306988716
26.16,-6.302726269,-14.34152317,-0.63919884
26.17,-5.817312241,-13.07742119,-0.46929419
26.18,-4.958462715,-10.92027092,-0.917248607
26.19,-4.995615959,-10.90776443,-0.965950608
26.2,-3.454861641,-5.547089577,-1.573985696
26.21,-2.016065121,-2.030903816,-0.293670058
26.22,2.836436987,2.974901199,2.915832996
26.23,3.75757885,5.046835899,7.612233162
26.24,1.680425286,9.537630081,7.491392136
26.25,-2.750907421,13.50756836,6.315584183
26.26,-2.707160711,13.52620411,6.2085495
26.27,-4.94242239,16.76102829,14.01490784
26.28,-8.074489594,18.4811573,12.13702583
26.29,-10.02186394,19.45452881,3.646449804
26.3,-9.465909958,18.33925056,-4.439265251
26.31,-5.062688828,14.60511208,-3.401054382
26.32,-5.073875427,14.5937624,-3.343662262
26.33,1.934904814,6.64376545,3.384128094
26.34,3.315923214,4.132775307,2.891115189
26.35,3.249871016,4.135709763,2.904871464
26.36,2.645950317,0.282617569,0.989732266
26.37,2.597082615,0.280867577,1.022502661
26.38,1.505983233,-3.503890038,4.774665833
26.39,0.093032956,-5.405069351,5.167132378
26.4,0.316481948,-7.79518652,2.907414913
26.41,0.461429119,-10.63004684,-0.616061568
26.42,0.142672539,-12.61467266,-2.385964632
26.43,-0.087694645,-14.14521599,-3.239223003
26.44,-0.14007926,-14.14840794,-3.178413868
26.45,0.384782314,-15.84067154,-3.761063576
26.46,1.045961022,-15.98026657,-3.419939041
26.47,1.532068133,-15.92999077,-2.222562075
26.48,0.990113735,-15.46219826,-1.110424519
26.49,0.401621103,-14.11460686,-0.818118393
26.5,0.343536854,-14.09876537,-0.858463347
26.51,-1.172180414,-9.836000443,-4.382439137
26.52,-1.193099022,-9.82557869,-4.425292969
26.53,-0.923783124,-2.746874809,-4.071447849
26.54,-0.918489635,-2.739952087,-4.119026184
26.55,8.236339569,7.445982933,4.110912323
26.56,8.183197975,12.39004898,2.188611031
26.57,5.818591595,17.29003906,2.225712299
26.58,2.711958408,20.00470352,7.4028368
26.59,0.020842075,20.61399841,10.51382828
26.6,0.951979637,18.06061745,6.004685879
26.61,-0.812900305,14.38678837,1.327406406
26.62,-3.120297909,11.75390434,1.472095847
26.63,-2.847201824,10.58328915,1.087176681
26.64,-1.46906364,9.62303257,-0.309972644
26.65,-2.23193121,9.163913727,1.508136988
26.66,-3.67407155,8.544252396,5.714129448
26.67,-2.35088706,6.751456261,9.338524818
26.68,-0.543199956,3.744095802,11.46811485
26.69,0.823684335,1.219530106,12.06453323
26.7,-0.177279592,-3.142755032,9.956094742
26.71,-2.974423885,-6.894934177,4.724802971
26.72,-2.868733883,-6.943675518,4.892326355
26.73,-4.557864189,-9.968016624,-0.272194266
26.74,-4.145307541,-14.4062748,-5.488771915
26.75,-4.456159592,-15.27372265,-6.680966377
26.76,-5.666455746,-15.03530884,-6.287323952
26.77,-5.831256866,-14.88404274,-3.7066679
26.78,-3.964121342,-14.78812218,-0.278679252
26.79,-3.707257032,-14.62944603,2.112155199
26.8,-5.150818348,-14.3006382,2.127060413
26.81,-4.647584438,-13.41161537,0.293556094
26.82,-4.665964127,-13.40075684,0.240479708
26.83,-4.203298569,-10.5900383,-2.111154795
26.84,-3.802393436,-8.60307312,-2.328699589
26.85,-3.459333181,-6.756997108,-1.953000784
26.86,-1.883528352,-3.94657135,-1.265503883
26.87,-1.895036101,-3.939260483,-1.296962261
26.88,5.676194191,5.304258347,4.994176388
26.89,5.657382011,8.949117661,5.158067226
26.9,5.648598194,8.962985039,5.096151352
26.91,2.976890802,15.15125275,4.19366312
26.92,0.5604828,17.93635559,9.198572159
26.93,-3.178066254,18.76952744,18.59309196
26.94,-12.82271194,18.27741241,9.361655235
26.95,-13.09723759,17.42317581,-1.611810207
26.96,-10.28538132,14.92175102,-6.589391232
26.97,-10.27944756,14.89369011,-6.465908051
26.98,-0.68883884,6.670655251,-1.505191565
26.99,1.906658888,3.736083984,0.958866596
27,1.968266487,1.702973366,2.90680337
27.01,1.923062563,1.707939148,2.902401447
27.02,2.528270006,-2.663339138,6.595774651
27.03,3.360168457,-4.57899332,8.558021545
27.04,4.017279625,-6.899243832,5.592162609
27.05,3.22033596,-8.715687752,-0.111333013
27.06,1.619761586,-10.33397484,-5.133199215
27.07,1.564768553,-10.34459496,-5.038755894
27.08,0.695230961,-12.82782364,-7.595211029
27.09,0.665039301,-13.53182793,-4.70698595
27.1,1.298190236,-13.51094818,-2.419639826
27.11,1.247705698,-13.50670433,-2.398753166
27.12,1.458728194,-14.65660477,1.945085406
27.13,1.274526,-14.85258007,2.039603233
27.14,-0.181354404,-14.81552887,0.168812156
27.15,-2.181141615,-13.72908211,-2.933822155
27.16,-3.426090717,-11.41976452,-7.18127346
27.17,-3.46065855,-11.41165543,-7.189819336
27.18,0.489106417,-4.520432472,-5.855033875
27.19,0.450936317,-4.504796028,-5.900866508
27.2,12.18614578,7.09384346,1.281526566
27.21,12.46219444,12.67062569,0.666173935
27.22,9.350925446,18.24827576,4.884689808
27.23,6.305709839,20.74111366,15.80629826
27.24,6.276593208,20.77579117,15.68355656
27.25,-4.549911022,19.03058243,7.295966148
27.26,-5.449272633,16.02765846,0.595510244
27.27,-3.97940731,12.65853119,0.16208005
27.28,-3.718797684,10.47259998,-0.4878093
27.29,-3.596759319,10.43356895,-0.433726192
27.3,-2.590517998,7.601689339,0.837966442
27.31,-1.872975111,6.581536293,3.767264366
27.32,-1.792580843,6.572404861,3.736525297
27.33,-1.894441605,5.16758728,7.923853874
27.34,-0.799731135,0.074695587,14.30018711
27.35,-2.335964203,-4.017711639,10.54192352
27.36,-5.083402157,-8.105602264,3.341032028
27.37,-6.369414806,-11.40056419,-2.295158386
27.38,-5.5257864,-14.29273033,-7.356873989
27.39,-4.358075142,-15.68030548,-8.546586037
27.4,-4.459825516,-14.96005726,-6.820916176
27.41,-5.495625496,-14.19700813,-4.894309044
27.42,-6.940395355,-13.8429575,-1.763896704
27.43,-7.178731918,-13.80685234,1.133941531
27.44,-7.18164587,-14.02721405,2.797473431
27.45,-6.436086655,-13.81797791,1.866599441
27.46,-6.064602852,-13.05711937,0.047028065
27.47,-5.937795162,-11.70858097,-0.559348345
27.48,-5.484145164,-10.17260742,-1.170116425
27.49,-4.408578873,-8.634819031,-1.154998302
27.5,-2.983045578,-5.938443661,0.261813641
27.51,0.804979444,-0.790184975,2.443131447
27.52,5.075471878,2.86736393,6.101176262
27.53,6.435133934,7.503587723,7.276163578
27.54,3.760778666,13.81325912,7.533055305
27.55,-2.07406354,19.2448082,10.0393734
27.56,-7.802400112,22.90570831,17.42321014
27.57,-11.84714031,23.42082596,21.45114517
27.58,-12.04754257,20.5581913,12.29362488
27.59,-10.64095211,17.15154076,-2.223479986
27.6,-8.087853432,13.39630508,-5.673690796
27.61,-4.409554005,10.48434162,-3.709085464
27.62,-4.403414726,10.47073364,-3.655396938
27.63,1.495078087,4.350234032,1.040423393
27.64,2.263370037,3.030288696,3.115413666
27.65,1.805449367,1.595435143,5.70452404
27.66,1.131081462,-1.017784119,6.130279064
27.67,0.272795439,-3.318955421,4.886170387
27.68,-0.296191394,-5.943480492,1.308308125
27.69,-1.025278211,-8.343003273,-1.860009789
27.7,-1.039969325,-8.353786469,-1.803653121
27.71,0.439128995,-12.39107132,-4.256254196
27.72,0.41088748,-12.40085602,-4.192043304
27.73,2.784699917,-14.81292915,-5.078660965
27.74,4.011641502,-15.39050293,-5.216110706
27.75,4.079909325,-15.09061623,-3.554314613
27.76,3.45890522,-14.6622982,-1.187590957
27.77,2.592819929,-13.78427505,1.234363675
27.78,1.415929317,-12.78151321,0.937847734
27.79,-0.801478386,-10.76187038,-1.256035566
27.8,-4.192188263,-8.664468765,-3.849791527
27.81,-5.652863503,-6.53615284,-6.315592766
27.82,-4.424333572,-4.781906605,-7.017263412
27.83,-4.456194878,-4.768460751,-7.04766798
27.84,5.505988121,4.165480614,0.201028585
27.85,5.438623905,4.191281319,0.152971745
27.86,17.38666534,12.6308403,5.450935364
27.87,11.16932011,16.83633041,6.414364815
27.88,3.827784061,18.5413208,9.710437775
27.89,-2.500992537,20.80145264,12.6835537
27.9,-0.566692829,18.48467255,11.13190651
27.91,-0.987087131,14.73535919,4.444045067
27.92,-0.970365405,14.72572994,4.464294434
27.93,-2.951936245,12.05187511,-2.267017841
27.94,-3.773360729,9.663000107,-2.373158693
27.95,-3.064608097,8.509552002,0.666885614
27.96,-3.29577589,6.005949974,4.400241852
27.97,-3.114715099,4.487445831,6.697809696
27.98,-3.767606735,2.34352684,9.83318615
27.99,-3.704880238,2.323741913,9.859898567
28,-2.209639072,-4.277890682,10.88003159
28.01,-2.907903671,-9.068219185,6.019784451
28.02,-2.808038235,-9.12091732,6.179228783
28.03,-6.875039577,-14.95902538,-9.593384743
28.04,-6.321418762,-15.71139717,-11.49764061
28.05,-5.40471077,-15.11088181,-6.410737514
