Time (s),Linear Acceleration x (m/s^2),Linear Acceleration y (m/s^2),Linear Acceleration z (m/s^2)
0,0.096774474,-0.150524139,-0.247941971
0.01,-0.04402772,-0.050920486,-0.12052834
0.02,-0.042906027,-0.090064049,0.041880012
0.03,-0.042411227,-0.090792656,0.047866106
0.04,0.009699926,0.023355484,-0.161195397
0.05,0.009841375,0.022566795,-0.154610157
0.06,-0.063366994,0.096102715,-0.110634208
0.07,-0.395183384,0.169819832,0.085009217
0.08,-0.392259002,0.169352531,0.088789344
0.09,-0.522821903,0.084879875,-0.286503911
0.1,-0.521718025,0.084155083,-0.280420303
0.11,-0.082304485,-0.193823814,0.066612124
0.12,0.285438418,-0.399577141,0.453599095
0.13,0.194190174,-0.353824616,0.542868972
0.14,-0.035963587,-0.164616585,0.465730071
0.15,-0.033130996,-0.164731026,0.466460109
0.16,-0.200048745,-0.018957138,0.200546503
0.17,0.228436127,-0.124568939,-0.120520711
0.18,0.408608377,-0.177168846,-0.046624303
0.19,0.295270085,-0.135940552,0.033216953
0.2,0.013079189,-0.096869469,0.388468146
0.21,-0.103172354,-0.081738472,0.65241611
0.22,-0.100415453,-0.081003189,0.645942569
0.23,-0.292962074,0.07779026,0.667951822
0.24,-0.123214804,0.054346085,0.342619419
0.25,0.028399803,-0.039159775,0.029855013
0.26,-0.055334713,-0.051553726,-0.067378759
0.27,-0.124141857,-0.104728699,-0.247726262
0.28,-0.112002507,-0.1891222,-0.298097968
0.29,-0.203983381,-0.18241787,-0.351561248
0.3,-0.197967053,-0.180307388,-0.344383121
0.31,-0.111447573,-0.168260574,-0.223021627
0.32,-0.214533791,-0.081738472,0.217095375
0.33,-0.214378014,-0.081049919,0.211402774
0.34,-0.249723986,0.053836823,0.561298609
0.35,-0.136185348,0.136096954,1.107295752
0.36,-0.126591653,0.091585159,1.024851799
0.37,-0.067992538,0.082816124,0.814477921
0.38,0.009957481,-0.122420311,0.325216532
0.39,0.013046969,-0.194190025,-0.190271497
0.4,-0.013091978,-0.290583611,-0.51324445
0.41,-0.011033583,-0.291384697,-0.506840408
0.42,-0.088841997,-0.203457832,-0.39131093
0.43,-0.007731542,-0.206252098,-0.349670172
0.44,-0.008138079,-0.206520081,-0.347413898
0.45,-0.009783,-0.137218475,-0.224352598
0.46,-0.345685303,0.05218792,0.214043617
0.47,-0.289367259,0.028681755,0.303709626
0.48,-0.00085216,-0.131114006,0.440007091
0.49,0.097817987,-0.166218758,0.744831801
0.5,0.021521073,-0.047948837,0.536152601
0.51,0.018936023,-0.047455788,0.532320976
0.52,0.308381796,-0.162542343,0.2512362
0.53,0.137961626,-0.114619255,0.416302085
0.54,-0.090697706,0.014944077,0.445281863
0.55,-0.089454718,0.01523304,0.442819834
0.56,-0.805943608,0.192277908,-0.324866176
0.57,-0.800123513,0.191422463,-0.318217158
0.58,-0.882732868,0.106805801,-0.627791941
0.59,-0.427768529,-0.118701935,-0.700605869
0.6,0.390973479,-0.45848465,-0.443306625
0.61,0.675542891,-0.560610771,0.0198524
0.62,0.201744974,-0.301095009,0.647066116
0.63,0.205015659,-0.300584793,0.642704964
0.64,-0.042358842,-0.089449883,0.669956923
0.65,-0.646020949,0.097697258,0.721286058
0.66,-0.849436939,0.234381676,0.566002488
0.67,-0.33741951,0.092936516,-0.239692569
0.68,-0.335902095,0.092395782,-0.235426664
0.69,0.103012562,-0.211917877,-0.338664591
0.7,0.098287582,-0.211999893,-0.337791979
0.71,0.206282586,-0.319676399,-0.180157423
0.72,0.071191475,-0.190233231,0.048681855
0.73,0.070987478,-0.190019608,0.046929359
0.74,-0.384350896,0.092959404,0.490970969
0.75,-0.382183492,0.093455315,0.486826181
0.76,-0.344250143,0.101276398,0.58464253
0.77,-0.343252659,0.101647377,0.581642866
0.78,-0.008562732,-0.01799202,0.116642714
0.79,0.093374014,-0.159426689,-0.020831108
0.8,0.35025385,-0.207571983,-0.236577809
0.81,0.355212301,-0.277350426,-0.272012115
0.82,0.354952455,-0.27767086,-0.269610405
0.83,0.225142807,-0.260850906,-0.030560374
0.84,-0.130089149,-0.059481621,0.472399235
0.85,-0.479804814,0.082146645,0.770907998
0.86,-0.475236774,0.159044266,0.598566532
0.87,-0.282606483,0.211669922,0.143893361
0.88,-0.280930936,0.211172104,0.147906661
0.89,-0.223545224,0.119473457,-0.052446246
0.9,0.011535104,-0.0440588,-0.175840497
0.91,0.008212388,-0.044897079,-0.168973446
0.92,0.129941136,-0.155878067,-0.401449859
0.93,-0.04707155,-0.156606674,-0.311734796
0.94,-0.002739802,-0.250355721,0.016860604
0.95,0.170793727,-0.309959412,0.524777174
0.96,0.222238898,-0.215681076,0.797791362
0.97,0.220125556,-0.214616776,0.789256692
0.98,-0.073250897,0.049632072,0.995198488
0.99,-0.380630672,0.12187767,0.874336362
1,0.031662092,-0.010000229,-0.089098692
1.01,0.030280866,-0.010700226,-0.083290339
1.02,0.411747247,-0.243813515,-0.473625779
1.03,0.410679638,-0.244106293,-0.4712497
1.04,-0.00604089,-0.16505909,-0.284914076
1.05,-0.450702995,-0.066586494,0.397305727
1.06,-0.448841602,-0.066279411,0.394672513
1.07,-0.055171341,0.001044273,0.516895771
1.08,-0.042705461,0.084871292,0.279597163
1.09,0.004635774,0.091410637,0.02609849
1.1,0.049255107,0.02819252,-0.344331563
1.11,0.050198235,0.026991844,-0.33449465
1.12,0.041138723,0.013967514,-0.534222245
1.13,-0.091964804,-0.053679466,-0.409481049
1.14,-0.194667563,-0.120800018,-0.044846296
1.15,-0.110466018,-0.218748093,0.52082336
1.16,0.080831997,-0.170598984,0.482874036
1.17,0.12589103,-0.122556686,0.42415452
1.18,-0.099992335,-0.002797127,0.51712513
1.19,-0.219742388,0.088273048,0.415921927
1.2,-0.31143111,0.071278572,0.211635828
1.21,-0.306949556,0.070907593,0.214581251
1.22,-0.203481421,0.055962563,-0.070350528
1.23,-0.302084595,-0.023727417,-0.057620049
1.24,-0.26151526,-0.031364441,-0.046619058
1.25,0.012040567,-0.110710144,-0.175533474
1.26,0.040733069,-0.166052818,-0.182695985
1.27,0.038168479,-0.166265488,-0.180826068
1.28,0.034129363,-0.166331291,0.028075576
1.29,0.068770096,-0.11127758,0.358615756
1.3,0.011408627,-0.034697533,0.481096864
1.31,0.012741923,-0.0347929,0.48175621
1.32,0.01455394,0.015055656,0.061636209
1.33,0.016060252,0.007284164,0.071418285
1.34,-0.260112912,0.083446503,-0.027719736
1.35,-0.484537989,0.083007813,-0.244374812
1.36,-0.481279552,0.082539558,-0.240406573
1.37,0.071559146,-0.236227036,0.059366465
1.38,0.06678097,-0.235995293,0.057524562
1.39,0.17035687,-0.259560585,0.47094214
1.4,-0.064615831,-0.168289185,0.451631427
1.41,-0.255507022,-0.098752022,0.206509948
1.42,-0.390362501,-0.053384781,0.085352421
1.43,-0.388983309,-0.053500175,0.086344361
1.44,-0.200009733,-0.077510834,-0.073484778
1.45,0.144327015,0.082962036,0.132199645
1.46,-0.068312049,0.08319664,0.477355361
1.47,-0.194663182,0.098000526,0.717919707
1.48,-0.081933528,0.065036774,0.538448691
1.49,0.007793576,-0.021139145,0.265304446
1.5,0.009666678,-0.021438599,0.26774013
1.51,-0.193030462,-0.074674606,-0.163247049
1.52,-0.18974486,-0.075449944,-0.156748951
1.53,-0.342030168,-0.107398033,-0.238225818
1.54,-0.22036235,-0.124796867,-0.268706262
1.55,-0.05087854,-0.12279129,-0.38251096
1.56,-0.052243691,-0.123202324,-0.378912628
1.57,0.012711015,-0.08265686,0.14439249
1.58,-0.012866057,-0.032143593,0.429730296
1.59,-0.014856355,-0.031737328,0.426207423
1.6,0.01413659,0.014249802,0.687636495
1.61,-0.067942128,0.081734657,0.942471981
1.62,-0.066820718,0.082147598,0.93883276
1.63,-0.069309175,-0.00387001,0.3266958
1.64,-0.100708082,-0.059270859,-0.11816597
1.65,-0.280389845,-0.055381775,-0.395380735
1.66,-0.294972122,-0.096959114,-0.368581533
1.67,-0.18428807,-0.138311386,-0.255201995
1.68,0.022663012,-0.215295792,-0.146533907
1.69,0.019974504,-0.215468407,-0.14487201
1.7,0.044036277,-0.1724329,0.25065732
1.71,0.043229342,-0.172356606,0.250019074
1.72,-0.137456328,-0.033563614,0.463824391
1.73,-0.135277808,-0.033837318,0.466129065
1.74,-0.164311081,0.09495163,-0.137573659
1.75,-0.165378198,0.077494621,-0.172118485
1.76,-0.083632372,0.074480057,0.060994148
1.77,-0.161307454,0.076565742,0.14038384
1.78,-0.269705921,0.052315712,0.140774727
1.79,0.016643165,-0.082087517,0.131805539
1.8,0.23710832,-0.245141983,0.335157991
1.81,0.259077281,-0.247371674,0.523129702
1.82,0.25500375,-0.247079849,0.520552516
1.83,0.058447588,-0.215901375,0.505739808
1.84,-0.130651683,-0.206523895,0.294421554
1.85,-0.089660615,-0.216509819,-0.233551741
1.86,-0.089595735,-0.216953278,-0.229562998
1.87,0.140303522,-0.116583824,0.038134456
1.88,0.138447374,-0.116392136,0.036397934
1.89,0.006768692,-0.046731949,0.280895114
1.9,-0.436625809,0.075641632,0.539423108
1.91,-0.480393648,0.121334076,0.288415909
1.92,-0.458789498,0.075743675,-0.151327968
1.93,-0.179565489,-0.003842354,-0.397571385
1.94,-0.179816261,-0.00446701,-0.39185828
1.95,0.025692517,-0.158054352,-0.211378157
1.96,0.150718689,-0.198769569,-0.029086709
1.97,0.133893132,-0.169872284,0.146668196
1.98,0.175628528,-0.116949081,0.175750852
1.99,0.077686615,-0.018703461,0.064905167
2,-0.009006456,0.048370361,0.268031001
2.01,-0.26053071,0.09172821,0.629559517
2.02,-0.260585636,0.092311859,0.62426436
2.03,-0.084401235,0.100259781,0.751446486
2.04,0.01295571,-0.013776779,0.686073542
2.05,0.152896673,-0.08727169,0.63180387
2.06,0.119075581,-0.223169327,0.456881642
2.07,0.122850291,-0.263601303,0.131276727
2.08,0.122726083,-0.263710022,0.132221937
2.09,-0.008155614,-0.247521401,-0.267332256
2.1,-0.313692004,-0.135718346,-0.445379734
2.11,-0.486082584,0.047883987,-0.56327045
2.12,-0.654770017,0.097620964,-0.371710479
2.13,-0.632961273,0.159573555,-0.287676573
2.14,-0.291406512,0.140253067,-0.015689731
2.15,0.001560748,0.032560349,0.201711178
2.16,0.21212323,-0.062917709,0.431629896
2.17,0.381688714,-0.155981064,0.500748396
2.18,0.463443726,-0.191662788,0.546765208
2.19,0.278749704,-0.122023583,0.554545522
2.2,0.278684259,-0.121798515,0.552535296
2.21,-0.593585074,0.172515869,-0.003834367
2.22,-0.538840115,0.076392174,-0.072730064
2.23,-0.539534569,0.076400757,-0.072687387
2.24,0.285034657,-0.217671394,0.211040735
2.25,0.068753943,-0.212283135,0.426212788
2.26,-0.219514713,-0.099248886,0.699460864
2.27,-0.216920897,-0.098686218,0.694290161
2.28,0.103262149,-0.13679409,0.086647153
2.29,0.37434566,-0.230304718,-0.048677921
2.3,0.374275833,-0.23041153,-0.047723413
2.31,0.194553435,-0.180019379,0.188258171
2.32,-0.606830835,0.078800201,0.62645793
2.33,-0.599093556,0.07902813,0.624081254
2.34,-0.412846804,0.117119789,-0.08050549
2.35,-0.18788214,0.078020096,-0.435108006
2.36,-0.068110317,-0.009382248,-0.599243045
2.37,-0.067055255,-0.010623932,-0.587998629
2.38,-0.006602759,-0.093091965,-0.539919317
2.39,-0.006365735,-0.093860626,-0.532788694
2.4,-0.183585033,-0.149198532,0.02273035
2.41,-0.019946299,-0.161027908,0.21784389
2.42,0.186507717,-0.179779053,0.302805662
2.43,0.242635116,-0.093043327,0.546932459
2.44,0.110443369,-0.051771164,0.649738431
2.45,0.108289987,-0.051418304,0.646549344
2.46,0.038651142,0.07567215,0.695164919
2.47,-0.090665489,0.19055748,0.518244743
2.48,-0.371821612,0.135279656,0.306905985
2.49,-0.31204468,0.02959919,0.017644644
2.5,-0.178389803,-0.13860321,-0.259527266
2.51,-0.168792322,-0.263803482,-0.305725396
2.52,-0.166982934,-0.264397621,-0.300398052
2.53,-0.199108407,-0.341350555,-0.02425158
2.54,0.108916022,-0.327180862,-0.08232224
2.55,0.105562031,-0.327443123,-0.07974267
2.56,0.01258198,-0.119291306,0.254582405
2.57,-0.059359368,-0.016430855,0.353562474
2.58,-0.116435006,0.062520981,0.320600271
2.59,-0.096934482,0.071909904,0.039883733
2.6,-0.14777948,0.071443558,-0.065912247
2.61,-0.148971915,0.070887566,-0.060544014
2.62,-0.207752898,0.012872696,-0.095902264
2.63,-0.535355806,0.227795601,-0.334731996
2.64,-0.52978313,0.128983498,-0.455362558
2.65,-0.10688144,-0.043998718,-0.030539632
2.66,0.078980453,-0.201981545,0.345194936
2.67,0.070973083,-0.201385498,0.339692235
2.68,0.070382573,-0.148003578,0.663677096
2.69,-0.203623906,-0.061279297,0.569979549
2.7,-0.158481136,-0.092121124,0.299020886
2.71,0.134640396,-0.226216316,-0.040926874
2.72,0.131486312,-0.226414681,-0.038833678
2.73,0.228948236,-0.202393532,0.362973094
2.74,-0.082744919,-0.034471512,0.472631097
2.75,-0.27205658,0.071084976,0.298249483
2.76,-0.14230749,0.049519539,0.04692781
2.77,-0.068245411,0.015799522,-0.018164277
2.78,-0.279105276,0.070558548,0.02545929
2.79,-0.516242027,0.065491676,-0.003157616
2.8,-0.51366365,0.065152168,7.62939E-06
2.81,-0.172654331,-0.093157768,-0.207930267
2.82,-0.014252178,-0.182041168,-0.185975611
2.83,0.073173165,-0.246763229,-0.079619229
2.84,0.095511168,-0.253829956,-0.03025651
2.85,0.123395279,-0.129193306,-0.02646637
2.86,0.120828643,-0.129031181,-0.027872682
2.87,-0.021369092,0.012508392,0.072552443
2.88,-0.064605445,0.077606201,0.357842565
2.89,-0.069695033,0.087806702,0.69666934
2.9,-0.234626144,0.07144928,0.73838985
2.91,-0.14722988,-0.014390945,0.426104784
2.92,-0.144203454,-0.055017471,-0.058219612
2.93,-0.143866479,-0.055354118,-0.055236757
2.94,-0.008335061,-0.117900848,-0.215063512
2.95,-0.00292334,-0.199575424,-0.185990274
2.96,-0.037849836,-0.218979836,-0.102301836
2.97,-0.089197531,-0.185534477,0.03759253
2.98,-0.032892291,-0.156746864,0.175948381
2.99,0.101812616,-0.14699173,0.045030236
3,0.068564639,-0.058255196,0.086854219
3.01,0.029031962,0.018609047,0.29534483
3.02,0.133334339,0.054919243,0.339531541
3.03,-0.016274475,0.072104454,0.555909514
3.04,-0.088486753,0.063018799,0.728483439
3.05,-0.241426319,0.135421753,0.373521209
3.06,-0.150035888,0.034905434,0.026008844
3.07,-0.151726037,0.034677505,0.028170466
3.08,0.129088163,-0.288581848,0.28986299
3.09,0.012471437,-0.166297913,0.216791511
3.1,-0.080624051,-0.115970612,-0.030236125
3.11,-0.360708296,0.046587944,-0.291134477
3.12,-0.504123807,0.005326271,-0.640497625
3.13,-0.203587383,-0.215436935,-0.604814529
3.14,0.183688134,-0.447660446,-0.185876668
3.15,0.234037682,-0.363113403,0.444653153
3.16,-0.065042749,-0.158297539,0.790018797
3.17,-0.119699784,0.000766754,0.866787314
3.18,-0.208599508,0.075803757,0.816262126
3.19,-0.163851574,0.076471329,0.625645757
3.2,-0.219017297,0.01226902,0.43230474
3.21,-0.158656925,-0.064163208,0.083141088
3.22,-0.058129605,-0.136231422,-0.274058461
3.23,-0.00868687,-0.208468437,-0.303830266
3.24,-0.052174203,-0.232626915,-0.184285522
3.25,-0.029216014,-0.251704216,0.006879449
3.26,0.086486153,-0.251351357,0.178853393
3.27,0.077315733,-0.169438362,0.342293739
3.28,-0.024088077,-0.010792732,0.305909872
3.29,-0.122190796,0.0900383,0.344197273
3.3,-0.331172288,0.150055885,0.36404419
3.31,-0.352508366,0.107189179,0.364207983
3.32,-0.283697248,-0.000308037,0.390483737
3.33,-0.284216911,2.67029E-05,0.38757515
3.34,0.20112595,-0.365907669,0.082754612
3.35,0.424066126,-0.466052055,0.039231062
3.36,0.345187664,-0.377006531,0.227519631
3.37,0.076613739,-0.278205872,0.411625266
3.38,-0.014938846,-0.13379097,0.498740673
3.39,-0.026788563,-0.04911232,0.47706902
3.4,-0.099378735,-0.007582664,0.489146352
3.41,-0.258327723,0.084111214,0.315259337
3.42,-0.283843547,0.084370613,-0.096652865
3.43,-0.289537966,0.122213364,-0.416415453
3.44,-0.39362064,0.178683281,-0.547258496
3.45,-0.246847466,0.136851311,-0.449275315
3.46,-0.093834534,0.042669296,-0.38469559
3.47,-0.086263523,0.006195068,-0.21669662
3.48,-0.232217759,-0.006076813,-0.30474478
3.49,-0.090349033,-0.166772842,-0.163191497
3.5,-0.094789654,-0.166754723,-0.162795246
3.51,0.146281794,-0.264221191,0.275029779
3.52,0.153240696,-0.126656532,0.850622892
3.53,0.022643805,0.00597477,0.687318564
3.54,-0.114507332,0.073615074,0.452323794
3.55,-0.1131147,0.073897362,0.449647784
3.56,0.076736182,-0.105517387,0.273434281
3.57,0.075326905,-0.105286598,0.271630406
3.58,-0.105555959,-0.023648262,0.190826058
3.59,-0.104581274,-0.023615837,0.190409303
3.6,-0.248776466,-0.040484428,0.131231546
3.61,-0.11131613,-0.03359127,-0.16325897
3.62,-0.111575082,0.004090309,-0.366203725
3.63,-0.254844308,0.068011284,-0.405398548
3.64,-0.249201775,0.002739906,-0.505388916
3.65,-0.017638668,-0.124671936,-0.295011401
3.66,0.10583815,-0.242032051,0.187155485
3.67,0.002957538,-0.301456451,0.562289238
3.68,-0.000785753,-0.300895691,0.558039188
3.69,0.108133122,-0.322170258,0.656768084
3.7,0.081479371,-0.101865768,0.405473113
3.71,-0.084348403,0.051202774,0.268270016
3.72,-0.214969114,0.115448952,0.1254493
3.73,-0.409252644,0.196347237,0.0075773
3.74,-0.401717424,0.104777336,-0.109973133
3.75,-0.31005314,-0.02253437,-0.218880653
3.76,-0.240814105,-0.22159195,-0.232603371
3.77,-0.065217152,-0.322292328,-0.207185864
3.78,0.022873953,-0.403671265,0.003734112
3.79,0.067814916,-0.377130508,0.162784576
3.8,0.113291606,-0.204463959,0.273171544
3.81,0.113943353,-0.204398155,0.272619724
3.82,-0.129791707,0.113888741,0.014857411
3.83,-0.127077475,0.113688469,0.016190767
3.84,-0.359131932,0.183024406,0.596035481
3.85,-0.245219871,0.077774048,0.513226152
3.86,-0.011287406,-0.044692039,0.30788362
3.87,0.089028969,-0.188898087,0.09970963
3.88,0.083546877,-0.244840622,-0.270684302
3.89,0.125487953,-0.222039223,-0.147554219
3.9,-0.161125869,-0.041091919,0.129991412
3.91,-0.397869468,0.07532692,-0.007751465
3.92,-0.23002559,0.08852005,0.031889796
3.93,-0.23240605,0.087388039,0.042892933
3.94,-0.083498798,0.086548805,0.135428786
3.95,-0.530596197,0.088396072,0.522010446
3.96,-0.533682466,0.088411331,0.522415519
3.97,-0.03251636,-0.217780113,0.664115071
3.98,0.811075032,-0.624423027,0.489759088
3.99,0.797334969,-0.624130249,0.489676714
4,1.24920857,-0.879896164,0.431427956
4.01,0.969173133,-0.964873314,1.139487147
4.02,0.627861083,-0.639813423,1.226640582
4.03,0.216142565,-0.317313194,0.940506458
4.04,-0.093458831,-0.038498878,0.064527154
4.05,-0.073448315,-0.042586327,0.09754622
4.06,-0.830704451,0.31490612,-1.146986127
4.07,-1.283983111,0.335534096,-1.177996874
4.08,-0.949599326,0.148779869,-1.455801249
4.09,-0.120226294,-0.11341095,-1.333270907
4.1,0.299934566,-0.401176453,-0.449125499
4.11,0.101676866,-0.386670113,0.478905618
4.12,0.137352124,-0.276320458,0.813696146
4.13,0.141623512,-0.276449204,0.814252615
4.14,-0.478781164,0.21380043,0.902716696
4.15,-0.479182363,0.269976616,0.512615621
4.16,-0.463469744,0.254308701,-0.072591543
4.17,-0.417463005,0.133419991,-0.44305101
4.18,-0.133123472,0.058438301,-0.256978273
4.19,0.045777425,-0.032772064,0.314141512
4.2,0.060201079,-0.066340446,0.909473598
4.21,0.060403317,-0.066842079,0.915056944
4.22,-0.016826496,-0.039218903,0.807056963
4.23,-0.027986825,-0.001428604,0.590412974
4.24,-0.015810356,-0.00227356,0.597639442
4.25,-0.295651913,0.05371666,0.030221641
4.26,-1.337338924,0.111899376,-0.938738823
4.27,-1.324371576,0.110227585,-0.920523405
4.28,-0.183402956,-0.284016609,-1.792868853
4.29,0.377462626,-0.476930618,-1.169895649
4.3,0.647435427,-0.439439774,-0.013913631
4.31,0.638914526,-0.439216614,-0.015527487
4.32,0.24840726,-0.11762619,1.268182158
4.33,-0.241721213,0.134304047,1.198489547
4.34,-0.815962195,0.287687302,0.82675457
4.35,-0.894886136,0.254125595,0.485832274
4.36,-0.509502232,0.048249245,-0.200302184
4.37,-0.255648911,-0.148171425,-0.584418535
4.38,-0.061381888,-0.272684097,-0.822968662
4.39,-0.043501727,-0.318226814,-0.785206258
4.4,0.109680936,-0.239248276,-0.38138634
4.41,0.291885436,-0.303768158,-0.240588248
4.42,0.218011692,-0.286787987,-0.024912894
4.43,-0.177092969,-0.097258568,0.071335197
4.44,-1.014801264,0.159379959,0.226079941
4.45,-1.01134181,0.159770966,0.22066319
4.46,-0.595281422,0.078562737,-0.630070508
4.47,-0.110026889,0.006727219,-0.821360588
4.48,-0.089155734,-0.031644821,-0.561069787
4.49,-0.094793752,-0.058023453,-0.150124311
4.5,0.056796312,-0.122517586,-0.093485951
4.51,0.225609303,-0.16054821,-0.061775148
4.52,0.216020808,-0.160130501,-0.064819336
4.53,-0.036727473,-0.14546299,-0.251190484
4.54,-0.43034029,-0.121273041,-0.205000043
4.55,-0.528169036,-0.089901924,-0.401010811
4.56,-0.270509005,-0.068159103,-0.555360854
4.57,-0.118865669,-0.101467133,-0.402576745
4.58,-0.123027548,0.009019852,0.060499787
4.59,-0.187289149,0.052751541,0.369402945
4.6,-0.208358318,0.096199036,0.125962615
4.61,-0.375799805,0.052980423,-0.152869999
4.62,-0.710244417,0.014126778,-0.264684498
4.63,-1.014261484,-0.132721901,-0.765046775
4.64,-0.860432386,-0.296870232,-1.513618112
4.65,-0.617039323,-0.487870216,-1.939586401
4.66,-0.606871545,-0.490366936,-1.909337997
4.67,-0.260306537,-0.696832657,-1.084660411
4.68,-0.132234186,-0.735062599,-0.462452173
4.69,-0.111578792,-0.590303421,0.235324621
4.7,-0.10860388,-0.590479851,0.237082899
4.71,0.021969706,-0.426327705,-0.039533615
4.72,-0.118016213,-0.278914452,-0.435358822
4.73,-0.288764417,-0.205563545,-0.725727201
4.74,-0.264224291,-0.249217987,-1.102952838
4.75,-0.142647237,-0.268486977,-1.134518862
4.76,-0.017577738,-0.016301155,-0.423606336
4.77,-0.085871652,0.238780022,0.601443768
4.78,-0.118941575,0.242645264,1.183202267
4.79,0.04755941,0.370789528,1.338213563
4.8,0.035338819,0.373945236,1.308218837
4.81,-0.334960401,0.270647049,0.779679596
4.82,-0.281386793,0.089969635,0.16814971
4.83,-0.29184711,0.091073036,0.160546243
4.84,0.20124945,-0.103916168,0.219080508
4.85,0.795924187,-0.47832489,0.092458367
4.86,1.172597885,-0.64439106,0.24370718
4.87,1.284776807,-0.774298668,0.416226804
4.88,1.076038957,-0.736531258,0.609109044
4.89,0.859795809,-0.626998901,0.30399251
4.9,0.816940844,-0.424448967,-0.26611346
4.91,0.821909428,-0.198234558,-0.881094694
4.92,0.780810714,0.082909584,-1.094718695
4.93,0.912595511,0.19948864,-0.870337486
4.94,1.079184294,0.302531242,-0.534449935
4.95,1.141144991,0.411205292,0.037931442
4.96,1.120191097,0.415287972,0.011532664
4.97,1.163398266,0.328766823,0.959941506
4.98,1.088243365,0.249113083,0.743024945
4.99,1.006427407,0.111366272,0.014780283
5,0.986770511,0.114272118,0.000626683
5.01,0.849099159,0.447431564,-1.268205404
5.02,0.716396809,0.824010849,-1.441625118
5.03,0.430590808,1.061948776,-1.295372128
5.04,0.412366867,1.065238953,-1.311063647
5.05,0.301182687,1.183161736,-1.03600347
5.06,-0.045419216,0.979844093,-0.017532825
5.07,-0.189229488,0.596475601,0.13112247
5.08,-0.18735069,0.049783707,0.031116366
5.09,0.119795919,-0.741291046,-0.299146175
5.1,0.496086359,-1.362457275,-0.533765793
5.11,0.883936703,-1.607664108,-0.624941766
5.12,0.8750543,-1.606021881,-0.631949961
5.13,0.528007686,-1.633072853,-0.117089391
5.14,0.488059878,-1.363420486,-0.146078467
5.15,0.399157047,-1.081908226,-0.086283207
5.16,0.22906816,-0.872603416,-0.262276769
5.17,0.15444243,-0.819376946,-0.665974021
5.18,-0.00359416,-0.833600998,-1.076681614
5.19,-0.34615621,-0.766522408,-1.546252966
5.2,-0.442320138,-0.701975822,-1.976458073
5.21,-0.109722614,-0.682395935,-1.835683942
5.22,0.184919238,-0.599761963,-1.554409862
5.23,-0.293446302,-0.38250351,-1.24717474
5.24,0.285304964,-0.437817574,-0.727436125
5.25,0.02796489,-0.132938385,-0.690890729
5.26,0.023574114,0.029679298,-0.922516584
5.27,0.027432561,0.029976845,-0.926496625
5.28,-0.310396552,0.033945084,-1.496920824
5.29,-0.412452757,0.037518501,-1.279911518
5.3,-0.181398988,0.08466053,-1.050537586
5.31,0.328675926,0.103684425,-0.816295266
5.32,0.43871671,0.166212082,-0.485281825
5.33,0.425935924,0.496723175,-0.443659544
5.34,0.426591694,0.836319923,-0.602980256
5.35,0.304308534,1.160732269,-0.910892367
5.36,0.310243726,1.15875721,-0.900452256
5.37,0.422131479,1.810013771,-1.409594297
5.38,0.624561369,2.090069771,-1.448357344
5.39,0.515998066,2.449242592,-1.438816786
5.4,0.025463939,2.793704987,-1.300299048
5.41,-0.824883997,3.235706329,-0.730493009
5.42,-1.277670979,3.535988808,-0.175757289
5.43,-1.09636116,3.852166176,-0.313477278
5.44,-1.050980568,3.845056534,-0.280760169
5.45,-0.773287714,3.997653961,-0.535586238
5.46,-0.556203425,3.621610641,0.307347894
5.47,-0.324447453,3.086547852,1.487662196
5.48,-0.278549612,3.081885338,1.511392355
5.49,-0.178467825,2.388341904,2.815356731
5.5,-0.002049118,1.8816185,3.585772753
5.51,0.440456748,1.327903748,3.799278975
5.52,1.643880606,0.565214157,4.427014828
5.53,1.450919986,0.652523041,5.078838348
5.54,0.721110642,0.825303078,5.494823456
5.55,-0.218601614,1.149843216,5.317153931
5.56,-1.015316129,1.328036308,4.372052193
5.57,-1.171975732,1.352329254,3.358521938
5.58,-1.614613295,1.418956757,2.913700104
5.59,-2.41959548,1.50429821,2.555546761
5.6,-2.775882244,1.485870361,1.701769233
5.61,-2.902295828,1.514256477,0.623593211
5.62,-2.846834183,1.50141716,-0.287267625
5.63,-2.202945948,1.096164703,-0.603283346
5.64,-2.180401087,1.096679688,-0.608677328
5.65,-0.207985237,-0.474320412,0.363831878
5.66,0.195964545,-1.560574532,0.581602931
5.67,0.806779802,-2.552632809,0.669429779
5.68,0.552966356,-3.264493465,1.209999442
5.69,-0.028843086,-3.725096703,1.847814441
5.7,-0.010330109,-3.721619606,1.823497772
5.71,-0.704351544,-4.006207943,1.639688015
5.72,-0.841417015,-4.122236729,0.594527721
5.73,-0.689179063,-4.784851551,-0.580529571
5.74,-0.330901742,-5.453418255,-0.983651042
5.75,-0.172130302,-6.210700989,-1.395452976
5.76,0.100433946,-6.738357544,-1.769540429
5.77,0.490498215,-6.854201317,-1.719551325
5.78,0.527503371,-6.557514668,-1.507076383
5.79,0.128137216,-5.968142033,-1.35345912
5.8,0.115334138,-5.969648838,-1.342252135
5.81,-0.614855647,-4.644284725,-0.318961203
5.82,-0.629050732,-4.645243168,-0.311417878
5.83,-0.401979595,-3.241906166,-1.046580553
5.84,-0.577249527,-2.301314831,-1.445699215
5.85,-0.795218408,-1.394465446,-1.299095035
5.86,-0.806779385,-1.397591591,-1.272954583
5.87,-0.509190917,0.00907135,-2.173451424
5.88,-0.670350194,0.79024601,-2.299441814
5.89,-0.731727362,1.399162292,-1.972836018
5.9,-0.745588601,1.876577377,-1.359528065
5.91,-0.951132774,2.256336212,-0.618382931
5.92,-0.954837143,2.253638268,-0.591479182
5.93,-1.315646052,2.909818649,0.348282933
5.94,-1.442563534,3.259409904,0.042346358
5.95,-1.352381468,3.51020813,-0.266271114
5.96,-1.352519989,3.507369041,-0.235058844
5.97,-1.311834812,3.658280373,-0.790104687
5.98,-1.315801978,3.656454086,-0.768187463
5.99,-2.275571108,3.619070053,-1.152290225
6,-2.627759933,3.380714417,-1.433475375
6.01,-2.620519161,3.378979683,-1.413139343
6.02,-2.417315483,3.8697052,-1.65173471
6.03,-2.4033885,3.86674881,-1.614010215
6.04,0.50895077,4.033916473,0.877199411
6.05,0.501481772,4.031884193,0.909197331
6.06,2.846998692,3.647625923,4.791411877
6.07,3.150593758,3.450237274,5.699943066
6.08,3.129853487,3.449189186,5.724009514
6.09,3.806788921,2.581589699,5.037106991
6.1,3.400422812,1.704580307,4.491210461
6.11,2.22593832,0.724759102,2.70770812
6.12,2.18585372,0.032466888,1.655988693
6.13,2.196443081,-0.539787293,0.662247419
6.14,1.631153107,-0.307160378,-0.033223182
6.15,1.119335771,-0.239411354,-0.174289227
6.16,0.912083507,0.064055443,0.179203987
6.17,0.904508114,0.066782951,0.134792566
6.18,1.008577108,-0.008728027,0.31540525
6.19,1.479382753,0.050557137,0.510856032
6.2,1.582841277,0.000561714,1.08397913
6.21,1.470922112,-0.003081322,1.684285522
6.22,0.931703687,-0.097642899,2.160595417
6.23,0.922396362,-0.092295647,2.106549263
6.24,-0.683066309,-1.099010468,1.574997663
6.25,-0.943605661,-1.911542892,0.643740952
6.26,-0.930652976,-1.911784172,0.641524494
6.27,-0.53733623,-3.146045208,-0.443400264
6.28,0.032277763,-4.351418972,-0.90377146
6.29,0.557774782,-5.922598362,-0.729571164
6.3,0.62202847,-6.13803339,-0.778530121
6.31,0.623342514,-6.137560368,-0.783843696
6.32,0.542917728,-6.134018898,-0.805225492
6.33,-0.171671972,-5.186760902,-0.712961555
6.34,-0.166084215,-5.184918404,-0.732506871
6.35,-0.386889935,-4.021515369,-0.070506632
6.36,-0.449085772,-3.425706863,-0.220779896
6.37,-0.342610359,-2.895213127,-0.960943759
6.38,-0.310686916,-2.437821388,-1.615889788
6.39,-0.432112277,-1.949759483,-2.214361668
6.4,-0.883893848,-1.421435356,-2.342375517
6.41,-1.028538465,-0.785748482,-2.084514618
6.42,-0.72517699,-0.269755364,-1.376247644
6.43,-0.711045563,-0.270379067,-1.373515606
6.44,-0.191765487,0.208738327,-0.366837263
6.45,0.415444046,1.442254066,0.729432106
6.46,0.476451516,2.143956184,0.528506398
6.47,0.584035039,2.550305367,-0.237078667
6.48,0.590144754,2.548616409,-0.222602725
6.49,0.724502683,3.188015938,-0.954554677
6.5,0.420211464,3.035386086,-0.991782963
6.51,-0.152477071,2.979035378,-1.081813216
6.52,-0.620583654,3.133687973,-1.366663218
6.53,-1.104952335,3.180533409,-1.971771479
6.54,-1.083505869,3.179012299,-1.959203005
6.55,-0.772518396,3.534554482,-1.991862178
6.56,1.006573319,4.836883545,-0.111659646
6.57,1.507560492,4.998504639,1.618977547
6.58,0.864648521,5.023173332,4.102062702
6.59,0.872949898,5.028113365,4.054986954
6.6,-0.507168829,4.543059349,7.246864319
6.61,-0.240146086,2.158829689,9.510178566
6.62,-0.269220501,2.16267395,9.480051041
6.63,2.682359695,-0.55795002,6.743242741
6.64,1.74635601,-0.45154953,4.798993587
6.65,0.475575358,0.043172836,2.962794304
6.66,-0.563188434,0.876065254,0.989972472
6.67,-2.027053833,1.937496185,-0.805925369
6.68,-3.199141741,2.711000443,-1.378490686
6.69,-4.210094452,3.281381607,-1.196302295
6.7,-4.446896076,3.117836952,0.019055843
6.71,-3.902310133,2.554158211,1.530196548
6.72,-2.048904657,1.444061279,2.549276829
6.73,-0.387605965,0.080341339,2.54899025
6.74,-0.394515008,0.0828228,2.530435562
6.75,1.483512521,-2.216527939,1.078231335
6.76,1.626110315,-3.20924902,-0.031207681
6.77,1.169309258,-4.20258522,-0.558290362
6.78,0.841207504,-4.776469707,-0.99753058
6.79,0.690443218,-5.544041157,-1.542950273
6.8,0.390489578,-5.849554062,-1.670532346
6.81,-0.15095,-5.858168602,-1.301881194
6.82,-0.190538883,-5.797223568,-0.727887929
6.83,-0.227667689,-5.693173885,0.071623921
6.84,-0.257589817,-5.55127573,0.46514833
6.85,-0.279077709,-5.551635265,0.472903848
6.86,-0.164471164,-5.036596775,-0.572371662
6.87,-0.177080169,-5.040544033,-0.538860142
6.88,-0.316970229,-4.679391861,-1.901288867
6.89,-0.562412202,-4.124507427,-2.294538736
6.9,-1.026868343,-3.686470032,-2.239461899
6.91,-1.019445419,-3.691270828,-2.199804306
6.92,-1.155948997,-2.451248169,-1.303547144
6.93,-0.926798463,-1.915857315,-1.903224707
6.94,-0.909409821,-1.922121048,-1.846214771
6.95,-0.92342937,-1.281271935,-2.002930403
6.96,-0.689676642,0.057751656,-0.618905306
6.97,-0.553512096,0.598654747,-0.273729622
6.98,0.390335649,1.226862907,-0.72832793
6.99,0.375776947,1.225993156,-0.712216198
7,0.33435604,2.087228775,-1.145250678
7.01,-0.545919657,2.977458,-0.975580692
7.02,-1.440130234,4.638923645,0.275175095
7.03,-1.446993351,4.63874054,0.280733347
7.04,-2.631460667,5.095401764,-0.001131356
7.05,-3.181790352,4.790001869,-1.022524476
7.06,-3.172623873,4.787612915,-0.993717551
7.07,-3.603887558,4.747926712,-1.896794796
7.08,-0.228448242,5.206112862,-0.467437208
7.09,-0.226497412,5.203351974,-0.420905709
7.1,3.200110912,4.464419365,2.784778118
7.11,3.666735172,3.982357979,3.878683805
7.12,3.443596363,3.277868271,5.120820999
7.13,3.621052504,2.186180115,5.896043301
7.14,3.952986717,1.241971016,5.853556156
7.15,3.912889719,0.186179161,5.226772308
7.16,2.761655331,-0.440562248,3.981547117
7.17,0.990088522,-0.323532105,1.617488742
7.18,-0.568530738,-0.047228813,-1.111046076
7.19,-1.15105629,0.350237846,-2.819724321
7.2,-1.050370932,0.574742317,-2.947804213
7.21,-0.716937542,0.837465286,-1.413855076
7.22,-0.056123734,0.799625397,-0.101918757
7.23,0.527011216,0.581598282,0.701390266
7.24,0.433751881,0.493656158,1.236297607
7.25,-0.164633423,0.195431709,1.929152608
7.26,-0.506810367,-0.31311512,2.458194256
7.27,-0.71321106,-0.929203987,2.539772034
7.28,-0.711074889,-0.925488472,2.490981102
7.29,-1.057322145,-3.13083744,1.519226789
7.3,-0.701149583,-4.170963287,0.632655084
7.31,-0.657034338,-5.075558662,-0.560843945
7.32,-1.054507494,-5.569503784,-1.487615228
7.33,-1.025733232,-5.570983887,-1.485867739
7.34,-1.035095453,-5.894937515,-1.636808395
7.35,-0.457106948,-6.124559402,-1.260558367
7.36,0.196042955,-5.757320881,-0.793947041
7.37,0.21287337,-5.755895138,-0.815998673
7.38,0.602186501,-4.595378876,-0.052699506
7.39,0.890594482,-4.126815796,-0.747998357
7.4,0.764517605,-3.390331745,-1.14552629
7.41,0.779039741,-3.388774395,-1.165035963
7.42,0.368981779,-2.003296375,-1.205110788
7.43,0.377281398,-2.001751423,-1.221988916
7.44,0.147274464,-1.042736053,-1.073045611
7.45,0.057732433,-0.58936882,-0.895648122
7.46,0.151064873,-0.174739838,-0.575051546
7.47,0.136889339,0.148787499,-0.167070746
7.48,0.127014488,0.555931091,-0.162481487
7.49,0.092256054,0.98178196,-0.77197063
7.5,0.10536176,1.466981888,-1.173165202
7.51,0.193945035,2.133911133,-1.418724418
7.52,0.448651135,2.815683365,-1.368365645
7.53,0.350940883,3.354374886,-1.217499971
7.54,-0.003718063,3.793167114,-1.113143325
7.55,-0.37108168,3.938289642,-0.592308164
7.56,-0.54467243,3.969662666,0.176779032
7.57,-0.599388063,4.211666107,1.9899683
7.58,0.121391609,5.097015381,3.212769985
7.59,0.13176395,5.096793175,3.212923288
7.6,0.217981517,4.775179863,1.98974824
7.61,-0.957640171,4.171550751,1.316852927
7.62,-1.596230268,2.878397942,1.291518331
7.63,-1.672313213,1.575061798,2.212531567
7.64,-1.459437132,0.094655037,3.53740859
7.65,-0.27321431,-0.942641258,4.125027657
7.66,0.931512356,-1.300247192,4.081003189
7.67,1.185621619,-0.672290802,3.659323215
7.68,1.161046267,-0.666204453,3.608547688
7.69,0.557076931,0.254843712,2.52806282
7.7,0.329749286,2.413958549,0.504958153
7.71,-1.344083667,3.813579559,1.211516142
7.72,-3.90323472,4.726929665,3.135837555
7.73,-4.533207417,5.068714142,4.063807487
7.74,-4.513738155,5.074939728,4.019390583
7.75,-3.285303354,3.453520775,3.171164274
7.76,-3.283610106,3.456159592,3.153775215
7.77,-0.070975721,-0.624353409,1.28316617
7.78,1.250652075,-2.593878269,-0.645274103
7.79,1.899682164,-3.986634731,-1.794684172
7.8,1.707438946,-5.065565109,-1.892107725
7.81,1.660665512,-5.063520432,-1.897426605
7.82,0.671898365,-5.972523212,-0.826272905
7.83,0.827233434,-5.906341553,-0.852163494
7.84,0.827563167,-5.99342823,-0.844533742
7.85,0.274330467,-6.012118816,-0.683325768
7.86,-0.31805718,-5.777916431,-0.718150318
7.87,-0.502037466,-5.554630756,-0.866315544
7.88,-0.647109747,-5.258514881,-1.138423681
7.89,-0.552932978,-5.02885294,-1.516034245
7.9,-0.587044776,-4.819107056,-1.633098483
7.91,-0.748783588,-4.477962017,-1.672612906
7.92,-0.759305,-4.481455326,-1.644100785
7.93,-1.022038102,-3.515023232,-1.907147408
7.94,-1.121716022,-2.594143391,-2.182375908
7.95,-1.206774592,-1.635612488,-2.069248676
7.96,-1.056889534,-0.716543198,-1.54597187
7.97,-0.879961252,0.169425964,-0.56433326
7.98,-1.282561541,1.085018158,0.572830319
7.99,-1.593318939,1.696856499,0.850296378
8,-1.521339178,2.173995972,0.185496569
8.01,-1.246326923,2.484564781,-0.572224617
8.02,-0.873698354,2.752064705,-1.063722014
8.03,-0.510608912,2.809596062,-1.17246592
8.04,-0.332960814,2.968968391,-1.022949696
8.05,0.140960276,3.30946064,-1.116675615
8.06,-1.152997255,3.742925644,-0.39040041
8.07,-2.0779109,4.136401176,-0.140301883
8.08,-3.378927708,4.426465034,-0.117889524
8.09,-3.641202927,5.049780846,-0.651731134
8.1,-3.610206127,5.04559803,-0.62703824
8.11,0.195427179,5.461638451,-0.161554456
8.12,1.753956914,5.005052567,0.655697405
8.13,1.753074884,5.002671242,0.680957794
8.14,2.350466013,4.570557594,1.930206537
8.15,2.786937475,3.128703117,4.080339432
8.16,2.30348444,1.970012665,5.594369888
8.17,2.308017254,0.712094307,5.876731396
8.18,2.295572519,0.713943481,5.863409042
8.19,2.550791264,-0.827362061,3.330476284
8.2,0.836074948,-0.400249481,0.548269272
8.21,0.07600081,0.029480934,-1.646075726
8.22,0.136788368,0.561475754,-2.452872753
8.23,-0.353992671,1.218152046,-1.978152037
8.24,-0.731148362,1.757369995,-0.919502795
8.25,-0.210835442,1.800195694,-0.157144308
8.26,0.723960459,1.370707512,0.612723827
8.27,1.271242857,0.705724716,1.361793399
8.28,1.594901323,-0.049126625,1.751004457
8.29,1.582758427,-0.044481277,1.707178116
8.3,0.787886977,-1.467020035,2.118843079
8.31,-0.214982107,-2.358932018,1.815072298
8.32,-0.621946812,-3.09444046,1.052376986
8.33,-0.916395664,-3.98737812,-0.112367928
8.34,-0.895492911,-3.988935471,-0.10446161
8.35,-1.225536585,-5.157710075,-1.084964514
8.36,-1.276830792,-5.603481293,-1.092498541
8.37,-1.03123033,-5.878700256,-1.051521301
8.38,-1.00445962,-5.880167007,-1.043054819
8.39,0.102261737,-6.060453892,-1.040236831
8.4,0.120628581,-6.060583591,-1.042284489
8.41,0.835217655,-5.140447617,-0.743332982
8.42,0.677940786,-4.612625599,-0.584143996
8.43,0.658557117,-3.988806725,-0.800127983
8.44,0.388777643,-3.30513382,-1.22606039
8.45,0.025979005,-2.729502678,-1.54566133
8.46,-0.030016005,-2.082451344,-1.887080431
8.47,0.016171604,-1.385972977,-1.686660051
8.48,0.02787724,-1.386720657,-1.680147052
8.49,0.138382345,-0.815517426,-1.201474667
8.5,0.324120909,0.064364433,-0.371427715
8.51,0.526430309,0.324048042,-0.33268863
8.52,0.659907579,0.760363579,-0.884524226
8.53,0.339351207,1.61055088,-1.485450387
8.54,0.104376175,2.688138008,-1.455516815
8.55,0.092934161,3.514669418,-1.23929739
8.56,0.098029144,3.513261795,-1.224143028
8.57,-0.024371788,4.606617928,-1.282325983
8.58,-0.164305896,4.834121704,-1.471881151
8.59,-0.272105843,4.848864555,-1.30610323
8.6,-0.268405527,4.849453926,-1.312026739
8.61,-0.073949039,5.087144852,0.94907254
8.62,0.132220835,5.204865456,1.535236835
8.63,0.211169273,5.043977737,0.61116457
8.64,0.462076336,4.805185318,0.503949344
8.65,0.145882204,4.260416031,1.491857171
8.66,0.107314646,3.182375908,2.811165333
8.67,0.128305405,3.181996346,2.820085287
8.68,1.022929668,0.294445992,5.057349205
8.69,1.501060128,-0.890162468,4.904836655
8.7,1.00379324,-1.322562218,3.880453825
8.71,0.463322401,-0.998402596,2.511430502
8.72,0.130773336,-0.516271591,1.447111368
8.73,-0.083219841,0.270112991,0.993742287
8.74,-1.104322195,1.329827309,0.43183881
8.75,-2.60643959,2.691264153,0.237787306
8.76,-2.957648993,3.506755829,0.701427758
8.77,-2.527460575,3.594923973,1.380260229
8.78,-2.535402298,3.597449303,1.354939938
8.79,-2.083748102,3.272433281,2.240839481
8.8,-1.080669761,1.328746796,2.180943012
8.81,-0.311196923,-0.017967224,1.089205623
8.82,0.317113787,-1.425516129,0.224026561
8.83,0.814342856,-2.826351643,-0.337843597
8.84,1.292776823,-3.887234688,-0.485003173
8.85,1.600713611,-4.847078323,-0.51863122
8.86,1.55321002,-5.466685295,-0.474387169
8.87,1.21254921,-5.784295082,-0.549009383
8.88,0.703945279,-5.797776222,-0.594204664
8.89,0.437949538,-5.758607388,-0.549381793
8.9,0.266265422,-5.769875526,-0.712833703
8.91,0.235900685,-5.770009995,-0.706039846
8.92,-0.299560607,-5.638959408,-1.08513093
8.93,-0.334457576,-5.434146404,-1.020214319
8.94,-0.561713457,-5.121665955,-0.760334611
8.95,-0.66747433,-4.785324097,-0.715249538
8.96,-0.68425715,-4.786708832,-0.697022319
8.97,-0.480210453,-3.715940952,-1.581349611
8.98,-1.096443295,-2.959051132,-2.116446018
8.99,-1.555459023,-2.049359798,-2.268048763
9,-1.617169619,-1.066493034,-2.452027559
9.01,-1.415624022,-0.299492836,-2.098038673
9.02,-1.406934261,-0.303010941,-2.061243057
9.03,-0.659311295,0.494057655,-1.307842493
9.04,-0.498132348,1.524363518,0.906773329
9.05,-0.826955795,2.006809235,1.05688417
9.06,-0.908663988,2.565588951,0.711946547
9.07,-0.896635056,2.563790321,0.730666757
9.08,-0.664824724,3.050530434,-0.233635336
9.09,-0.478108108,3.329654694,-0.098035097
9.1,-0.483650506,3.329486847,-0.093226492
9.11,-1.550834894,3.664889336,-0.287366152
9.12,-1.555189013,3.665091515,-0.28841418
9.13,-3.402734518,3.647764206,-1.823737621
9.14,-3.386474133,3.64550972,-1.798661232
9.15,-1.019410729,4.477884293,-1.045650244
9.16,-1.008387804,4.474719048,-0.999924243
9.17,1.307644367,4.41241169,0.310486853
9.18,3.284133434,4.264595032,2.475589514
9.19,3.236213923,3.793907166,3.222844601
9.2,3.047889709,2.765608788,3.739560127
9.21,2.581931353,1.771466255,4.33643961
9.22,2.314733267,0.888210297,3.992209911
9.23,2.318652153,0.177743912,2.379626036
9.24,1.681692004,0.048993111,1.081380606
9.25,0.513436198,0.688567162,-0.094195187
9.26,0.507240892,0.688676834,-0.090807885
9.27,0.117679387,1.042984962,-1.270353079
9.28,0.672082007,1.397569656,-0.724762201
9.29,0.851841807,1.386504173,0.203110784
9.3,1.306068897,1.067344666,0.73168695
9.31,1.293902874,1.070036888,0.684788942
9.32,0.800742865,0.185021401,1.73320806
9.33,0.790925264,0.188645363,1.677849174
9.34,0.279527694,-0.248186112,2.042342186
9.35,-1.071389914,-1.643125534,1.773554802
9.36,-1.469723582,-2.595955849,0.811241269
9.37,-1.556259394,-3.490445614,0.032529116
9.38,-1.357683182,-4.481338978,-0.626535296
9.39,-0.772905111,-5.309735775,-1.111419439
9.4,-0.349469364,-5.929862022,-1.278982282
9.41,-0.027008682,-6.22896862,-0.914533734
9.42,-0.146587551,-6.149246216,-0.116062224
9.43,0.111553103,-5.915743828,0.255643487
9.44,0.749937117,-5.564865589,0.371815324
9.45,0.934022903,-5.194921494,0.387590408
9.46,0.393702358,-4.652827263,-0.309498489
9.47,-0.000763506,-4.108977795,-0.864073515
9.48,0.200054675,-3.565410137,-1.170952797
9.49,0.421126515,-3.030995369,-1.68122828
9.5,0.433679402,-3.030386925,-1.69082284
9.51,0.486667991,-2.536730766,-2.113775492
9.52,0.327791452,-1.262425423,-1.184293151
9.53,0.327153921,-0.641414642,-0.705442786
9.54,0.492535472,-0.077764511,-0.52368921
9.55,0.736912668,0.572004318,-0.285470069
9.56,0.546512187,1.212122917,-0.225585461
9.57,0.526531339,1.734714508,-0.391138673
9.58,0.520016253,1.734913826,-0.391644836
9.59,0.415959686,3.161488533,-1.48441112
9.6,0.152834147,3.778695107,-1.598386049
9.61,-0.029149875,4.231253624,-1.475072265
9.62,-0.044431269,4.445132256,-1.109307528
9.63,-0.433827102,4.467988014,-0.72202903
9.64,-0.716196179,4.550769806,-0.247553408
9.65,-0.344868779,5.083201408,0.254097283
9.66,0.401728123,5.353460312,0.273926795
9.67,0.394156814,5.352646828,0.284686983
9.68,0.149123967,5.212740898,0.938001275
9.69,-0.555278659,4.905485153,1.816937447
9.7,-1.608155131,4.210487366,2.886425495
9.71,-1.644364119,2.897868156,3.978286266
9.72,-0.421206564,1.121918678,4.443924427
9.73,1.01790905,-0.666736603,4.680751801
9.74,2.38670373,-1.749558449,4.483041763
9.75,2.455668211,-1.686217308,3.93658638
9.76,1.224144936,-1.09814167,3.364890099
9.77,0.186957061,-0.434118271,2.843150377
9.78,0.168530941,-0.428947449,2.806812286
9.79,-1.847471356,1.981062889,0.776862383
9.8,-3.222822428,3.074425697,0.147111893
9.81,-4.219423294,3.715862274,0.373587132
9.82,-4.279827595,3.708219528,0.949144721
9.83,-3.386368752,2.979071617,1.360601783
9.84,-1.851747274,1.771897316,1.272479415
9.85,-0.392220914,0.349895477,1.215129733
9.86,0.635385156,-1.119392395,1.394396305
9.87,1.322462082,-2.406404018,1.466775417
9.88,1.324482203,-3.475527763,1.02924931
9.89,0.877979398,-4.18583107,-0.046547651
9.9,0.204481363,-4.736622334,-0.578962386
9.91,-0.139243543,-5.187598228,-1.247330904
9.92,0.004755437,-5.705946922,-1.932993531
9.93,0.125848651,-6.080307484,-2.193668365
9.94,0.1001513,-6.075749397,-1.430419326
9.95,0.067660034,-6.072904587,-1.434162021
9.96,-0.481335372,-5.615307808,-0.126939774
9.97,-0.501313448,-5.613936424,-0.125668168
9.98,-0.754800439,-4.919858932,-0.831439555
9.99,-1.017907977,-4.565588474,-1.333294749
10,-1.016769528,-4.329437256,-1.842693329
10.01,-0.797886431,-4.064458847,-2.308811903
10.02,-0.644948483,-3.509425163,-2.336007595
10.03,-0.680439532,-2.717200279,-2.07444787
10.04,-0.604742169,-1.750965118,-1.719831467
10.05,-0.541235566,-0.603500366,-1.303861141
10.06,-0.683144748,0.180122376,-0.719718695
10.07,-1.011984944,1.014155388,0.148127317
10.08,-0.995893061,1.010164261,0.17312932
10.09,-1.525115252,2.238560677,-0.014778495
10.1,-1.967612505,2.916898727,-0.845932365
10.11,-1.927386522,3.372020721,-1.621915817
10.12,-1.2725842,3.664830208,-2.07591629
10.13,-0.592150033,3.757834435,-1.65907371
10.14,-0.19651705,3.886265755,-0.831378758
10.15,-0.600218236,4.01647377,-0.095335066
10.16,-0.602273166,4.016385078,-0.092586935
10.17,-1.205956697,3.942271233,0.239525616
10.18,-2.730526209,3.878881454,0.200711489
10.19,-3.307684898,5.39127636,-0.791822374
10.2,-0.756851137,5.360398293,-0.783559322
10.21,1.469959021,4.664675713,-0.217902362
10.22,2.2481215,4.076947212,1.299102545
10.23,2.63248229,3.74498558,2.645512581
10.24,3.037771463,2.842247009,3.882283211
10.25,3.269245625,1.593255043,4.954912663
10.26,3.155573845,0.508143425,5.76082325
10.27,3.117284536,0.513546944,5.72410059
10.28,2.797158957,-0.311475754,5.228274345
10.29,0.63020587,-0.375240326,1.290458083
10.3,-0.590342879,-0.005489349,-1.07921803
10.31,-0.860540152,0.647766113,-2.654043198
10.32,-0.88696909,1.166085243,-2.541799307
10.33,-0.656904519,1.370196342,-1.605088711
10.34,-0.078843772,1.154782295,-0.376778185
10.35,0.758763552,0.69984436,1.003997087
10.36,1.36360383,0.100873947,1.98171854
10.37,1.715892434,-0.496758461,2.851673365
10.38,1.320962191,-1.021793365,2.967583656
10.39,0.66295898,-1.452184677,2.492494822
10.4,-0.24250561,-1.965036392,1.578187943
10.41,-0.912204862,-2.654235363,0.664907336
10.42,-0.896744251,-2.652925968,0.642104268
10.43,-1.697482228,-4.038995266,-0.373894453
10.44,-1.684940815,-4.717086315,-0.587921202
10.45,-1.223441362,-5.189706326,-0.802984059
10.46,-0.870985985,-5.497445583,-0.773075938
10.47,-0.841574073,-5.499067783,-0.774385572
10.48,-0.483279645,-5.433853626,-0.903935909
10.49,-0.127681166,-5.320766926,-1.005852461
10.5,0.36266911,-5.058436394,-1.007003069
10.51,0.536682844,-4.560905933,-1.042175174
10.52,0.386932105,-4.041351318,-0.898904741
10.53,0.076570839,-3.451954365,-0.531022906
10.54,0.350825101,-2.955602169,-0.588386238
10.55,0.694330156,-2.325365543,-1.113621116
10.56,0.708867192,-2.326027393,-1.11235714
10.57,-0.174481839,-0.812315941,-1.587443352
10.58,-0.388641447,-0.130421639,-1.664178729
10.59,-0.40245676,0.289912224,-1.617329597
10.6,-0.092046767,0.616903305,-1.157027006
10.61,0.454114109,1.011548996,-0.822091639
10.62,0.578277588,1.502696037,-0.647330105
10.63,0.57908833,1.500810623,-0.629279435
10.64,0.587490201,2.111785889,-0.715624154
10.65,-0.221047029,3.874290466,-1.339663267
10.66,-0.720067382,4.48526001,-1.548483968
10.67,-0.636319101,4.672834396,-1.68478775
10.68,-0.655047834,4.449354172,-1.873251677
10.69,-1.098899603,4.391163826,-1.515031695
10.7,-1.084639907,4.390327454,-1.509772062
10.71,-0.072101295,5.378414154,0.778272927
10.72,0.12953575,5.219823837,1.374468088
10.73,-0.246278286,4.819311142,1.435502648
10.74,-0.217698678,4.818236351,1.442626238
10.75,-1.361268997,3.8116436,3.213795662
10.76,-1.330426097,3.810675621,3.221537352
10.77,-0.930908442,2.533569336,3.961102724
10.78,0.653612733,0.816635132,4.468752861
10.79,2.10238862,-0.517987251,4.976002693
10.8,1.785023451,-0.951182365,4.77001667
10.81,1.054437041,-0.361586571,3.497535467
10.82,0.057726003,0.417014122,2.320763111
10.83,-1.320234656,1.55657959,0.764423013
10.84,-2.689252615,2.481358528,-0.178086639
10.85,-2.671999454,2.480814934,-0.174749613
10.86,-3.592524767,3.523347855,-0.36922574
10.87,-3.76022625,3.675292969,0.041945934
10.88,-3.589324474,3.238761902,0.661834061
10.89,-1.146644115,0.985435486,0.949747205
10.9,0.153744161,-0.434573174,0.755826652
10.91,1.143906474,-1.682238579,0.634822428
10.92,1.570136547,-2.711920738,0.738573194
10.93,1.761322737,-3.669604301,0.676100731
10.94,1.575185537,-4.325381756,0.557133675
10.95,1.355546474,-4.842223644,0.370989382
10.96,0.865380824,-5.303893566,-0.004125595
10.97,0.835909247,-5.303640842,-0.000442266
10.98,0.084839195,-5.777702332,-0.98878026
10.99,-0.37752822,-5.955145836,-1.277089596
11,-0.19903262,-6.09424448,-1.021717668
11.01,0.064062089,-6.201508999,-0.912769556
11.02,0.01309374,-6.043031693,-0.666782916
11.03,-0.01146993,-6.042765617,-0.659329116
11.04,-0.210697711,-5.688470364,-0.709541321
11.05,-0.817769527,-4.568472385,-1.759265542
11.06,-0.981665254,-3.958648682,-2.410121202
11.07,-0.994010985,-3.959199905,-2.397296429
11.08,-0.949029207,-2.947392464,-2.24381566
11.09,-0.722560823,-1.158679962,-1.568671823
11.1,-0.719288111,-1.161664963,-1.532856464
11.11,-1.258828878,1.071264267,-1.381549835
11.12,-1.608192682,1.802622795,-1.052381754
11.13,-1.412547946,2.344923973,-0.250173152
11.14,-1.212653875,2.514341354,0.544875562
11.15,-1.085144758,2.411344528,0.40815866
11.16,-1.075318694,2.409115791,0.440627694
11.17,-0.612251163,2.2827034,-0.19399178
11.18,-0.060390532,2.233519554,-0.522356391
11.19,0.069864422,2.575094223,-0.447820067
11.2,-0.880711317,3.123006821,-0.287576795
11.21,-0.886817515,3.122936249,-0.280837297
11.22,-2.854614735,3.453427315,-0.846105695
11.23,-3.507897615,3.852938652,-1.559380531
11.24,-2.801576376,4.550477982,-1.95618248
11.25,-2.780852556,4.548260689,-1.919488907
11.26,0.301293045,4.730657578,-0.215180621
11.27,1.91312933,4.377482414,1.732648611
11.28,1.90380919,4.377121925,1.756387711
11.29,3.208169222,2.971714973,4.320121765
11.3,3.616101742,1.796339989,5.17639637
11.31,3.667521715,0.935046196,4.883125305
11.32,3.481287241,0.311133385,3.397526503
11.33,2.42463398,0.268876076,1.464764357
11.34,0.988933921,0.590125084,-0.376530588
11.35,0.552337229,0.913435936,-1.30475235
11.36,0.441170335,1.23203373,-1.431732893
11.37,0.731586337,1.493284225,-0.598189354
11.38,0.906553447,1.496451378,0.544772327
11.39,1.105480909,1.145950317,1.61424458
11.4,1.092133999,1.148283958,1.562042952
11.41,1.372472286,0.098079681,2.574126005
11.42,0.90917331,-0.408068657,2.394397259
11.43,0.123224795,-1.005048752,1.625477076
11.44,0.109968424,-1.001467705,1.574374914
11.45,-1.421535254,-2.27486515,0.062566757
11.46,-1.638517618,-3.194746017,-0.326956093
11.47,-1.725663662,-4.139442921,-0.6156286
11.48,-1.319971561,-4.766286373,-0.738152862
11.49,-0.932110906,-5.266406536,-0.693356216
11.5,-0.812723279,-5.493568897,-0.182780743
11.51,-0.456033886,-5.615109444,0.002226174
11.52,0.12918368,-5.616629124,-0.159389317
11.53,0.771737933,-5.261058331,-0.107522667
11.54,0.924957633,-4.874016285,-0.062856257
11.55,0.94116199,-4.872416973,-0.090214491
11.56,0.536741257,-3.736006737,0.181955099
11.57,0.551608563,-3.734372139,0.157029927
11.58,0.393945783,-3.124795914,-1.389049649
11.59,0.196658909,-2.642361164,-1.437221408
11.6,-0.156571791,-2.100019932,-1.341652632
11.61,-0.200600818,-1.639303207,-1.571646214
11.62,-0.015589535,-1.025737762,-1.489868164
11.63,-0.009710431,-1.025258064,-1.496665478
11.64,-0.004023612,0.153352737,-0.221461177
11.65,0.002157986,0.154218674,-0.232128739
11.66,0.278546095,0.755771637,0.012478352
11.67,0.685146391,1.905194283,-0.770424664
11.68,0.632385492,2.733288765,-1.068931341
11.69,0.398643851,3.77439785,-1.244066
11.7,0.364492536,4.451827049,-1.361338496
11.71,-0.074766696,4.784974098,-1.049053669
11.72,-0.329531968,4.853445053,-0.571956337
11.73,-0.296396524,4.572769165,-0.72129643
11.74,-0.746599793,4.112006187,-0.943010271
11.75,-0.958848,3.975686073,-0.682129264
11.76,-0.287224501,4.467804909,0.227353096
11.77,-0.273888052,4.465956688,0.240692139
11.78,0.652289033,4.475119591,0.620445848
11.79,0.553043127,4.196824074,1.155164957
11.8,-0.106900573,3.789486885,2.194427013
11.81,-0.676176488,2.769147873,3.078006268
11.82,-0.647353709,2.766090393,3.103616714
11.83,-0.718385696,1.46829319,3.982266665
11.84,1.419039726,-1.248083115,3.776593208
11.85,1.403485298,-1.248054504,3.779911518
11.86,1.293405533,-1.730505943,2.992004633
11.87,0.316834509,-1.05547905,2.565119982
11.88,0.290601164,-1.052585602,2.541637659
11.89,-1.181817412,1.052599907,0.67952162
11.9,-2.558551311,2.24980545,0.429075301
11.91,-2.562381268,2.25141716,0.413903713
11.92,-2.796269894,3.368286133,0.935277045
11.93,-2.789078712,3.369384766,0.922015667
11.94,-2.87519598,2.467803955,2.634723663
11.95,-1.810358524,1.547351837,2.354969501
11.96,-0.630221844,0.29617691,1.270054579
11.97,0.2921713,-1.044166565,0.239142656
11.98,0.993985772,-2.459112167,-0.007889509
11.99,0.911461651,-3.399659157,-0.217209518
12,0.024173141,-4.241585255,-0.226807356
12.01,0.50316906,-4.812572479,-0.418913364
12.02,0.843999147,-5.337705135,-0.553538919
12.03,0.386841714,-5.508536339,-0.777592957
12.04,-0.243054003,-5.512243748,-0.679733992
12.05,-0.450002581,-5.497062683,-0.358028531
12.06,-0.467836201,-5.555921078,-0.399188936
12.07,-0.4782646,-5.550154686,-0.432422757
12.08,-0.506578744,-5.42483902,-0.859437943
12.09,-0.693295956,-5.173146248,-1.090712547
12.1,-0.709457994,-5.173283577,-1.079620957
12.11,-0.89033556,-4.77387476,-1.227479696
12.12,-0.826091051,-4.183333874,-1.40900445
12.13,-0.85554266,-3.574044228,-1.363857627
12.14,-0.909137011,-2.101080894,-1.398591042
12.15,-0.947275996,-1.249005318,-1.184484839
12.16,-1.042597771,-0.389918327,-0.931266844
12.17,-1.142426014,0.313314438,-0.803532243
12.18,-1.128245831,0.309633255,-0.771032214
12.19,-1.402559042,1.409669876,0.002564192
12.2,-1.375953674,1.911169052,-0.087997854
12.21,-1.130114675,2.187550545,-0.581899703
12.22,-0.836636305,2.363426208,-1.005061269
12.23,-0.580121279,2.589922905,-1.173698783
12.24,-0.572349191,2.587143898,-1.136197567
12.25,-0.672151089,3.581074715,-0.881096304
12.26,-1.24898982,4.005960464,-1.078567982
12.27,-2.142812014,4.326024055,-1.075744987
12.28,-3.065394402,4.363752365,-0.879418731
12.29,-3.052835703,4.36250782,-0.868262053
12.3,-3.365590096,4.359967232,-0.725479305
12.31,-1.043431997,4.57694149,-0.492897719
12.32,1.069569111,4.210030556,-0.049743325
12.33,2.07961607,3.841750145,0.762935042
12.34,2.097571373,3.574883461,1.682642698
12.35,2.090152025,3.574286461,1.71377933
12.36,2.407408237,2.669039726,2.512935877
12.37,2.393466473,2.669269562,2.530063629
12.38,2.214480877,0.934181213,3.090991974
12.39,2.195171833,0.935299873,3.084885597
12.4,1.201499462,-0.17218113,2.609845877
12.41,1.283066034,-0.470989227,1.903987527
12.42,0.849009037,-0.389391899,0.231707543
12.43,0.457082868,0.029320717,-1.231282949
12.44,0.467137814,0.028759956,-1.230260015
12.45,0.603512287,0.428436279,-1.073903441
12.46,1.543284178,0.735827446,0.336011529
12.47,1.87073648,0.749354363,0.892459929
12.48,1.763386965,0.600903511,1.65163064
12.49,1.184990168,0.326399803,2.275836706
12.5,0.003183901,-0.038470268,2.272956848
12.51,-0.594619095,-0.791239739,1.5550524
12.52,-1.061632872,-1.49920845,0.699326217
12.53,-1.305037022,-2.3635149,0.26191479
12.54,-1.588693261,-3.305055618,0.372586966
12.55,-1.453644753,-4.165867329,0.263294578
12.56,-1.435636878,-4.16531992,0.243136704
12.57,-0.726902962,-5.563471317,-0.220368624
12.58,-0.416960597,-6.011222839,-0.460640878
12.59,0.022806287,-6.135661125,-0.797265708
12.6,0.297823638,-5.955759048,-0.778066874
12.61,0.478464693,-5.418728828,-0.321254313
12.62,0.779314756,-4.838131905,-0.011714697
12.63,0.79636085,-4.83665657,-0.03581512
12.64,1.173051,-3.461100101,-0.605267882
12.65,1.180255294,-3.459984303,-0.620173454
12.66,1.326470852,-2.848422527,-1.016707659
12.67,0.536698282,-1.626580238,-1.261985898
12.68,-0.177922979,-0.987167358,-1.80832994
12.69,-0.16669257,-0.988401413,-1.799159288
12.7,-0.68452096,0.062937737,-2.173480511
12.71,-0.485980153,0.436221123,-1.531613588
12.72,-0.234034225,0.584535599,-0.702535033
12.73,-0.224205807,0.582529068,-0.682370782
12.74,0.577673316,0.844460487,0.369877219
12.75,0.601151884,1.180537224,-0.009601057
12.76,0.657144308,1.748568535,-0.772810698
12.77,0.537050903,2.555840492,-1.151759863
12.78,0.535978913,2.553997993,-1.126798749
12.79,-0.232796654,4.192398071,-1.699763298
12.8,-0.755411744,4.621966362,-1.723579764
12.81,-1.349018097,4.68840313,-1.397464037
12.82,-1.558185697,4.68573761,-1.175639749
12.83,-1.074944615,4.603926659,-0.716721177
12.84,-1.059394598,4.603250504,-0.712201893
12.85,-0.160237983,5.059868813,0.688073397
12.86,-0.029146016,4.713828087,0.762342632
12.87,-0.111333668,4.336639404,1.337821007
12.88,-0.262485117,3.904614449,2.082935572
12.89,-0.232722133,3.903478622,2.095357656
12.9,-0.025426481,1.852643967,2.144218445
12.91,0.827839851,0.68314743,2.916913748
12.92,1.295999527,-0.3034935,3.786994457
12.93,1.302381396,-1.052394867,4.389661789
12.94,1.288990259,-1.051294327,4.372880459
12.95,0.983906686,-1.246488571,4.236953735
12.96,-0.054825593,-0.424473763,2.363869429
12.97,-0.066670924,-0.424185753,2.361383915
12.98,-1.827108145,0.832613945,0.893028021
12.99,-2.915538788,1.533634186,0.40968591
13,-2.8041749,1.808327675,0.157346606
13.01,-2.294674635,1.64743042,0.662033618
13.02,-2.289455414,1.647439003,0.661154747
13.03,-1.908260584,1.322295189,1.191365123
13.04,-0.853833437,0.135576248,1.541448355
13.05,-0.852220714,0.136573792,1.525717974
13.06,-0.068344422,-1.200708389,1.090131998
13.07,0.248776749,-1.903529167,0.521739543
13.08,0.558018208,-2.479522228,0.149455071
13.09,0.775715351,-3.019713879,-0.112070084
13.1,0.796463668,-3.39008379,-0.26243335
13.11,0.516186535,-3.77984333,-0.360649169
13.12,0.494164974,-3.779577255,-0.358923614
13.13,0.086349234,-4.289466858,-0.11940366
13.14,-0.128525406,-4.45239687,-0.359458298
13.15,-0.324738979,-4.594300747,-0.618029416
13.16,-0.588152468,-4.707825661,-0.787261605
13.17,-0.605387688,-4.709019661,-0.761599362
13.18,-0.236669123,-4.705358028,-0.661106706
13.19,-0.244264394,-4.507721424,-0.657692313
13.2,-0.355103195,-4.159241676,-0.902772605
13.21,-0.303654224,-3.633553982,-1.420748115
13.22,-0.31788677,-3.634382725,-1.394435644
13.23,-0.335295081,-2.284557343,-1.508226633
13.24,-0.259471595,-1.511447906,-1.303141117
13.25,-0.467394292,-0.661704063,-1.388710618
13.26,-1.269857526,0.146995544,-0.884372473
13.27,-1.706129789,0.859443665,-0.05868879
13.28,-2.030412197,1.143135071,0.040234834
13.29,-1.559066057,0.966851234,-0.364103884
13.3,-0.789583206,0.859911919,-0.644503415
13.31,-0.327161074,0.87050724,-0.874331892
13.32,-0.41137737,0.778289795,-0.967110336
13.33,-0.459407747,0.887421608,-0.721091509
13.34,-0.621828139,1.312886238,-0.387049019
13.35,-0.76711297,1.982807159,-0.583362103
13.36,-1.178896666,2.76307869,-0.808629751
13.37,-2.002560616,3.349649429,-0.834156632
13.38,-2.977615833,3.739971161,-0.952652097
13.39,-3.972897291,3.900159836,-1.104943871
13.4,-4.042784691,3.7676754,-1.785467029
13.41,-2.908816338,4.137590408,-2.309153557
13.42,-0.686720014,4.201163292,-1.640573859
13.43,1.492020726,3.819941521,-0.154488623
13.44,2.915162802,3.518507957,1.468580842
13.45,3.259080172,3.337179184,2.786240578
13.46,3.235496759,3.337875366,2.786597013
13.47,2.1054039,2.929070473,3.778551102
13.48,1.851821542,2.156395912,2.957679749
13.49,1.831956863,2.157197952,2.973751783
13.5,0.724102497,0.244919777,1.056316853
13.51,0.368023187,-0.343491554,0.739436448
13.52,0.361237168,-0.343121529,0.750917912
13.53,1.024937868,-0.948586464,-0.403565884
13.54,1.257788658,-0.76408577,-0.187390715
13.55,1.425282836,-0.484191895,0.353412688
13.56,1.427612185,-0.484517098,0.32931751
13.57,1.481116533,-0.132829666,1.078855395
13.58,1.826115489,0.357975006,1.674257159
13.59,2.003187895,0.446909905,1.712706566
13.6,1.684270859,0.53626442,1.744817019
13.61,1.228357077,0.386457443,1.845642924
13.62,1.216180325,0.38766098,1.800439835
13.63,0.401427776,0.029693604,1.581573009
13.64,-0.855983496,-1.233552933,0.401931167
13.65,-0.854811251,-1.232899666,0.375404984
13.66,-1.290801525,-2.951643467,-0.402698398
13.67,-1.294650674,-3.875746727,-0.635652185
13.68,-1.242969155,-4.474356651,-0.917890668
13.69,-1.021243095,-5.05146265,-0.872867227
13.7,-0.369613588,-5.168761253,0.109589487
13.71,-0.340593398,-5.137327194,0.789867282
13.72,-0.153271139,-4.765942097,0.696472347
13.73,-0.134423792,-4.765803814,0.676518202
13.74,0.766761065,-3.853340149,0.089706391
13.75,0.594000518,-3.594498158,-0.495608211
13.76,0.610677242,-3.59425211,-0.511611879
13.77,0.170040697,-3.17728281,-0.63177985
13.78,0.055492163,-2.190227509,-0.751561403
13.79,-0.147314191,-1.669934273,-0.825580478
13.8,-0.137462676,-1.66919899,-0.843513608
13.81,-0.116121993,-0.63422966,-0.645917356
13.82,-0.126179278,-0.147778511,-0.623492658
13.83,-0.175796494,0.079835892,-0.462675333
13.84,-0.155478507,0.223437309,-0.161601007
13.85,0.054760575,0.366981506,-0.335265666
13.86,0.233923256,0.608563423,-0.711960971
13.87,0.349096149,1.089482307,-0.928170383
13.88,0.384087145,1.546443939,-1.007282138
13.89,0.386414707,1.546183586,-1.00348711
13.9,0.145336196,2.807876587,-1.023979068
13.91,0.045962423,3.234199524,-1.148134947
13.92,-0.132956892,3.533768654,-1.312082171
13.93,-0.44709599,3.656270027,-1.242676973
13.94,-0.450703919,3.82422924,-0.840572834
13.95,-0.451752275,3.824172974,-0.839370132
13.96,0.581329882,5.123806,0.231286347
13.97,0.614151776,5.436582565,0.45407939
13.98,0.456063449,5.442565918,0.729527712
13.99,0.114564836,5.094110489,0.870308518
14,-0.2256549,4.288229942,0.919748783
14.01,-0.385564387,3.329070091,1.046853542
14.02,-0.372663677,3.327846527,1.068771124
14.03,-0.292665601,1.99093914,1.329840899
14.04,0.583621383,-0.710231781,2.588792086
14.05,0.579835415,-0.710235596,2.590209007
14.06,1.414211273,-2.041113377,2.891505957
14.07,1.135396361,-2.478945255,2.766034365
14.08,-0.508897245,-1.568736076,2.24936223
14.09,-0.508972645,-1.568378448,2.241559267
14.1,-1.575510502,-0.023734093,1.429435849
14.11,-2.343376875,0.527173996,1.135701537
14.12,-2.402487993,0.809843063,1.074933887
14.13,-1.90378201,0.769610405,1.719162464
14.14,-1.454420567,0.583731651,1.992280602
14.15,-1.163589835,0.49147892,1.389989257
14.16,-0.924485922,0.47832489,0.846981227
14.17,-0.918065786,0.479644775,0.822978139
14.18,-0.369436771,0.050240517,0.293496132
14.19,-0.228934437,-0.33370018,0.134930551
14.2,0.057542525,-0.940231323,0.271330416
14.21,0.457360178,-1.55845356,0.640343785
14.22,0.483889222,-2.01339674,1.189419746
14.23,0.520629168,-2.290717125,1.22789216
14.24,0.493217707,-2.288101196,1.200089693
14.25,0.498655379,-2.616401672,0.498133957
14.26,0.251325995,-2.717962265,0.050351679
14.27,-0.175319165,-2.767663002,-0.377599239
14.28,-0.237369746,-3.079087734,-0.818350375
14.29,-0.27709648,-3.228104115,-1.042720914
14.3,-0.415540278,-3.132761002,-0.805958211
14.31,-0.301869392,-3.029709816,-0.344543785
14.32,-0.327007055,-3.029147148,-0.339761525
14.33,-0.259987295,-2.329256058,0.118941903
14.34,-0.432850748,-1.85920763,0.182072103
14.35,-0.454185784,-1.858538151,0.185841084
14.36,-0.718367696,-1.309838295,0.061955869
14.37,-1.008744717,-1.120396614,0.357372224
14.38,-1.024321795,-1.172960281,0.626561284
14.39,-1.031861782,-1.173094749,0.633584917
14.4,-0.894143224,-1.365218163,0.672885835
14.41,-0.819754958,-1.402060509,0.195256233
14.42,-0.743695915,-0.986615181,-0.318552315
14.43,-0.614187419,-0.298412323,-0.669266462
14.44,-0.612600148,-0.299670219,-0.651316941
14.45,-0.396325141,0.992241859,-0.387308568
14.46,-0.377487391,1.8132267,0.377769887
14.47,-0.653808296,2.203598022,1.092323303
14.48,-0.82895267,1.974013329,1.710422277
14.49,-0.830348492,1.974287033,1.707310915
14.5,-1.497136593,0.420311928,1.760879517
14.51,-1.789367437,0.06255722,0.699512482
14.52,-1.120472431,0.059994698,-0.672789156
14.53,-0.347685099,0.545799255,-1.263038874
14.54,0.309967727,1.393839836,-0.938528299
14.55,0.862506509,2.640331268,-0.410210371
14.56,1.427149892,3.875851631,0.253703594
14.57,2.522184849,4.882995605,1.3204422
14.58,3.1463027,5.551147461,2.519366741
14.59,3.123822451,5.554357529,2.48363924
14.6,2.29805994,5.885796547,3.82873559
14.61,-0.1017057,3.233810425,6.436271667
14.62,-0.227485716,1.033927917,4.621909142
14.63,-0.474742353,-0.97549057,1.42145586
14.64,-0.466263235,-0.97793293,1.449759007
14.65,0.471838653,-3.374877453,-2.885294676
14.66,0.589326561,-3.398638725,-2.342071295
14.67,0.829671979,-2.544770241,-0.838867664
14.68,0.828610539,-2.543952942,-0.851234436
14.69,1.011882782,-1.442238808,0.594560266
14.7,1.14828074,0.852705002,1.903668165
14.71,0.834966123,1.999150276,2.447969913
14.72,0.472170413,2.600058556,2.937779665
14.73,0.318771184,2.410963058,3.357465267
14.74,0.44177103,1.278212547,2.903928518
14.75,0.159222543,0.095631599,1.398281693
14.76,-0.489620656,-0.923790932,0.047074199
14.77,-0.532258987,-1.686608315,-1.08207047
14.78,-0.522844672,-1.688961029,-1.062280655
14.79,0.033607423,-2.682525635,-1.599389076
14.8,0.234453082,-2.731104374,-0.737329304
14.81,0.612095177,-2.44107008,0.206005514
14.82,0.926473916,-2.021074295,0.861410499
14.83,1.041569233,-1.473745346,1.169228077
14.84,0.996938705,-0.780101776,1.384496689
14.85,0.274455428,-0.172505379,1.713442445
14.86,0.063265383,0.066167831,1.894355297
14.87,0.057651937,0.067864418,1.880170465
14.88,1.168037176,-0.586396217,1.307912827
14.89,0.911020398,-0.958283424,1.025094509
14.9,0.757330179,-1.234620094,0.967839897
14.91,0.825036168,-1.462978363,0.660127461
14.92,0.695936799,-1.325770378,0.1855551
14.93,0.320055485,-0.908110619,0.112322569
14.94,0.357163966,-0.4041605,-0.143694401
14.95,0.469648123,0.119086266,0.010685563
14.96,0.556240678,0.468388557,-0.119303346
14.97,0.642101288,0.882733345,-0.316161215
14.98,0.184121192,1.266835213,-0.171168685
14.99,-0.153502524,1.460475922,-0.198417068
15,-0.151209176,1.459383965,-0.191401124
15.01,0.040470481,1.28608799,0.009547353
15.02,0.391994715,0.656487465,0.95816803
15.03,0.117790759,0.354148865,0.659301281
15.04,-0.170408666,0.149127007,0.159727812
15.05,-0.473964632,0.055603027,-0.278992653
15.06,-0.883725405,-0.079677582,-1.006074905
15.07,-1.263796449,-0.074567795,-1.341802478
15.08,-1.212849975,-0.188658714,-1.137695432
15.09,-0.896637917,-0.282069206,-0.728998542
15.1,-0.699549675,-0.345797539,-0.193013072
15.11,-0.258884907,-0.334571838,0.356031776
15.12,0.051816523,-0.353153229,0.626344919
15.13,0.152549803,-0.320622444,0.657828689
15.14,0.063073695,-0.208966255,0.372950077
15.15,0.074472189,-0.210276604,0.376895666
15.16,-0.076065779,-0.209376335,-0.090290368
15.17,-0.157111585,-0.196494103,-0.541448355
15.18,-0.423047572,-0.090270996,-0.922427714
15.19,-0.510005355,0.015755653,-0.944402933
15.2,-0.664593875,0.164520264,-0.709910274
15.21,-0.758585334,0.283988953,-0.378709734
15.22,-0.659911633,0.326428413,-0.114712596
15.23,-0.643225551,0.323131561,-0.092933893
15.24,-1.008286476,0.1421175,-0.397873342
15.25,-1.09400475,0.022758484,-0.471874595
15.26,-1.290110111,-0.106423378,-0.41036585
15.27,-1.116532087,-0.257246971,-0.758657515
15.28,-1.009738803,-0.3985672,-0.688240767
15.29,-1.088224769,-0.426986694,-0.500196934
15.3,-0.568088293,-0.624914169,-0.170329928
15.31,-0.531401932,-0.627790451,-0.152331352
15.32,-0.784523845,-0.488574028,0.071133137
15.33,-0.811683595,-0.327466011,-0.015209079
15.34,-0.286694825,-0.271447182,-0.397453249
15.35,-0.289200366,-0.117066383,-0.564832926
15.36,-0.265800536,-0.11818409,-0.557234108
15.37,-0.170157537,0.216198921,-0.333718002
15.38,-0.097279347,0.347281456,-0.085439861
15.39,-0.086707972,0.346899986,-0.083073139
15.4,0.125245363,0.042649269,0.042602599
15.41,0.129037753,0.042316437,0.046349406
15.42,-0.369442105,-0.245644569,-0.754624367
15.43,-0.772499144,-0.198517799,-0.788337708
15.44,-0.801152706,-0.173096657,-0.690771043
15.45,-0.61040163,-0.047165871,-0.07544744
15.46,-0.385821134,-0.167495728,-0.027156234
15.47,-0.073228173,-0.139164925,0.315412581
15.48,0.052768745,-0.084141731,0.538294315
15.49,0.001910798,0.035556793,0.076253057
15.5,-0.246314377,0.037590981,-0.519771278
15.51,-0.276765555,0.113599777,-0.451305568
15.52,-0.271517158,0.113048554,-0.443375647
15.53,-0.206016645,0.170191765,0.190993369
15.54,-0.065959498,0.150875092,0.013915122
15.55,-0.066746265,0.150604248,0.018361866
15.56,-0.122383326,0.162269592,-0.139128208
15.57,-0.081647336,0.058979988,-0.107452989
15.58,-0.05957805,0.03458786,-0.161903739
15.59,-0.068218745,0.026791573,-0.201959878
15.6,0.075238936,-0.079217911,-0.255411148
15.61,0.181640923,-0.122879028,0.072915792
15.62,-0.043211363,-0.152003288,0.486856222
15.63,0.067263998,-0.262466431,0.420818567
15.64,0.065812342,-0.262878418,0.428800762
15.65,0.316117644,-0.349580765,0.080154359
15.66,0.329183668,-0.385951042,-0.255149633
15.67,0.262593329,-0.266541481,-0.348802179
15.68,0.299420685,-0.19006443,-0.253440499
15.69,0.225025073,-0.127859116,-0.078349024
15.7,0.15060024,0.003833771,0.071586549
15.71,0.142940953,0.003939629,0.071782947
15.72,0.413500458,-0.005461693,0.033008099
15.73,0.275198102,-0.002883911,0.107238501
15.74,0.118461996,0.04281044,0.032486141
15.75,-0.016210988,0.031025887,0.04940185
15.76,-0.0446354,0.028727531,-0.255608738
15.77,-0.156209171,0.004743576,-0.533933103
15.78,-0.371290654,0.030990601,-0.521856308
15.79,-0.397559136,0.045285225,-0.204508632
15.8,-0.400933862,0.045225143,-0.201857835
15.81,-0.337476492,0.030675888,-0.123283863
15.82,-0.223990768,0.008803368,0.000557721
15.83,-0.08117342,-0.135262489,0.089607716
15.84,-0.012278765,-0.197910309,-0.091566801
15.85,-0.009759471,-0.198397636,-0.082018644
15.86,-0.569541812,-0.069704056,-0.475726366
15.87,-0.38968879,-0.089495659,-0.792336822
15.88,-0.150862396,-0.037487984,-0.700341225
15.89,-0.147481233,-0.037959099,-0.690549016
15.9,-0.043082476,-0.05018425,0.110310912
15.91,0.046875879,-0.009498596,0.501370549
15.92,0.254106462,0.067306519,0.533934534
15.93,0.22722888,0.057935715,-0.033459425
15.94,0.009484172,0.077085495,-0.3229689
15.95,-0.151462048,0.163137436,-0.109607041
15.96,-0.154640675,0.16304493,-0.105230451
15.97,-0.108582906,-0.018967628,0.018036008
15.98,-0.084237278,-0.078876495,-0.212744474
15.99,-0.171980664,-0.055017471,-0.406960875
16,-0.327352732,0.023815155,-0.357945919
16.01,-0.429647505,0.045108795,-0.259967357
16.02,-0.372097313,0.126146317,-0.057517827
16.03,-0.024957627,0.075489998,-0.038664639
16.04,0.123979569,0.024850845,0.108160883
16.05,0.238961473,-0.025775909,0.30557397
16.06,0.239521161,-0.026133537,0.316725493
16.07,-0.06480521,-0.18460083,-0.053343549
16.08,-0.078757092,-0.261710167,-0.292294204
16.09,-0.076313496,-0.262194634,-0.276951969
16.1,-0.062288687,-0.284142494,-0.420468599
16.11,-0.158769965,-0.112067223,-0.45010978
16.12,-0.202631533,0.009803772,-0.214000419
16.13,-0.177904636,0.076682091,0.036380574
16.14,-0.058324173,0.105319977,0.194318101
16.15,-0.080954596,0.15791893,0.258379161
16.16,0.012271017,0.062034607,0.117727622
16.17,-0.142868489,0.004404068,-0.010973662
16.18,-0.155291468,-0.093948364,-0.168345153
16.19,-0.239834666,-0.185105324,-0.146563381
16.2,-0.238420129,-0.185229302,-0.141165614
16.21,-0.087559178,-0.163758278,-0.187480867
16.22,-0.152359501,-0.099149704,0.0879796
16.23,-0.145099521,-0.044106483,0.289812088
16.24,-0.103703611,0.020515442,0.28320384
16.25,-0.149774462,0.020458221,0.308962435
16.26,-0.146763593,0.020347595,0.31144461
16.27,-0.14312844,-0.056398392,-0.029411167
16.28,-0.140268087,-0.085279465,-0.11731939
16.29,-0.168840185,-0.102157593,-0.251522243
16.3,-0.166836441,-0.102256775,-0.246749938
16.31,-0.37481457,0.014946938,-0.19224903
16.32,-0.137327284,0.019636154,0.304303348
16.33,0.059947833,-0.033086777,0.58323431
16.34,0.058765635,-0.033062935,0.584418237
16.35,0.156046823,-0.183903694,0.53980583
16.36,0.155813023,-0.183886528,0.539011478
16.37,0.11824958,-0.097698212,0.49248156
16.38,-0.154408485,-0.059504509,-0.213601396
16.39,-0.133588687,-0.004572868,-0.727749348
16.4,-0.201241836,0.019377708,0.087182619
16.41,-0.092649505,-0.018860817,0.372796476
16.42,-0.06867452,-0.035507202,0.468109071
16.43,-0.070312351,-0.061754227,0.381577164
16.44,-0.07078144,-0.061675072,0.377853751
16.45,-0.129587635,-0.018597603,0.169681892
16.46,-0.128498957,-0.018638611,0.171740875
16.47,0.03451018,0.019619942,0.186501876
16.48,0.1201666,0.019589424,0.200528413
16.49,0.107160911,0.019573212,0.057476267
16.5,-0.116252206,0.019526482,-0.177518487
16.51,-0.132574901,0.00507164,-0.170425028
16.52,-0.203891113,-0.021385193,0.100626111
16.53,-0.203275308,-0.021460533,0.107337594
16.54,-0.132098228,-0.117287636,-0.014613122
16.55,-0.13251324,-0.117355347,-0.007235289
16.56,-0.133451685,-0.105414391,0.012479909
16.57,-0.134926722,-0.105436325,0.017268606
16.58,-0.104791328,-0.103049278,-0.007401429
16.59,-0.14492029,-0.057603836,0.229554236
16.6,-0.231849015,-0.033687592,0.351093441
16.61,-0.207285568,-0.028961182,0.170576423
16.62,-0.211580277,-0.019467354,-0.016433977
16.63,-0.173409313,-0.038653374,0.07416933
16.64,-0.172249913,-0.038696289,0.074454583
16.65,-0.098001957,0.018792152,0.414687157
16.66,-0.097461566,0.018800735,0.411743522
16.67,-0.096420541,0.018808365,0.378165573
16.68,-0.119031161,-0.096150398,0.125862479
16.69,-0.071648426,-0.182376862,0.116482943
16.7,-0.069974355,-0.182396889,0.116759419
16.71,-0.085266247,-0.182433128,-0.094802216
16.72,-0.159945354,-0.050779343,0.247420669
16.73,-0.184983581,-0.046000481,0.415622622
16.74,-0.155309439,0.018660545,0.068115003
16.75,-0.09533333,0.018659592,-0.107655779
16.76,-0.112970337,0.018680573,0.244040161
16.77,0.069287479,-0.021965981,0.72934562
16.78,0.087356597,-0.127209663,0.358342171
16.79,-0.071710609,-0.273182869,-0.036618099
16.8,-0.032760039,-0.182180405,0.100028873
16.81,-0.12241438,-0.098330498,-0.040659856
16.82,-0.15105769,-0.007347107,-0.143171698
16.83,-0.124772996,0.019012451,0.076165169
16.84,-0.101735666,0.028613091,0.3928864
16.85,-0.060017318,0.028664589,0.42866087
16.86,0.067484006,0.019159317,0.277646005
16.87,-0.080210142,0.019175529,0.198386788
16.88,-0.118640117,0.019188881,0.087722346
16.89,-0.118374161,0.019175529,0.087764144
16.9,-0.079641111,-0.009578705,0.000213787
16.91,-0.129796669,-0.011975288,0.233043551
16.92,-0.041000113,-0.03352356,0.265734553
16.93,0.023039445,-0.026320457,0.213128895
16.94,-0.109198034,0.004796028,0.126072168
16.95,-0.075497873,0.019135475,0.02630955
16.96,-0.07571619,0.019089699,0.031395763
16.97,0.007074252,-0.076723099,-0.137006238
16.98,-0.096910074,-0.026496887,-0.177992612
16.99,-0.133779019,0.01899147,-0.180631965
17,-0.135048017,0.0189991,-0.178395286
17.01,-0.16995348,0.019020081,-0.056112789
17.02,-0.130891562,0.019058228,0.276511371
17.03,-0.132098585,0.019073486,0.276750445
17.04,-0.129678875,-8.86917E-05,0.278055668
17.05,-0.027779251,-0.067127228,0.282001019
17.06,-0.076571345,-0.079089165,0.111343101
17.07,-0.139056012,-0.064743042,-0.041210182
17.08,-0.11516206,-0.009695053,-0.109661937
17.09,-0.058013067,0.023814201,-0.087092087
17.1,-0.041698545,0.021430016,0.072215408
17.11,-0.142180353,0.023812294,0.233663514
17.12,-0.172171071,0.0189991,0.466118038
17.13,-0.122776635,0.018983841,0.379390448
17.14,-0.107414082,0.009366989,0.229122818
17.15,-0.025229275,-0.036147118,0.017650884
17.16,-0.101661369,-0.038550377,-0.020632453
17.17,-0.065762147,0.009321213,0.024114601
17.18,-0.078084812,-0.091222763,0.194753707
17.19,-0.130924285,-0.002636909,0.06764175
17.2,-0.161190033,0.02367115,-0.115727812
17.21,-0.11898426,0.049971581,0.190914929
17.22,0.087313861,-0.057776451,0.734486342
17.23,0.127337307,-0.163097382,0.645567715
17.24,-0.043185785,-0.096038818,0.310382754
17.25,-0.089847587,-0.100850105,0.236148521
17.26,-0.030262887,-0.09130764,0.210632175
17.27,-0.135796636,-0.124880791,-0.068455771
17.28,-0.147484884,-0.127333641,-0.235222727
17.29,-0.191672921,-0.053144455,-0.071467519
17.3,-0.206064865,-0.012441635,0.263790846
17.31,-0.127863944,0.018707275,0.251648873
17.32,-0.129396856,0.018740654,0.184101313
17.33,-0.130337641,0.018771172,0.21965459
17.34,-0.08292415,0.01878643,0.131768495
17.35,-0.130710572,0.018785477,0.141327754
17.36,-0.129350096,0.018761635,0.142127097
17.37,-0.13260895,0.018735886,0.338576287
17.38,-0.045645833,-0.005225182,0.090375423
17.39,-0.011589974,-0.031594276,-0.031861339
17.4,0.024438709,-0.079500198,0.076479435
17.41,-0.016080409,-0.055573463,0.171943978
17.42,-0.080200635,-0.050812721,0.146576911
17.43,-0.060055092,-0.058029175,0.102692455
17.44,-0.059139147,-0.058049202,0.106215663
17.45,-0.136456847,-0.026955605,0.152110428
17.46,-0.18550387,0.018501282,0.11223419
17.47,-0.31060946,0.016069412,0.154103786
17.48,-0.147630513,0.020815849,0.097713143
17.49,-0.146018982,0.020792961,0.102169827
17.5,-0.101112939,0.027932167,0.381782234
17.51,-0.098041572,0.018318176,0.305715114
17.52,-0.058356114,-0.015263557,0.008394685
17.53,-0.102223605,-0.075188637,-0.145765588
17.54,-0.129093275,-0.111139298,-0.301665187
17.55,-0.094465539,-0.113581657,-0.370404005
17.56,-0.091888383,-0.077680588,-0.196045294
17.57,-0.015492901,-0.01305294,0.033388548
17.58,0.005175218,0.01803875,0.380387157
17.59,0.006591514,0.018026352,0.379715234
17.6,-0.036742829,0.070655823,0.649556339
17.61,-0.055725247,0.01795578,0.482268035
17.62,-0.036359817,-0.027570724,0.14606297
17.63,-0.076917887,-0.09462738,-0.069965228
17.64,-0.134445742,-0.147299767,-0.109977722
17.65,-0.273464859,-0.063511848,-0.210508779
17.66,-0.146594077,-0.027594566,-0.313627869
17.67,0.063779168,-0.041950226,0.113521531
17.68,0.040387981,-0.025172234,0.38000235
17.69,-0.066369683,0.04668808,0.198444307
17.7,-0.066080637,0.046697617,0.201109737
17.71,-0.071414918,0.087398529,0.324594498
17.72,-0.114298359,0.11850071,0.291673958
17.73,-0.19197306,-0.032343864,-0.118363425
17.74,0.007559404,-0.132863998,-0.250490814
17.75,0.086606644,-0.118430138,-0.125735134
17.76,0.087035976,-0.118372917,-0.120128393
17.77,-0.052371774,-0.046525002,0.424902558
17.78,0.043187335,-0.012994766,0.210354835
17.79,0.04294797,-0.012961388,0.213381469
17.8,-0.071172342,0.022997856,0.062505484
17.81,-0.069555253,0.023036957,0.067620933
17.82,0.137541592,-0.003243446,0.15143998
17.83,0.125816301,0.018379211,0.085591987
17.84,-0.049569651,0.051996231,0.100958407
17.85,-0.046420246,0.052096367,0.110766977
17.86,-0.067134678,0.042673111,0.107684061
17.87,-0.000102952,-0.076847076,-0.047032908
17.88,-0.034127604,-0.143694878,-0.011890426
17.89,-0.033133913,-0.143596649,-0.005433798
17.9,-0.035414498,-0.160283089,0.256368607
17.91,-0.035734233,-0.160268784,0.257103622
17.92,-0.102735348,-0.136342049,0.261369348
17.93,-0.237421244,-0.15311718,0.229720026
17.94,-0.140775293,-0.208233833,0.14015162
17.95,-0.077859923,-0.17474556,0.027122408
17.96,-0.067408159,-0.119708061,-0.004828811
17.97,-0.063992217,-0.119760513,-0.00589703
17.98,-0.058319651,0.031037331,0.150809065
17.99,-0.055772595,0.030989647,0.149718925
18,0.085031867,0.021383286,0.160610691
18.01,0.087112181,0.021380425,0.16065453
18.02,0.015478216,-0.019347191,0.129554093
18.03,0.144781262,-0.069655418,0.133690029
18.04,0.14671281,-0.069663048,0.133026883
18.05,-0.06123846,0.018877983,0.416574597
18.06,-0.03871537,-0.043414116,0.267074198
18.07,-0.017176615,-0.04341507,0.133583129
18.08,-0.015050123,-0.043383598,0.13503246
18.09,0.008381389,-0.103216171,0.033975109
18.1,-0.261871874,-0.067277908,-0.11782521
18.11,-0.196375758,-0.055309296,-0.054845765
18.12,-0.046090942,-0.088856697,0.135438621
18.13,-0.045159798,-0.088912964,0.132687569
18.14,-0.065698214,-0.031535149,0.33673358
18.15,-0.007001987,-0.012495995,0.631658316
18.16,0.020657225,-0.024594307,0.598770261
18.17,-0.050987553,0.018375397,0.325646639
18.18,0.036676049,0.006369591,-0.061682194
18.19,0.249596626,-0.012757301,-0.139084369
18.2,0.032199558,0.018370628,0.28288728
18.21,0.03031265,0.035053253,0.477522194
18.22,-0.046290115,0.054106712,0.430246562
18.23,-0.175474271,0.018111229,0.283035666
18.24,-0.278971493,0.018073082,0.282540351
18.25,-0.20156157,-0.037020683,0.266490102
18.26,-0.078725316,-0.116043091,0.162955865
18.27,0.024629124,-0.190244675,0.255481154
18.28,0.026917234,-0.190223694,0.256826997
18.29,-0.080479167,-0.252465248,0.174375892
18.3,-0.086529851,-0.218884468,-0.106700167
18.31,-0.097890474,-0.228358269,-0.349503279
18.32,-0.095456228,-0.228242874,-0.342517078
18.33,-0.198577002,-0.072547913,0.02319397
18.34,-0.197009906,-0.07253933,0.024900481
18.35,-0.148595691,0.04719162,0.379371226
18.36,-0.183521971,0.018457413,0.218531907
18.37,-0.157735363,-0.036569595,0.05082652
18.38,-0.155942053,-0.03650856,0.054836631
18.39,-0.115630791,-0.21361351,0.048417121
18.4,0.067554295,-0.196804047,0.079899751
18.41,0.066541903,-0.196804047,0.080148764
18.42,0.079161584,-0.19444561,0.286574066
18.43,0.107589588,-0.196926117,0.224638999
18.44,0.218330175,-0.163505554,0.113382563
18.45,0.126539782,-0.09897995,0.063578524
18.46,0.02226831,0.011021614,0.20103243
18.47,-0.036481839,0.018036842,0.408052206
18.48,0.033785589,0.01789856,0.581082702
18.49,-0.012990268,0.012985229,0.498678446
18.5,-0.208908573,0.017692566,0.380259723
18.51,-0.208830759,-0.03264904,0.214138061
18.52,-0.100174122,-0.133236885,-0.112101376
18.53,-0.10136129,-0.133218765,-0.11075785
18.54,-0.245273218,-0.099677086,-0.11159876
18.55,-0.264144778,0.015249252,-0.082192041
18.56,-0.263408303,0.015255928,-0.081752189
18.57,-0.235874757,0.02004528,0.052429784
18.58,-0.236152411,0.020044327,0.052148338
18.59,0.079989851,-0.078145027,0.681767345
18.6,0.076417252,-0.078180313,0.676870465
18.61,0.074987881,-0.102170944,0.36462146
18.62,0.005425386,-0.016000748,0.060772598
18.63,-0.164165318,-0.032779694,-0.269990593
18.64,-0.096865729,0.003139496,-0.266486228
18.65,-0.112655208,0.01748848,0.2426579
18.66,-0.040722471,0.082097054,0.625442565
18.67,-0.11683847,0.038975716,0.592139542
18.68,-0.069420233,0.017392159,0.241627261
18.69,-0.016130321,-0.030506134,0.042319164
18.7,-0.017641604,-0.030491829,0.042201675
18.71,-0.016318753,0.007820129,0.105495021
18.72,0.034814201,0.003044128,0.280654967
18.73,0.138019428,-0.02806282,0.462069511
18.74,0.140388936,-0.06396389,0.375880599
18.75,0.013925284,-0.063943863,0.099554017
18.76,-0.025575537,-0.116576195,0.005140506
18.77,-0.090648822,-0.150062561,0.010127645
18.78,-0.203160435,-0.123720169,0.062955566
18.79,-0.090644151,-0.023121834,0.019062649
18.8,-0.02714001,0.017621994,-0.005727515
18.81,-0.031206891,0.087096214,0.10571605
18.82,-0.092291258,0.111067772,0.1271718
18.83,-0.150602579,0.07278347,0.198640496
18.84,-0.160058379,0.017720222,0.192705631
18.85,-0.160022438,0.017724037,0.193674177
18.86,-0.047621582,-0.219299316,0.085998438
18.87,-0.048027534,-0.219294548,0.085209042
18.88,-0.077284314,-0.106788635,0.451828927
18.89,0.06109906,-0.0804739,0.334051848
18.9,0.059850812,-0.080465317,0.332828164
18.91,0.066850677,0.058411598,0.433965504
18.92,-0.033334475,0.053622246,0.313485086
18.93,-0.048728082,0.029695511,0.148901999
18.94,-0.030554492,0.017741203,0.041948363
18.95,-0.029674787,0.01776123,0.044851393
18.96,-0.029066008,-0.042080879,-0.123320468
18.97,0.070593081,-0.022920609,0.010489464
18.98,0.056902342,-0.034899712,0.192791402
18.99,-0.004210673,0.010568619,0.182348102
19,-0.246791422,0.017731667,0.102790006
19.01,-0.347994328,0.041648865,0.132080764
19.02,-0.278552234,0.005708694,0.185719937
19.03,0.019460708,-0.075706482,0.310900837
19.04,0.052835591,-0.14752388,0.302178025
19.05,-0.028503988,-0.240891457,0.205320329
19.06,-0.027469676,-0.243283272,0.38907212
19.07,0.021489583,-0.137951851,0.130161628
19.08,-0.041758832,-0.106811523,-0.355449438
19.09,-0.023496393,0.015302658,-0.316369265
19.1,-0.023289178,0.015292168,-0.316870779
19.11,-0.034121536,0.09187603,0.663694263
19.12,-0.037264511,0.09183979,0.655207872
19.13,-0.05989749,0.019972801,0.540767789
19.14,-0.150266707,0.017541885,0.268768519
19.15,-0.356254131,0.01513958,0.123445913
19.16,-0.184028909,0.012705803,0.054595076
19.17,-0.043201942,0.017487526,0.045511313
19.18,-0.041264247,0.017499924,0.047792993
19.19,-0.002616026,0.000727654,0.344811589
19.2,-0.003908843,0.017464638,0.244777754
19.21,0.07670287,0.017481804,0.201635659
19.22,0.025623027,-0.013631821,0.246074826
19.23,0.029818434,-0.013599396,0.252797127
19.24,-0.123901039,-0.037521362,0.218939185
19.25,-0.119997598,-0.037484169,0.225515068
19.26,-0.000899434,-0.085309982,-0.096086636
19.27,-0.000683453,-0.08525753,-0.090467624
19.28,-0.249479353,-0.061275482,0.10670951
19.29,-0.209898159,-0.082814217,0.080255225
19.3,-0.199010566,-0.085199356,0.045987405
19.31,-0.238222703,-0.058853149,0.084834151
19.32,-0.236361593,-0.058869362,0.08430136
19.33,-0.155800074,-0.037341118,0.200241059
19.34,-0.122524932,0.017695427,0.463685036
19.35,-0.014976401,-0.025438309,0.207440972
19.36,-0.108662985,-0.027845383,0.111684606
19.37,-0.106485643,-0.027842522,0.111951441
19.38,-0.197523981,-0.114035606,0.031405047
19.39,-0.195563197,-0.114032745,0.031909488
19.4,-0.065592855,-0.085295677,-0.018345147
19.41,0.006246494,-0.001523972,0.324516118
19.42,0.023078607,0.017593384,0.32861793
19.43,-0.06540902,0.022369385,0.355426431
19.44,-0.129402116,0.017579079,0.232570529
19.45,-0.109765396,-0.023124695,0.06552951
19.46,-0.177105248,0.01041317,-0.21983555
19.47,-0.177548021,0.010447502,-0.216481566
19.48,-0.006469561,0.017655373,0.108662762
19.49,0.079474822,-0.01824379,0.730829954
19.5,0.016573755,-0.020662308,0.757457256
19.51,0.014521206,-0.020657539,0.755677402
19.52,-0.075724661,-0.216978073,0.054212067
19.53,-0.076060764,-0.21695137,0.056255851
19.54,-0.040652841,-0.202584267,-0.088819928
19.55,-0.041322995,-0.202530861,-0.085243829
19.56,-0.071849652,-0.157010078,-0.391210139
19.57,-0.112976909,-0.092384338,0.508220673
19.58,0.001912192,-0.094842911,0.656858861
19.59,-0.003537305,-0.058970451,0.427036434
19.6,-0.151444733,0.017611504,0.147783876
19.61,-0.244893566,0.024766922,0.096935503
19.62,-0.265298933,0.022349358,0.02773783
19.63,-0.265863001,0.022334099,0.02486958
19.64,-0.06040749,0.01753521,0.164849937
19.65,-0.132717967,0.084559441,0.428980112
19.66,-0.012759309,0.084540367,0.283656299
19.67,0.133114055,0.01750946,0.190911427
19.68,0.08953166,0.017526627,0.204950541
19.69,0.089851394,0.017539024,0.207842767
19.7,0.02808072,-0.02792263,0.268377602
19.71,0.072869636,-0.047045708,0.206947058
19.72,-0.014129721,-0.092494011,-0.003022641
19.73,-0.015351955,-0.092480659,-0.000389956
19.74,-0.126343161,-0.102039337,0.039290901
19.75,-0.033726621,-0.080475807,0.240846917
19.76,-0.056294497,-0.080460548,0.229325056
19.77,-0.057189401,-0.080444336,0.230668873
19.78,0.009283893,-0.080416679,0.053146116
19.79,-0.020263981,-0.078014374,0.04017631
19.8,-0.099500977,-0.008563042,-0.018579617
19.81,-0.060573272,0.008198738,0.046383496
19.82,-0.108264417,0.017746925,0.075611413
19.83,-0.108075909,0.017726898,0.07402093
19.84,-0.071624026,0.036870956,0.221511722
19.85,-0.044425711,0.012937546,0.265196115
19.86,-0.016759485,-0.032544136,0.283048511
19.87,-0.079853289,-0.02058506,0.245548219
19.88,-0.077709556,-0.020591736,0.246117562
19.89,-0.025048446,-0.090027809,0.045339536
19.9,0.033859387,-0.099618912,0.045352105
19.91,0.03486973,-0.099637985,0.045193698
19.92,-0.061109427,-0.087676048,0.150028586
19.93,-0.238041505,-0.008682251,0.044667337
19.94,-0.132246316,-0.006295204,0.149687514
19.95,0.002990123,-0.051805496,0.488850057
19.96,0.10336379,-0.070976257,0.546241999
19.97,-0.055386081,-0.008750916,0.126430333
19.98,-0.272945344,0.017568588,0.037305865
19.99,-0.3539083,0.04629612,0.095069781
20,-0.349661738,0.046285629,0.095440954
20.01,-0.333280712,0.110938072,-0.500099659
20.02,-0.193826586,0.110978127,-0.253039688
20.03,-0.01331168,0.077482224,0.196940407
20.04,-0.01431852,0.077459335,0.195074916
20.05,0.053292319,0.091798782,0.587796807
20.06,0.081062078,0.017576218,0.514771819
20.07,0.012236308,0.012795448,0.249968827
20.08,0.012109978,-0.023098946,0.064120442
20.09,-0.052249096,-0.147535324,0.052987713
20.1,-0.048909724,-0.147485733,0.059166987
20.11,-0.086337611,-0.231235504,0.064162016
20.12,0.024275923,-0.180893898,0.229378223
20.13,0.026973201,-0.180830956,0.235419855
20.14,-0.299389213,-0.015522957,-0.026981458
20.15,-0.294466376,-0.015408516,-0.018072173
20.16,-0.164059147,0.018248558,-0.28447938
20.17,-0.162672073,0.018362045,-0.276980251
20.18,0.042717081,0.111818314,0.084152088
20.19,0.064677134,0.121398926,0.484410703
20.2,0.112702109,0.044745445,0.773999631
20.21,0.082527921,-0.019942284,0.584971249
20.22,0.03695282,-0.103736877,0.30964601
20.23,-0.060046621,-0.244984627,0.107851155
20.24,-0.180418029,-0.259303093,0.085983455
20.25,-0.149309188,-0.194631577,-0.041753426
20.26,-0.228526369,-0.058119774,-0.219101116
20.27,-0.281096458,0.073612213,-0.246737644
20.28,-0.08215221,0.186209679,-0.137290612
20.29,0.000800941,0.207856178,0.127742514
20.3,0.052422777,0.171983719,0.358456731
20.31,0.130524829,0.100219727,0.423159361
20.32,0.184576899,0.018872261,0.536554754
20.33,0.212025374,-0.096008301,0.43355757
20.34,0.212794319,-0.095967293,0.435956746
20.35,0.051282443,-0.24673748,0.058428437
20.36,-0.067477353,-0.227524757,-0.000726774
20.37,-0.200422779,-0.217906952,-0.003371879
20.38,-0.318617612,-0.179578781,-0.070094481
20.39,-0.356918782,-0.011968613,-0.129329711
20.4,-0.279430568,0.019201279,-0.018045083
20.41,-0.276387543,0.019211769,-0.017259181
20.42,-0.025222853,0.019219399,0.533057511
20.43,-0.023614541,0.019174576,0.530910254
20.44,-0.019739671,-0.062229156,0.47558099
20.45,0.062630713,-0.124481201,0.272241235
20.46,-0.07472185,-0.011926651,-0.067247212
20.47,-0.07969518,-0.042989731,-0.322597623
20.48,0.058056835,0.019379616,0.027220011
20.49,0.081669621,0.024216652,0.345533997
20.5,0.075103536,0.045740128,0.53637892
20.51,-0.010332156,0.033721924,0.503197014
20.52,-0.073059984,0.019309998,0.252139896
20.53,-0.206298828,0.019312859,0.012816146
20.54,-0.322819322,-0.014136314,0.015422821
20.55,-0.317911685,-0.014061928,0.017961994
20.56,-0.071448818,-0.198360443,0.163694993
20.57,0.108823732,-0.243787766,0.304964453
20.58,0.111242771,-0.243731499,0.30693984
20.59,0.068558723,-0.190987587,0.24956046
20.6,-0.112354383,-0.109460831,-0.060375482
20.61,-0.195410863,-0.008792877,-0.13951385
20.62,-0.19766289,0.046382904,-0.135803595
20.63,-0.195966601,0.046471596,-0.132858485
20.64,-0.308954656,0.101585388,0.069413006
20.65,-0.283897251,0.13510704,0.186418578
20.66,-0.127549261,0.089605331,0.32278645
20.67,-0.131049812,0.053734779,0.352834076
20.68,-0.136004433,0.020258904,0.248928577
20.69,-0.059509307,-0.025150299,0.102626115
20.7,-0.057942204,-0.025087357,0.105015934
20.71,-0.071120977,-0.154314041,0.121181041
20.72,-0.070209995,-0.154319763,0.121026427
20.73,-0.01472199,-0.166316986,0.193930849
20.74,0.013999663,-0.147198677,0.218967304
20.75,0.097339556,-0.111304283,0.203802332
20.76,0.038735971,-0.099348068,0.191669628
20.77,0.037946574,-0.099387169,0.190873221
20.78,0.020111717,-0.075476646,0.22028321
20.79,0.001484826,-0.032423019,0.116283104
20.8,-0.089180142,0.017838478,-0.039186955
20.81,-0.083848499,0.020256996,-0.090792179
20.82,-0.133334696,0.037034035,0.039681733
20.83,-0.13208054,0.065768242,0.178933412
20.84,-0.22851643,0.034646034,0.191529632
20.85,-0.204379618,0.041861534,0.123423114
20.86,-0.127184734,0.020392418,0.025777698
20.87,-0.119721346,0.01329422,0.084203526
20.88,-0.000674836,-0.046526909,0.23146075
20.89,0.114758089,-0.180644035,0.712301135
20.9,0.112639196,-0.180727005,0.709463
20.91,0.097142503,-0.188015938,0.757870257
20.92,0.113549963,-0.19528389,-0.071255714
20.93,0.113115072,-0.195241928,-0.069745004
20.94,-0.059067838,-0.164070129,0.107156232
20.95,-0.059943158,-0.164123535,0.105044052
20.96,-0.021452613,-0.015806198,0.462340593
20.97,-0.150653645,-0.008735657,0.288149655
20.98,-0.151468471,-0.008792877,0.285421401
20.99,-0.249081075,-0.008831024,0.21424
21,-0.219056815,-0.006429672,0.259830862
21.01,0.102869354,-0.123714447,0.160657808
21.02,0.103236139,-0.221790314,0.135432184
21.03,0.227945924,-0.260012627,0.186646834
21.04,0.102336273,-0.180971146,0.214640677
21.05,0.036674071,-0.032523155,0.162721843
21.06,-0.10240078,0.020189285,0.096693367
21.07,-0.329561442,0.020217896,0.222273797
21.08,-0.32848388,0.020217896,0.222488046
21.09,-0.198246092,0.025037766,0.039386481
21.1,-0.143104985,0.037102699,-0.163207218
21.11,-0.143899947,0.03717804,-0.159775496
21.12,-0.050889432,-0.039400101,0.200843424
21.13,0.031908028,-0.123185158,0.20148024
21.14,0.026426818,-0.082485199,0.146533504
21.15,-0.048224736,-0.104032517,0.098603874
21.16,-0.066844098,-0.10884285,0.102864295
21.17,-0.075906232,-0.154368401,0.256830365
21.18,-0.207397565,0.005986214,0.29756555
21.19,-0.094414249,-0.037154198,0.216633752
21.2,0.070477411,-0.068286896,0.101337671
21.21,0.069114603,-0.068265915,0.102560505
21.22,-0.032026831,-0.096953392,0.005843684
21.23,0.010522127,-0.070585251,0.031224936
21.24,-0.100996032,-0.032272339,0.190023601
21.25,-0.15736258,0.020380974,0.208525196
21.26,-0.024365138,0.02035141,0.217223749
21.27,-0.081365593,0.022734642,0.198146716
21.28,-0.130964622,0.020354271,0.198958039
21.29,0.04476678,-0.003568649,0.180368185
21.3,-0.082333118,-0.032318115,0.200106621
21.31,-0.270566285,0.051505089,0.140819952
21.32,-0.155673534,0.073087692,0.003355443
21.33,-0.072699256,0.020472527,-0.001124859
21.34,0.021605756,-0.094402313,0.08235848
21.35,-0.009591639,-0.185368538,0.382575691
21.36,0.078794062,-0.195002556,0.524624825
21.37,0.07647644,-0.094531059,0.329764456
21.38,0.017614201,-0.022788048,-0.041739106
21.39,-0.138466373,-0.013199806,-0.006028116
21.4,-0.139441356,-0.013235092,-0.007098958
21.41,-0.047019675,0.027381897,0.3872796
21.42,-0.050772011,0.027261734,0.382703662
21.43,-0.118534111,0.046284676,0.346783549
21.44,-0.17890878,-0.066322327,0.185336411
21.45,-0.179685026,-0.066370964,0.183589563
21.46,-0.17263782,-0.080730438,0.054318011
21.47,0.051520348,-0.049606323,0.246181771
21.48,0.055591099,-0.008913994,0.355775684
21.49,0.055403471,-0.008921623,0.355654687
21.5,0.079418413,-0.071157455,0.401599199
21.51,0.050593879,-0.176481247,0.170505762
21.52,0.050536305,-0.176423073,0.173375785
21.53,0.009510683,-0.135626793,-0.036327958
21.54,-0.012990561,-0.066145897,0.090367451
21.55,-0.011959098,-0.006257057,0.191811383
21.56,-0.040085927,0.020051003,0.191451609
21.57,-0.10867431,0.020057678,0.107493565
21.58,-0.216933399,0.020089149,-0.051686272
21.59,-0.32686311,0.012962341,-0.080862179
21.6,-0.326228917,0.012989044,-0.079338327
21.61,-0.119971439,0.010605812,0.090878174
21.62,-0.120586939,0.010556221,0.088947207
21.63,-0.001460355,0.017671585,0.392649591
21.64,-0.040429264,0.015191078,0.367961347
21.65,0.038797207,-0.066260338,0.133342087
21.66,-0.018342443,-0.087837219,0.027426422
21.67,-0.017377984,-0.087845802,0.026746333
21.68,-0.114566803,-0.059154511,0.158966065
21.69,-0.027768519,-0.035283089,0.252059072
21.7,0.053913012,0.014931679,0.251505882
21.71,0.029795785,0.005293846,0.174729601
21.72,-0.070833899,0.019652367,0.186114699
21.73,-0.047122914,0.029211998,0.154258177
21.74,0.001944266,0.019609451,0.169877708
21.75,0.000221096,0.019560814,0.167832464
21.76,-0.032777578,0.019504547,0.222552478
21.77,-0.033989292,0.019475937,0.221104607
21.78,-0.356083602,0.019457817,-0.166552797
21.79,-0.270495921,0.005148888,-0.140963167
21.8,0.028090442,-0.085831642,0.21395883
21.81,-0.015421513,-0.085861206,0.303370357
21.82,0.029662002,-0.145767212,0.444876701
21.83,0.029301353,-0.145832062,0.441759437
21.84,-0.001563815,-0.112445831,0.56475848
21.85,-0.170776993,-0.062278748,-0.079712793
21.86,-0.110243246,-0.007231712,-0.311093181
21.87,-0.118756726,0.019062042,-0.073183089
21.88,-0.100054875,0.018954277,0.249520421
21.89,-0.048615858,0.040329933,0.520376861
21.9,-0.080459736,0.023379326,0.615472436
21.91,-0.246932805,0.018437386,0.379222453
21.92,-0.248447672,-0.019948006,0.108432248
21.93,-0.236635357,-0.106152535,-0.059995562
21.94,-0.147899687,-0.161196709,0.042033181
21.95,-0.004403715,-0.221031189,0.081481397
21.96,0.083522409,-0.206652641,0.288553983
21.97,0.065180108,-0.137206078,0.212446898
21.98,0.051395185,-0.070132256,0.237839848
21.99,0.05194902,-0.031795502,0.280445993
22,0.051654421,-0.031786919,0.281423926
22.01,-0.035037484,0.020892143,0.223733068
22.02,0.014360826,0.073572159,0.128802031
22.03,0.003140052,0.03767395,0.117884845
22.04,-0.058863476,0.080791473,0.178615853
22.05,-0.060417719,0.080760002,0.177013978
22.06,-0.278926253,0.116646767,0.135346547
22.07,-0.197776645,-0.015032768,0.115277872
22.08,-0.24774836,-0.024635315,0.147978813
22.09,-0.279795229,-0.067762375,0.177399024
22.1,-0.203222036,-0.110886574,0.170808405
22.11,-0.100137085,-0.134857178,0.169251233
22.12,-0.068591893,-0.075012207,0.203964755
22.13,-0.063421428,-0.03911972,0.226745188
22.14,0.059021734,-0.010394096,0.34070006
22.15,0.060745783,0.018312454,0.296076357
22.16,0.018463075,0.018295288,0.32631141
22.17,0.061740056,-0.000878334,0.226650044
22.18,0.061032783,-0.036827087,0.270371318
22.19,0.059681952,-0.024900436,0.30543828
22.2,-0.066540875,0.018139839,0.294293553
22.21,-0.135150895,0.018081665,0.295420945
22.22,-0.155451626,0.018043518,0.103983671
22.23,-0.168249235,-0.029834747,0.053251475
22.24,-0.109141707,-0.099254608,-0.132440463
22.25,-0.291548789,-0.020232201,-0.171174467
22.26,-0.302268118,-0.003436089,-0.001820207
22.27,-0.046896487,-0.012999535,0.362647921
22.28,0.058441669,-0.087237358,0.63197726
22.29,0.057862408,-0.087278366,0.629950464
22.3,0.029028818,-0.156739235,0.290627778
22.31,0.024029257,-0.111282349,0.491572171
22.32,0.002369725,-0.07064724,0.208722323
22.33,0.052804686,-0.046730042,-0.090739354
22.34,0.051385466,-0.046747208,-0.091334119
22.35,-0.030139048,0.037014961,0.195486188
22.36,-0.166917756,0.084843636,0.325149208
22.37,-0.118952103,0.051267624,0.362704605
22.38,-0.132818207,0.017680168,0.228508174
22.39,-0.133858651,0.017654419,0.055811536
22.4,-0.19809784,0.017665863,0.090116397
22.41,-0.196677446,0.017691612,0.09223529
22.42,0.043921705,-0.006220818,0.220197946
22.43,0.078540161,-0.003778458,0.288985282
22.44,0.144452825,-0.003726959,0.087661475
22.45,0.049273372,-0.051528931,-0.013629228
22.46,0.049982104,-0.051441193,-0.00724946
22.47,0.030718308,-0.044182777,-0.011543065
22.48,0.048928797,-0.032167435,0.154759839
22.49,0.033342078,0.018152237,0.283960313
22.5,-0.051656395,-0.032081604,0.066396862
22.51,-0.217729077,-0.041591644,-0.010130644
22.52,-0.239608392,-0.031946182,-0.113822267
22.53,-0.239847451,-0.031873703,-0.109760135
22.54,-0.187544882,-0.103648186,0.044577241
22.55,-0.285845161,-0.091663361,0.141946316
22.56,-0.275283724,-0.070092201,0.202963173
22.57,-0.273863643,-0.070064545,0.204481185
22.58,-0.095598921,-0.060445786,0.120711893
22.59,-0.015911855,-0.086733818,0.122943878
22.6,0.020127064,-0.046009064,0.145810157
22.61,-0.009059578,-0.038812637,0.053260833
22.62,-0.079009384,0.018673897,0.121677078
22.63,-0.158275887,0.068963051,0.14385742
22.64,-0.062537923,0.040236473,0.134540722
22.65,-0.077131242,0.023483276,0.17128633
22.66,-0.077148199,0.023525238,0.172589809
22.67,-0.143853545,0.02833271,0.26492542
22.68,-0.045414723,0.01879406,0.29113847
22.69,-0.005352979,-0.055363655,0.117269039
22.7,-0.00633293,-0.055278778,0.121779501
22.71,-0.014596827,-0.095923424,0.173136473
22.72,-0.13077493,-0.091058731,0.099546634
22.73,-0.231930405,-0.026340485,-0.167272493
22.74,-0.133787051,-0.019062996,-0.17447941
22.75,0.008847689,-0.13389492,0.160124451
22.76,0.245615304,-0.138652802,0.405697435
22.77,0.033426031,-0.169804573,0.205982447
22.78,0.019143458,-0.102769852,0.293677151
22.79,0.017392522,-0.102815628,0.291584015
22.8,-0.04589498,0.019207001,0.459564507
22.81,-0.008086641,0.016766548,-0.035818547
22.82,0.017183339,-0.038271904,-0.335563004
22.83,-0.092623271,0.016863823,0.057317197
22.84,-0.133694992,0.019219399,0.280849636
22.85,-0.077496357,0.019154549,0.537617922
22.86,0.017424526,0.016677856,0.375211269
22.87,0.014782779,0.019043922,0.186585605
22.88,-0.010688785,-0.021653175,0.144194171
22.89,-0.011147637,-0.021602631,0.146322414
22.9,0.01236812,-0.11968708,-0.003090143
22.91,-0.045327406,-0.086100578,0.138926327
22.92,-0.007174786,-0.064525604,0.190590531
22.93,-0.10630481,-0.02619648,0.222204745
22.94,0.010130279,-0.042934418,0.273493409
22.95,0.080213428,-0.066856384,0.273979157
22.96,0.07772921,-0.066838264,0.274366975
22.97,0.004422128,-0.054853439,0.19551082
22.98,-0.102172457,0.019376755,0.001858056
22.99,-0.103440285,0.019379616,0.002334431
23,-0.087801769,0.019396782,0.083915725
23.01,-0.195882857,0.019406319,0.158183545
23.02,-0.195434243,0.019394875,0.098523647
23.03,-0.266220003,0.019415855,0.028080419
23.04,-0.161570475,-0.026036263,0.096981823
23.05,0.004709423,-0.049933434,0.163540095
23.06,-0.073718593,-0.035546303,0.383100182
23.07,-0.065316744,-0.030750275,0.416902959
23.08,0.015042234,-0.069034576,0.187964112
23.09,0.015895929,-0.0689888,0.190463245
23.1,-0.042757705,-0.049780846,-0.053296044
23.11,-0.048753075,-0.032938957,-0.047592521
23.12,-0.117427744,0.019781113,0.093583122
23.13,-0.11647819,0.019798279,0.094667405
23.14,-0.080119252,0.04139328,0.096176341
23.15,-0.080536306,0.041448593,0.099036992
23.16,-0.045309871,0.019967079,0.185093761
23.17,0.046750791,0.020009041,0.187111527
23.18,0.009567384,0.020067215,0.224996075
23.19,0.006238747,0.053640366,0.135698214
23.2,-0.02110336,0.020163536,0.190406978
23.21,-0.074405767,0.020215988,0.194748893
23.22,-0.074351698,0.020265579,0.196898758
23.23,-0.207243919,0.029957771,0.028738514
23.24,-0.205191076,0.030056,0.032881901
23.25,-0.022174351,0.008558273,0.272529393
23.26,0.069421545,-0.108701706,0.332519472
23.27,-0.062899306,-0.151725769,0.109710068
23.28,0.015798971,-0.084691048,0.511772037
23.29,-0.0653136,-0.041656494,0.378319025
23.3,0.038429536,-0.137433052,0.006954193
23.31,0.066220269,-0.103835106,-0.090455651
23.32,-0.017531712,0.018302917,0.090747833
23.33,-0.01852686,0.018258095,0.089025825
23.34,-0.123483837,0.039725304,0.291390687
23.35,-0.034855261,0.020460129,0.263350427
23.36,0.015535643,0.01082325,0.246079996
23.37,-0.02556918,-0.02749157,0.191194028
23.38,-0.084503964,-0.025027275,0.146084145
23.39,-0.082475968,-0.024905205,0.15054141
23.4,-0.101438806,-0.125342369,0.191600218
23.41,-0.020653423,-0.13000679,0.200931653
23.42,-0.007580519,-0.158603668,-0.040896088
23.43,-0.055104487,-0.115338326,-0.04427141
23.44,-0.160217315,-0.060087204,-0.004596531
23.45,-0.042840559,-0.038377762,0.027280569
23.46,-0.120333552,0.021636009,0.010628343
23.47,-0.266749054,0.043308258,-0.073712379
23.48,-0.378953219,0.108077049,0.104915246
23.49,-0.285055399,0.021945,0.094787732
23.5,-0.255927503,0.022019386,0.116382629
23.51,-0.183388189,-0.052145958,0.106530443
23.52,-0.103458256,-0.080807686,0.096513107
23.53,-0.188316226,-0.078357697,0.266150594
23.54,-0.314658731,-0.018421173,0.086741224
23.55,-0.265212923,0.022438049,-0.248423189
23.56,-0.151366621,0.022632599,-0.357032329
23.57,-0.148428232,0.022828102,-0.351595402
23.58,-0.067293592,0.003763199,0.103702217
23.59,-0.065516062,0.003817558,0.105306447
23.6,-0.066298231,0.023062706,0.12198621
23.61,0.047454048,0.023119926,0.294100672
23.62,0.048671313,0.006471634,0.179596841
23.63,0.050474271,0.006649971,0.184834749
23.64,-0.047337726,-0.033808708,0.117301211
23.65,-0.094293617,-0.035962105,0.097339839
23.66,-0.166059107,-0.016534805,-0.254765213
23.67,-0.130972147,0.002930641,-0.096125156
23.68,-0.07560309,-0.075872421,-0.019147843
23.69,-0.02336451,-0.073319435,-0.000482768
23.7,-0.024498776,-0.073143959,0.003712922
23.71,-0.242656305,-0.03707695,-0.320108175
23.72,-0.156757012,-0.034479141,-0.166933179
23.73,-0.158056393,-0.034379959,-0.164435506
23.74,-0.017492916,0.015831947,0.162252978
23.75,0.050334278,-0.024993896,0.518157363
23.76,0.058662619,-0.262182236,0.560023427
23.77,-0.001398469,-0.116256714,0.246164829
23.78,-0.129070982,-0.142616272,-0.300609827
23.79,0.040858809,-0.192772865,-0.412464559
23.8,0.038950346,-0.192678452,-0.410323739
23.81,0.133634493,-0.135313988,0.161997467
23.82,0.060151838,0.087177277,0.504474163
23.83,0.058785517,0.087209702,0.505469084
23.84,-0.330297917,0.087408066,-0.131358236
23.85,-0.233658403,0.025454521,-0.31313777
23.86,-0.163509041,-0.00053978,-0.245069206
23.87,-0.285303265,0.016534805,-0.005231649
23.88,0.043407034,-0.035892487,0.076992482
23.89,0.088799477,-0.026082993,0.091800779
23.9,0.088906154,-0.025887489,0.096185267
23.91,-0.027680621,0.026867867,0.399895966
23.92,0.012019817,-0.013731956,0.061911523
23.93,0.013510346,-0.013542175,0.066140264
23.94,-0.075805038,0.04163456,0.353354365
23.95,-0.074211046,0.041612625,0.353061825
23.96,-0.091557316,0.254640579,-0.04104653
23.97,-0.145893529,0.223506928,0.231596246
23.98,-0.144606412,0.223335266,0.228037104
23.99,0.002250409,0.093779564,0.720098138
24,-0.051690072,0.02637291,0.651905179
24.01,0.060041726,-0.112843514,0.547871351
24.02,0.144131839,-0.252016068,0.27238676
24.03,0.062152505,-0.240267754,0.207578987
24.04,-0.021457143,-0.276390076,0.350770652
24.05,-0.020928152,-0.276638985,0.344390005
24.06,0.09329474,-0.339109421,0.34638989
24.07,0.025930049,-0.303376198,0.422907174
24.08,0.00705496,-0.229351044,0.329541981
24.09,-0.088024542,-0.174434662,0.160407573
24.1,-0.129272938,-0.121841431,0.177069649
24.11,-0.232295811,-0.040550232,0.320043206
24.12,-0.018726693,-0.016746521,0.328496933
24.13,0.043254331,-0.100604057,0.314448446
24.14,0.019436888,-0.114960671,0.216445983
24.15,0.069918826,-0.131654739,0.110525549
24.16,-0.004775472,-0.126765251,0.20834063
24.17,-0.197236985,-0.107660294,0.317367256
24.18,-0.195880011,-0.107712746,0.315797836
24.19,-0.21631147,-0.016714096,0.11000067
24.2,-0.438980848,0.045576096,0.228405863
24.21,-0.434826374,0.045537949,0.226980805
24.22,-0.380657792,0.028759003,0.271278441
24.23,-0.216087952,0.023881912,0.170461789
24.24,0.093652323,-0.031355858,0.560848832
24.25,0.056414474,0.023492813,0.607355297
24.26,-0.122832976,0.037644386,0.382870913
24.27,-0.1185572,0.037538528,0.379241884
24.28,0.011411037,0.020910263,-0.304406673
24.29,0.105725035,-0.067578316,0.303620994
24.3,0.066447496,-0.00303936,0.710358143
24.31,0.064581409,-0.003206253,0.705736637
24.32,-0.206826493,-0.063157082,0.032838523
24.33,-0.235555768,-0.137350082,-0.289451331
24.34,-0.177169025,-0.20184803,-0.19424659
24.35,-0.048961971,-0.168135643,-0.191737294
24.36,-0.043087374,-0.201420784,-0.120595187
24.37,0.175379366,-0.308979988,0.229510918
24.38,0.174159184,-0.30888176,0.232132211
24.39,0.07222981,-0.081402779,0.311994344
24.4,0.020583425,-0.040640831,-9.05991E-06
24.41,0.019461434,-0.040530205,0.003406286
24.42,-0.122475028,0.01948452,-0.073705167
24.43,-0.122407228,0.019742012,-0.067134559
24.44,-0.210490644,0.024829865,-0.320672423
24.45,-0.121248409,0.022562981,-0.104106695
24.46,-0.123136193,-0.085093498,0.02724573
24.47,-0.143342301,-0.073068619,0.10014832
24.48,-0.277470887,-0.116112709,0.050842941
24.49,-0.273216426,-0.116002083,0.053129882
24.5,-0.227440402,-0.479739189,-0.199461222
24.51,-0.461193085,-0.46517086,-0.382025123
24.52,-0.331139028,-0.534292221,-0.462604404
24.53,-0.169819772,-0.696832657,-0.215897501
24.54,-0.26988852,-0.529065132,-0.256485105
24.55,-0.292137563,-0.358822823,-0.375391066
24.56,-0.295723081,-0.138250351,-0.284267932
24.57,-0.440957218,0.039265633,-0.333752304
24.58,-0.432109296,0.039758682,-0.32533899
24.59,-0.484996408,0.536060333,-0.743875682
24.6,-0.470869809,0.670938492,-0.564697146
24.61,-0.40906024,0.765099526,-0.221136957
24.62,-0.319915265,0.665307045,-0.189076453
24.63,-0.288945109,0.469823837,-0.328075171
24.64,-0.387425661,0.22657299,-0.512836397
24.65,-0.379113436,0.227736473,-0.494614542
24.66,-0.427236885,-0.359938622,-0.641992867
24.67,-0.488437355,-0.648145676,-0.886001766
24.68,-0.77107966,-0.74446106,-0.982847869
24.69,-0.717569232,-0.847490311,-0.910702586
24.7,-0.632390142,-0.8543396,-0.766194761
24.71,-0.608276308,-0.851420403,-0.734447897
24.72,-0.646723688,-0.815297127,-0.215719342
24.73,-0.519686341,-0.884744644,-0.026180685
24.74,-0.291622877,-0.82725811,-0.69363606
24.75,-0.506986618,-0.759888649,-1.190500855
24.76,-0.461686283,-0.799489021,-1.460242867
24.77,-0.227502227,-0.699471474,-0.853874981
24.78,-0.176430583,-0.547498703,-0.113473713
24.79,-0.159525931,-0.380428314,-0.159183204
24.8,-0.283559501,-0.180617333,-0.467448175
24.81,-0.525556684,0.069237709,-0.629531026
24.82,-0.690551043,0.31914711,-0.929048538
24.83,-0.677046418,0.562393189,-1.141149044
24.84,-0.796294332,0.839758873,-0.860862672
24.85,-0.93469584,0.968804359,-0.84783721
24.86,-0.968941391,1.011980057,-0.809906602
24.87,-0.822988987,0.827816963,-0.691766739
24.88,-0.589050114,0.475834847,-0.547384381
24.89,-0.700513303,0.205598831,-0.427990317
24.9,-0.719903648,0.100284576,-0.317192078
24.91,-0.486076355,0.078149796,-0.339802444
24.92,-0.433046281,0.110607147,-0.334554493
24.93,-0.371445596,0.319647789,-0.396306932
24.94,-0.187252879,0.762955666,-0.667153418
24.95,-0.053985834,1.277907372,-1.104199052
24.96,-0.06498915,1.273306847,-1.157290578
24.97,0.073330581,1.932106018,-1.316198349
24.98,0.720403731,1.678601265,-0.889575899
24.99,0.69853735,1.674063683,-0.948590696
25,1.679770231,1.595357895,-0.103001505
25.01,1.649014711,1.591187477,-0.164289206
25.02,2.235611677,0.263111115,0.608390451
25.03,2.192502022,0.259343147,0.541845799
25.04,1.33035183,-2.130970001,1.468940258
25.05,0.93282783,-3.66829443,1.17089951
25.06,0.729760885,-5.085177898,0.639257789
25.07,0.50374043,-6.340828896,-0.079793014
25.08,0.149919048,-7.475616932,-1.192435503
25.09,0.089409858,-8.055582047,-2.062353373
25.1,-0.168969646,-8.537597656,-1.887476683
25.11,-0.231656998,-8.530227661,-2.039668083
25.12,-0.17687735,-8.500794411,-0.831945062
25.13,-0.313801527,-7.824525356,-0.768609643
25.14,-0.378508121,-7.801066875,-0.977337122
25.15,0.645549178,-6.828589439,-0.804408193
25.16,0.742518783,-6.123744965,-0.774640083
25.17,0.527713537,-5.149247169,-0.876998782
25.18,0.34806186,-4.126730442,-0.44681263
25.19,0.388973892,-3.715062618,0.107622862
25.2,0.345994771,-3.301326752,0.280025959
25.21,0.143165708,-2.743656635,-0.491164684
25.22,-0.275110781,-2.071922779,-1.144480348
25.23,-0.030398309,-1.20510006,-1.63370347
25.24,0.08272016,-0.399441719,-1.856598139
25.25,0.052386999,-0.375271797,-1.929346561
25.26,1.060274243,1.503210068,-1.104774356
25.27,1.027901053,1.526137352,-1.168550849
25.28,1.208537936,2.685789108,-0.194585085
25.29,1.830281019,5.408626556,1.405273438
25.3,1.794652581,5.436548233,1.333531857
25.31,0.990119457,8.615233421,0.87949729
25.32,0.654818058,9.962842941,-0.517744064
25.33,0.753531694,11.20914555,-1.238980532
25.34,1.208884239,12.04551601,-0.491578102
25.35,1.470887661,12.14050579,0.041263819
25.36,1.431874633,12.17531109,-0.036429644
25.37,1.469763875,11.68069839,0.527368546
25.38,-0.606437445,9.674695969,1.009852886
25.39,-1.185481787,8.015054703,-0.053874493
25.4,-1.865431547,6.428254128,-1.185488224
25.41,-2.678536177,5.401186943,-1.726978898
25.42,-2.578514576,4.873463631,-2.34541893
25.43,-2.204857826,4.478360176,-2.235871553
25.44,-3.23088789,3.014208794,0.231072187
25.45,-3.579782486,0.876200676,2.443238497
25.46,-3.096113205,-1.685115337,3.913439512
25.47,-1.507903934,-3.987320423,4.780567169
25.48,-0.972449482,-5.247004509,5.681954861
25.49,0.256008744,-6.33799696,5.283119202
25.5,0.250382721,-6.307128429,5.211580276
25.51,-0.570406854,-2.507360935,1.625081539
25.52,-0.451253653,-0.053290367,-0.065339327
25.53,-0.460769892,-0.027274132,-0.120717287
25.54,-2.279169559,5.738840103,-1.265973806
25.55,-2.233101845,5.750494957,-1.302205324
25.56,-3.97457695,8.401081085,0.073000431
25.57,-5.606859684,10.7605629,2.015085697
25.58,-3.327245951,12.57566643,2.121631145
25.59,-2.20634675,11.9506216,0.989286423
25.6,-2.629983425,11.5740099,-0.445271969
25.61,-1.726345181,9.239544868,-0.905832291
25.62,-0.775262237,6.561563492,-2.557593346
25.63,0.575457096,3.199295044,-2.030315638
25.64,0.556199431,3.177871704,-1.981966257
25.65,3.151321888,-2.505511761,-0.152633667
25.66,3.487294197,-4.872088909,-0.173926115
25.67,3.66896081,-7.155459404,-0.233366966
25.68,3.595969677,-7.18020153,-0.164253473
25.69,1.058897495,-9.217951775,-0.680474997
25.7,-0.748870254,-9.019537926,-2.981689692
25.71,-1.85443306,-8.518997192,-5.60299778
25.72,-2.165450573,-8.082906723,-7.200284004
25.73,-2.241281986,-8.093390465,-7.151064396
25.74,-2.789252281,-8.048374176,-5.620667934
25.75,-1.800662994,-8.743164062,0.560763598
25.76,-0.645807505,-9.875180244,1.341073036
25.77,-0.716114998,-9.841129303,1.281975508
25.78,0.947604895,-10.89897442,0.310903788
25.79,0.080383182,-9.803833008,-3.121957302
25.8,-0.116029739,-7.698390961,-3.923781395
25.81,-0.100631952,-7.70704174,-3.908825874
25.82,6.787512779,-2.504082203,-3.286964417
25.83,9.384444237,0.849821091,0.944679499
25.84,9.333459854,0.860219002,0.93952632
25.85,7.98759985,7.88203907,4.478498936
25.86,4.405340195,10.74603081,4.239667892
25.87,1.451283097,12.28776455,4.296024799
25.88,-2.122064352,13.52392197,3.069919825
25.89,-1.933020949,13.45944691,3.169906378
25.9,-3.60335207,12.81624317,-2.685402155
25.91,-3.473543167,12.79170227,-2.654054403
25.92,-0.949802876,11.49293518,-1.660666585
25.93,1.621144891,8.051277161,0.994204521
25.94,1.673816085,7.416454315,1.767449856
25.95,1.294341803,5.469959259,4.839097977
25.96,1.302881956,5.51696682,4.722256184
25.97,1.093612313,3.020893097,8.506921768
25.98,1.133234739,3.02910614,8.480269432
25.99,0.36559999,-2.795728683,6.902709007
26,-0.154725283,-5.662173271,5.166944504
26.01,-1.89043498,-8.009044647,1.615446568
26.02,-1.81430316,-8.045641899,1.698567629
26.03,-5.037158012,-10.90013123,-7.309668541
26.04,-4.983119011,-10.92196465,-7.256790161
26.05,-6.459729671,-11.0135107,-6.743144989
26.06,-6.427308559,-11.02409363,-6.716310501
26.07,-2.986928701,-11.37115192,-0.157249689
26.08,-3.827077866,-12.73607826,2.090200424
26.09,-4.360367298,-12.7331171,2.838840961
26.1,-4.383818626,-12.71463108,2.792106628
26.11,-3.175401449,-12.73079109,0.906541348
26.12,-1.790055156,-9.979063988,-3.99653554
26.13,-0.970630646,-7.237872601,-4.482662201
26.14,0.076855958,-3.745159149,-3.1723032
26.15,2.578527451,0.940946579,0.044996262
26.16,3.786088467,5.853579521,2.439301491
26.17,3.802532196,5.862465858,2.41519475
26.18,0.750292897,15.06862831,3.205766201
26.19,0.798848569,15.08321571,3.165957212
26.2,-3.363524675,18.79748917,15.24253273
26.21,-2.998140812,18.19659233,17.21318817
26.22,-3.209836721,17.19020462,10.66613865
26.23,-5.371007919,15.93796825,1.356680393
26.24,-5.892244816,14.16384888,-3.720345736
26.25,-4.775951862,11.2292223,-4.653263569
26.26,-2.441736221,7.501935959,-3.517132998
26.27,-2.497947454,7.485673904,-3.470241308
26.28,2.127048492,1.202300072,-0.381997347
26.29,4.216948509,-1.839765549,2.933767557
26.3,5.479187489,-3.811471462,5.577867508
26.31,5.82848978,-5.711098194,6.504069328
26.32,5.361238003,-7.322692394,5.976016998
26.33,2.576997042,-7.970693588,3.685949326
26.34,2.55975771,-7.983728409,3.724293709
26.35,0.358473778,-9.097082138,0.499083042
26.36,-3.003210545,-11.19153309,-6.156139374
26.37,-2.114873409,-11.71123314,-6.843328476
26.38,-0.266799897,-13.11278629,-6.097157001
26.39,0.653921664,-14.37005138,-3.63821888
26.4,0.6529212,-14.68870449,-2.042107821
26.41,0.355054438,-14.33481026,-1.563026071
26.42,-0.490747035,-13.28684521,-2.522941113
26.43,-1.215497255,-11.13790607,-3.849177122
26.44,-1.238523006,-11.14765644,-3.812488317
26.45,-0.119307995,-8.142811775,-8.497583389
26.46,0.647675574,-4.813867569,-8.264035225
26.47,3.675382137,1.043524742,-4.71393013
26.48,10.24095249,5.07215786,2.468870401
26.49,14.91175365,8.03366375,5.520859718
26.5,12.61998463,11.14184284,5.435698509
26.51,6.356058598,12.81040382,7.147808075
26.52,0.168269992,14.97876072,9.295125961
26.53,-4.34502697,15.08780766,9.625862122
26.54,0.216741562,12.76581383,7.001789093
26.55,0.49849844,11.19168663,3.711323023
26.56,-1.165110469,11.0477047,1.563734531
26.57,-1.733229756,11.99342728,0.377040863
26.58,-1.354104996,12.32187366,2.22860527
26.59,-0.685818315,10.90340328,4.162456512
26.6,-0.630905092,10.91076183,4.127018929
26.61,0.606836915,6.329739571,13.12953568
26.62,0.167937756,1.170684814,15.4455471
26.63,-1.006393909,-3.350356102,13.41986465
26.64,-0.93551302,-3.398147583,13.55107975
26.65,-5.439613342,-10.5273571,-2.371719122
26.66,-5.933076382,-13.17118263,-8.378147125
26.67,-5.708991051,-14.44839096,-10.45744991
26.68,-4.926538467,-14.70332909,-9.222658157
26.69,-4.521535397,-14.51858044,-7.215426445
26.7,-4.343775272,-14.41198158,-4.533771515
26.71,-4.152998447,-14.31290817,-0.54550314
26.72,-3.805820704,-14.85125542,1.865210295
26.73,-3.506523132,-14.69682407,1.571722269
26.74,-3.14876771,-14.34033298,0.479931593
26.75,-3.081464529,-13.13605118,-1.125327468
26.76,-2.824973583,-11.47181129,-2.734960556
26.77,-2.983324051,-9.612978935,-3.264340639
26.78,-3.044953823,-7.354851246,-2.919717312
26.79,-2.14335537,-4.985694408,-2.552259207
26.8,-1.094919443,-3.127218246,-2.411916733
26.81,-1.097906709,-3.122392654,-2.429550886
26.82,-0.089469403,-0.405091286,-0.846887112
26.83,3.156422138,3.741597176,3.215607643
26.84,4.231696129,6.713309288,7.123275757
26.85,1.660280228,12.12070942,5.992986202
26.86,-6.03261137,19.04803467,8.271337509
26.87,-5.779441833,18.96968079,14.23839474
26.88,-5.444377899,18.78668404,14.07527351
26.89,-5.955451012,18.32887268,5.419161797
26.9,-5.983453274,18.31761932,5.45588398
26.91,-4.758272171,16.33744431,-1.877156973
26.92,0.203557715,8.369977951,-0.703852654
26.93,1.695080042,5.097115517,1.296989679
26.94,1.616298199,5.115644455,1.242124319
26.95,2.84056282,0.406411171,4.414945602
26.96,4.073738098,-2.006121635,6.030444145
26.97,3.966145277,-1.993239403,6.007612228
26.98,4.483617783,-3.757941723,6.764901161
26.99,2.350841761,-7.589195251,2.882949591
27,2.253046513,-7.600383759,2.945766687
27.01,-0.884858072,-11.55556107,-2.215431452
27.02,-0.940106809,-11.58456516,-2.096507549
27.03,-1.253840327,-13.4662838,-4.525858879
27.04,-1.038186789,-14.65195274,-6.155802727
27.05,-0.391521692,-15.68453026,-6.118914604
27.06,-0.475391507,-15.6896286,-6.052453995
27.07,1.718567014,-16.41942596,-5.230452061
27.08,1.601280093,-16.39080429,-5.276293278
27.09,0.343745709,-11.69105911,-4.714448929
27.1,-1.25751996,-8.584620476,-3.031301975
27.11,-3.06176424,-5.168675423,-1.168598413
27.12,-3.756137848,-0.414769173,0.691146135
27.13,0.693474174,5.860985756,2.928087473
27.14,7.185647011,10.22345448,5.347423077
27.15,11.29037285,12.82472229,5.074854851
27.16,10.75863457,14.21940422,3.461337805
27.17,8.210906982,15.97257328,2.421216965
27.18,3.864954948,17.71572495,5.439573765
27.19,1.791976452,17.35731125,8.380662918
27.2,1.0114398,15.79262829,6.707273483
27.21,0.438223481,12.48017597,1.907550573
27.22,-1.092972159,10.92363739,1.493298054
27.23,-2.055254936,10.25429535,3.24584198
27.24,-2.241874218,8.774557114,4.403904915
27.25,-2.470580816,6.185235977,4.682441711
27.26,-2.412259817,6.160866737,4.736840248
27.27,-4.04216671,0.564110756,5.239394188
27.28,-3.265576363,-3.485749722,5.451239586
27.29,-3.195943117,-3.515568256,5.531716347
27.3,-1.529796362,-10.73618507,3.167475462
27.31,-3.509736538,-12.65067291,-0.971967816
27.32,-4.982691765,-13.55760384,-5.692111015
27.33,-5.407818317,-13.61169815,-8.004732132
27.34,-5.294146538,-13.63492393,-7.945291996
27.35,-6.174632549,-11.11022663,-4.675762177
27.36,-6.698495865,-10.4795599,-1.065240145
27.37,-5.746267319,-10.85852337,1.6634624
27.38,-5.027848244,-11.73318577,3.360750675
27.39,-5.030739784,-11.71204758,3.272845984
27.4,-4.473388672,-12.48637772,2.096334219
27.41,-2.914438248,-12.13770485,-1.044253588
27.42,-2.933621168,-12.13127518,-1.063453913
27.43,-2.33711338,-10.74499702,-3.136630058
27.44,-1.682636499,-8.80898571,-3.073915482
27.45,0.592576087,0.090772629,0.01346612
27.46,3.774042368,3.967042923,3.884875536
27.47,3.75597477,3.978218079,3.849164486
27.48,1.257209659,13.5584898,1.449695587
27.49,-0.43904081,16.74637604,3.798302412
27.5,-0.430981427,16.77291489,3.706676722
27.51,-4.209961891,17.13092804,21.36458588
27.52,-7.006288528,17.03905487,19.09236336
27.53,-7.164038658,16.33969688,6.793103218
27.54,-6.197095871,14.10739994,-6.061934471
27.55,-6.152993202,14.05535603,-5.901367188
27.56,-2.820349693,8.268919945,-8.022433281
27.57,-0.620180368,5.687867165,-3.897577286
27.58,-0.020988584,3.513440132,0.447091103
27.59,-0.497207224,2.699338913,4.015007019
27.6,-0.169505715,0.474335671,6.387746811
27.61,1.517429829,-1.745080948,8.529460907
27.62,2.983633518,-3.847676277,8.231983185
27.63,2.924460888,-6.144312382,5.603616714
27.64,1.952897906,-8.748231888,1.48232317
27.65,1.236394763,-11.02059937,-2.351696968
27.66,0.84442246,-12.90086555,-4.886916637
27.67,0.757838249,-14.88117981,-6.946956635
27.68,0.187707424,-16.16695404,-9.213555336
27.69,0.143404722,-16.11276817,-9.568327904
27.7,0.085264325,-16.11013412,-9.548886299
27.71,2.493644953,-15.01139736,-1.322414637
27.72,1.980427027,-13.01556396,2.467618465
27.73,-0.479859948,-10.50467873,2.994982481
27.74,-4.333510399,-8.322013855,-0.999386191
27.75,-5.341328621,-6.937825203,-7.723527908
27.76,-3.808549643,-5.649953842,-10.08498096
27.77,-0.189527988,-3.274659634,-9.537536621
27.78,8.68554306,2.302441597,-3.010497093
27.79,16.88127327,4.477121353,4.857042313
27.8,16.7178154,4.513695717,4.820904255
27.81,7.628099918,11.53642368,6.359827995
27.82,1.683164358,14.58680153,6.94854641
27.83,0.803157806,15.31241703,8.195859909
27.84,0.80950594,17.00797844,4.863782883
27.85,-2.259128571,18.42815781,3.522289038
27.86,-4.400604248,19.34745026,4.720151901
27.87,-1.94511807,17.58146286,6.24232769
27.88,-0.765077174,14.70715237,9.239440918
27.89,-0.733759701,14.71128178,9.212287903
27.9,-1.758350492,5.066105843,7.085728645
27.91,-1.128782988,-0.445347786,4.372317314
27.92,-0.776203096,-5.267166615,6.911613464
27.93,-3.63226819,-8.31533432,6.422732353
27.94,-5.950760841,-10.4291048,1.378563881
27.95,-7.381770134,-11.50530529,-3.416357517
27.96,-7.499270916,-11.63985062,-7.414793968
27.97,-7.368286133,-11.67230797,-7.339867115
27.98,-5.575057507,-11.80598354,-7.405871391
27.99,-3.477180958,-13.38007259,-3.104814529
28,-3.470592499,-13.3730793,-3.133023262
