Time (s),Linear Acceleration x (m/s^2),Linear Acceleration y (m/s^2),Linear Acceleration z (m/s^2)
0,-0.36017409,0.197684288,-0.635558188
0.01,-0.372142464,0.198794365,-0.652307093
0.02,-0.05983948,-0.027345657,0.240458906
0.03,-0.067590535,-0.02581501,0.218010485
0.04,-0.876675606,0.040214539,1.433227539
0.05,-0.726627708,0.144089699,1.328935862
0.06,-0.5423401,0.041565895,0.715038121
0.07,-0.25172028,-0.180999756,0.19931531
0.08,0.346727073,-0.288561821,-0.153729677
0.09,0.334451556,-0.287978172,-0.159623265
0.1,0.870470226,-0.344078064,0.204422414
0.11,0.352176011,-0.136525154,1.246789217
0.12,-0.116783172,0.047092438,1.309733391
0.13,-0.398730874,0.115579605,1.186222076
0.14,-0.390872598,0.178984642,0.690629363
0.15,-0.447135598,0.299456596,0.634188712
0.16,-0.452412367,0.299853325,0.630367398
0.17,-0.339364499,0.314393044,0.699201644
0.18,0.134376854,-0.071120262,0.485866189
0.19,0.128280282,-0.071480751,0.491833389
0.2,0.186441824,-0.321146011,0.077403367
0.21,0.184763372,-0.322022438,0.088899136
0.22,-0.189988911,-0.117074013,-0.186272144
0.23,-0.365383923,-0.005403519,0.001523972
0.24,-0.364878297,-0.005992889,0.009140015
0.25,-0.402097642,0.101410866,0.528773904
0.26,-0.277702272,0.103487015,0.79477191
0.27,-0.355315298,0.045619011,0.717541337
0.28,-0.396666139,0.04510498,0.727698267
0.29,-0.400777102,0.044641495,0.735304356
0.3,-0.151218742,-0.045510292,0.586659074
0.31,0.033194199,-0.138429642,-0.173898399
0.32,-0.16204387,-0.109674454,-0.356566936
0.33,-0.218090817,-0.124256134,-0.390539259
0.34,-0.22668834,-0.035918236,-0.021808743
0.35,-0.149518073,0.002260208,0.141999722
0.36,0.015384629,-0.00261879,0.324666202
0.37,0.016435891,-0.002639771,0.324671149
0.38,-0.086902916,0.014192581,0.509827912
0.39,-0.109017864,0.045465469,0.651098192
0.4,0.074069589,0.074284554,0.608852983
0.41,0.048729479,0.04088974,0.350793302
0.42,-0.205799043,0.045583725,-0.14653939
0.43,-0.434257478,0.11212635,-0.629186034
0.44,-0.428694874,0.111275673,-0.618855
0.45,-0.391571462,-0.059239388,-0.375425994
0.46,-0.127583385,-0.23171711,0.595236838
0.47,-0.086684234,-0.307891846,1.279210329
0.48,0.161210924,-0.280976296,0.775776506
0.49,0.132179484,-0.20413971,0.471237361
0.5,-0.022881761,-0.134799004,0.309095502
0.51,-0.124616936,-0.07035923,-0.287530392
0.52,0.016367868,-0.034834862,-0.481446505
0.53,0.122685745,0.007964134,-0.144265711
0.54,8.12411E-05,0.043875694,0.316132724
0.55,-0.001724631,0.044075012,0.3139323
0.56,-0.29401964,0.049095154,0.722541511
0.57,-0.245476842,0.066027641,0.590640843
0.58,-0.06882599,0.010914803,0.337638557
0.59,0.211371169,-0.032505035,0.182237387
0.6,0.566487074,-0.148017883,-0.098108232
0.61,0.389288962,-0.184699059,-0.205747783
0.62,-0.091474168,-0.015538216,-0.327363133
0.63,-0.090027772,-0.016424179,-0.314595103
0.64,-0.207321882,-0.041262627,-0.498141974
0.65,-0.156615108,-0.109027863,-0.200047344
0.66,-0.158316359,-0.109412193,-0.193430573
0.67,0.006666541,-0.147955895,0.543635488
0.68,0.131882116,-0.14098835,0.519579887
0.69,0.045987338,-0.117251396,0.380391181
0.7,-0.117910489,-0.131828308,0.203097522
0.71,-0.12022315,-0.132090569,0.207971871
0.72,-0.09684965,-0.137047768,0.015403211
0.73,-0.0182468,-0.158736229,-0.192073464
0.74,-0.297471166,0.037542343,0.060563445
0.75,-0.503870666,0.044751167,0.282984197
0.76,-0.503155232,0.044787407,0.282161295
0.77,0.063934296,-0.070094109,0.303231657
0.78,0.061610818,-0.070173264,0.305110991
0.79,0.059919208,-0.168455124,0.14722234
0.8,0.101679921,-0.175739288,-0.192860991
0.81,0.109514564,-0.02266407,-0.15364477
0.82,-0.135976017,0.130515099,0.211539209
0.83,-0.135466903,0.130620003,0.209698558
0.84,-0.275814623,0.264695168,0.491990507
0.85,-0.167841673,0.037086487,0.123244941
0.86,-0.101008892,0.036809921,-0.257489324
0.87,-0.096673056,-0.066599846,-0.280653864
0.88,0.054778636,-0.177100182,0.197701275
0.89,0.418424159,-0.22727108,0.798750103
0.9,0.412225306,-0.226957321,0.795944691
0.91,0.340702653,-0.298462868,0.93583715
0.92,-0.180932105,-0.149917603,-0.103847951
0.93,-0.180387318,-0.15020752,-0.099396557
0.94,-0.116094083,-0.052330017,-0.443927378
0.95,-0.137918979,0.036161423,-0.163358122
0.96,-0.079325169,0.036244392,0.284577727
0.97,-0.079250216,0.048395157,0.494273543
0.98,-0.043112069,0.036566734,0.450645745
0.99,-0.065958411,-0.059189796,0.162205339
1,-0.035143122,-0.016235352,-0.082932174
1.01,-0.030177116,0.031437874,-0.063896924
1.02,-0.180690765,0.036105156,0.291382909
1.03,-0.205040932,0.035963058,0.363416195
1.04,0.01759389,-0.091079712,0.308541
1.05,-0.028746068,-0.055394173,0.20288533
1.06,-0.041339725,-0.156457901,-0.040167779
1.07,-0.056155235,-0.145092964,-0.309839189
1.08,-0.156924695,0.024253845,-0.114351332
1.09,-0.210087478,0.059654236,0.100525379
1.1,0.078485459,0.056868553,0.416263104
1.11,0.077369899,0.056609154,0.422009111
1.12,0.169435233,0.084962845,0.119079649
1.13,-0.151560083,0.149115562,0.093310922
1.14,-0.219703138,0.119912148,0.061913788
1.15,-0.079918981,0.030875206,-0.051197529
1.16,0.080114573,-0.00784874,-0.106518954
1.17,-0.209998637,-0.049005508,-0.072079659
1.18,-0.219380871,-0.08782959,0.043265969
1.19,-0.191056758,-0.104972839,-0.008641422
1.2,0.015451491,-0.174682617,0.033367783
1.21,0.088765353,-0.086221695,0.33624664
1.22,0.088108331,-0.086268425,0.33758843
1.23,-0.004367903,-0.040838242,0.654788792
1.24,-0.200885862,0.071516991,0.432600409
1.25,-0.18755728,0.052130699,0.294589043
1.26,-0.033452854,-0.015135765,0.217029125
1.27,0.028029606,-0.082353592,-0.06191203
1.28,0.000110477,-0.120925903,-0.197494164
1.29,-0.192194969,0.027189255,-0.414527178
1.3,-0.361013651,0.117698669,-0.318129093
1.31,-0.290247053,0.026293755,-0.045809716
1.32,-0.098933116,-0.024242401,0.364376694
1.33,-0.256935656,-0.017163277,0.321910799
1.34,-0.159927532,-0.017326355,0.344662458
1.35,0.082693279,-0.086894989,0.396043271
1.36,0.128768727,-0.065480232,0.497496337
1.37,0.054145455,-0.192501068,0.296289176
1.38,-0.028711423,-0.20707798,-0.015745252
1.39,0.050714314,-0.178545952,-0.129231274
1.4,-0.106179416,-0.037353516,0.42801553
1.41,-0.105250329,-0.037265778,0.42450884
1.42,-0.166473299,0.015533447,0.554123402
1.43,-0.214126512,0.025094986,0.174806774
1.44,-0.209460273,0.024851799,0.179020464
1.45,-0.399556309,0.122564316,-0.567836344
1.46,-0.228916466,0.090973854,-0.360413194
1.47,-0.107996628,0.06908226,0.0865677
1.48,0.205194756,0.035355568,0.56124115
1.49,0.284454823,-0.012633324,0.715353131
1.5,0.148474112,-0.041621208,0.480570823
1.51,0.055216789,-0.142549515,0.271947742
1.52,-0.128134802,-0.176465988,0.107741863
1.53,-0.193431601,-0.17448616,0.030272305
1.54,-0.117993712,-0.124576569,0.06970638
1.55,0.035664752,-0.127220154,0.068113372
1.56,-0.072734103,-0.113049507,0.078191355
1.57,-0.069672093,-0.113280296,0.086210847
1.58,-0.244928628,-0.029751778,-0.261519998
1.59,-0.199739456,-0.008441925,-0.26331681
1.6,-0.313114286,0.017729759,-0.231607601
1.61,-0.314200163,0.043962479,0.058082044
1.62,-0.181843817,0.019946098,0.241225049
1.63,-0.088808537,-0.04474926,0.283252388
1.64,-0.037286066,-0.008891106,0.290689707
1.65,-0.036290325,-0.008976936,0.293890834
1.66,0.119813919,-0.114398003,0.266430944
1.67,0.016327232,-0.073800087,0.196525976
1.68,-0.083852738,-0.040413857,0.117539764
1.69,-0.08083865,-0.040498734,0.121448606
1.7,-0.071858704,-0.114811897,0.069551319
1.71,-0.120431095,-0.110069275,0.128974393
1.72,-0.308182091,-0.055073738,-0.119908243
1.73,-0.22242111,0.019065857,-0.096637107
1.74,-0.09244141,0.018986702,0.132731631
1.75,-0.023724064,-0.012179375,0.025577515
1.76,-0.025123991,-0.012210846,0.029081866
1.77,0.071133979,-0.017002106,0.291300237
1.78,-0.061382614,0.016523361,0.361157954
1.79,0.022580966,-0.028991699,0.049068198
1.8,0.022835813,-0.029070854,0.054327443
1.81,-0.075667307,-0.151277542,-0.099335834
1.82,-0.076352373,-0.151317596,-0.095055535
1.83,0.041525088,0.013916969,0.494145036
1.84,0.154527873,0.004402161,0.564629734
1.85,0.042723954,0.004479408,0.431479514
1.86,-0.088601321,-0.033806801,0.211232856
1.87,-0.153700918,-0.081715584,0.048415378
1.88,-0.141646817,-0.122489929,-0.174166843
1.89,-0.151392847,-0.160867691,-0.208166957
1.9,-0.144535601,-0.117846489,-0.105892867
1.91,-0.011291206,-0.070005417,0.150913417
1.92,-0.103459358,-0.019758224,0.303730667
1.93,-0.160689309,0.018505096,0.248486966
1.94,-0.159618467,0.018427849,0.255018264
1.95,-0.089572206,0.008769989,0.097341537
1.96,-0.086682841,-0.04395771,-0.125330925
1.97,-0.157941476,0.013443947,-0.118781209
1.98,-0.15723449,0.018193245,0.063467458
1.99,-0.140359998,0.018173218,0.184345484
2,-0.192923874,0.01813221,0.218538791
2.01,-0.265987873,-0.005820274,0.099375889
2.02,-0.089978591,-0.115999222,0.033006269
2.03,-0.090373144,-0.115999222,0.034907721
2.04,-0.005207136,-0.144727707,0.152841374
2.05,0.046517938,-0.197396278,0.21058175
2.06,-0.087478459,-0.151898384,0.266553462
2.07,-0.086424261,-0.106424332,0.255549759
2.08,-0.070944525,-0.07052803,0.158130199
2.09,-0.069378875,-0.070556641,0.159323931
2.1,-0.014989257,-0.092137337,0.289818615
2.11,0.048751548,-0.08019352,0.312264919
2.12,-0.038871005,-0.087395668,0.156268135
2.13,-0.161474466,-0.106590271,0.054636288
2.14,-0.159231067,-0.106630325,0.058801591
2.15,-0.317665935,0.015441895,-0.438920111
2.16,-0.453955293,0.017796516,-0.338294983
2.17,-0.319669604,-0.030125618,-0.069613121
2.18,-0.093917474,-0.032535553,0.176459998
2.19,-0.01232063,0.017782211,0.798597574
2.2,0.028906442,-0.0181036,0.885056257
2.21,-0.050055817,0.017813683,0.491299719
2.22,-0.047889292,0.017800331,0.491942108
2.23,-0.043237299,-0.001399994,0.022653148
2.24,-0.065643921,-0.128321648,-0.08516477
2.25,0.060040623,-0.032533646,0.201434434
2.26,-0.008687742,-0.008583069,0.546791554
2.27,-0.172059864,-0.006167412,0.456404299
2.28,-0.170556188,-0.006175995,0.452695787
2.29,-0.204061493,0.046488762,0.050562896
2.3,-0.327561975,0.041661263,0.145611867
2.31,-0.12389826,0.02723217,0.280399263
2.32,0.028477103,0.010429382,0.267980784
2.33,0.053015411,-0.03989315,0.400633216
2.34,0.173691779,-0.087818146,0.358932763
2.35,-0.043449048,-0.126169205,0.056762997
2.36,-0.148966789,-0.140569687,-0.118883796
2.37,-0.098949328,-0.123865128,-0.231199965
2.38,-0.095850483,-0.123882294,-0.224694535
2.39,-0.088289842,0.017365456,0.28648141
2.4,-0.045994636,0.01494503,0.243662775
2.41,-0.209139168,0.01734066,0.154213622
2.42,-0.205659807,0.017324448,0.159293115
2.43,-0.137458444,-0.092827797,0.056503981
2.44,-0.120307833,-0.126356125,0.113253452
2.45,-0.01279087,-0.119177818,0.003334915
2.46,-0.011722658,-0.059324265,0.089224488
2.47,-0.031749621,0.012499809,0.162289575
2.48,-0.046813555,0.012486458,0.232404813
2.49,-0.073678479,0.014883041,0.180289283
2.5,-0.028683588,-0.037805557,0.109450042
2.51,-0.017488822,-0.042593956,0.101043597
2.52,-0.016374432,-0.042589188,0.102566719
2.53,-0.020009425,0.017268181,0.482769847
2.54,-0.028236572,0.017268181,0.4627406
2.55,-0.027097046,0.017274857,0.465468705
2.56,0.00256101,-0.052143097,0.269493103
2.57,-0.10913989,-0.186190605,-0.279710829
2.58,-0.107843414,-0.186160088,-0.27370587
2.59,-0.14554362,-0.087963104,-0.2281584
2.6,0.004045404,-0.097519875,0.022885855
2.61,0.036549717,-0.05919838,0.551322222
2.62,-0.003575593,-0.056821823,0.898988187
2.63,-0.00634272,-0.056833267,0.893474698
2.64,-0.017708749,-0.004179001,0.395178974
2.65,-0.183596134,-0.061657906,-0.110493854
2.66,-0.183992147,-0.061642647,-0.109494321
2.67,-0.143042147,-0.052044868,-0.370308876
2.68,0.056222312,0.02937603,0.639378905
2.69,0.132749826,0.003052711,0.772689462
2.7,0.051683351,0.017414093,0.371492147
2.71,-0.075962201,0.017426491,0.054141268
2.72,-0.223379284,0.017432213,-0.007649053
2.73,-0.197046056,0.017426491,0.146824092
2.74,-0.03905227,0.017410278,0.268108517
2.75,0.017157987,0.003074646,0.317246348
2.76,-0.017756827,0.010271072,0.324318916
2.77,0.021931991,-0.068705559,0.080598339
2.78,-0.01526925,-0.130946159,-0.010092139
2.79,-0.016166784,-0.130900383,-0.003673796
2.8,-0.035629895,-0.121282578,0.124278128
2.81,-0.036120307,-0.063778877,0.068127923
2.82,-0.036862072,-0.063729286,0.074542031
2.83,-0.145651013,0.020120621,0.025806863
2.84,-0.07001096,0.091997147,0.158123851
2.85,-0.071308598,0.092045784,0.16247648
2.86,-0.041664209,0.072952271,0.138813287
2.87,-0.043114115,0.073013306,0.144095317
2.88,-0.165886432,0.017989159,0.138219416
2.89,-0.056831159,-0.166334152,-0.000853181
2.9,-0.082599372,-0.11839962,-0.007788979
2.91,-0.211018026,-0.032191277,0.234914094
2.92,-0.211903587,-0.032179832,0.234848037
2.93,-0.100816436,-0.032154083,0.32442537
2.94,0.036433846,-0.151823998,0.016618758
2.95,0.095311634,-0.213988304,-0.09277875
2.96,0.094787024,-0.213926315,-0.088015184
2.97,-0.053796541,-0.058246613,-0.050759234
2.98,0.000615939,-0.031864166,0.081596702
2.99,0.099241592,-0.000696182,0.127030417
3,-0.04945676,0.078390121,-0.041872457
3.01,-0.205725551,0.126365662,0.121406443
3.02,-0.170176461,0.07374382,0.142643362
3.03,-0.00684227,0.013982773,0.293040037
3.04,-0.010550179,0.014065742,0.296436131
3.05,-0.048889406,-0.210926056,0.306646109
3.06,-0.112131253,-0.191697121,0.107365355
3.07,-0.000632599,-0.174888611,0.105374038
3.08,-0.075587526,-0.131731033,-0.117031291
3.09,-0.07485716,-0.131671906,-0.112722054
3.1,-0.078257471,0.172477722,-0.054688826
3.11,-0.136872828,0.194037437,0.655343533
3.12,-0.137026846,0.193973541,0.652289987
3.13,-0.056027159,0.031104088,0.56238091
3.14,-0.07312873,0.016721725,0.110598192
3.15,-0.196816489,-0.002388,-0.166893125
3.16,-0.268900245,0.01920414,0.008311391
3.17,-0.136662245,0.00967598,0.178038061
3.18,-0.059619118,-0.050142288,0.248649925
3.19,-0.056609701,-0.050107956,0.253117859
3.2,0.085171491,-0.05480957,0.040914997
3.21,-0.04797449,-0.021185875,0.067418247
3.22,-0.010514088,-0.080926895,0.152122483
3.23,0.036024809,-0.140659332,0.101519689
3.24,-0.016746916,-0.162088394,0.031336725
3.25,-0.086559147,-0.12847805,0.081915036
3.26,-0.085134663,-0.128426552,0.084840283
3.27,-0.042200211,-0.046976089,0.118156493
3.28,-0.042798761,-0.04691124,0.12046653
3.29,-0.138404921,-0.044480324,0.095970884
3.3,-0.162285119,0.013063431,0.130467117
3.31,-0.188248053,-0.073041916,0.023901165
3.32,-0.18800956,-0.07293129,0.028440997
3.33,-0.19284752,-0.03692627,-0.041910231
3.34,-0.172274604,0.00861454,0.124989122
3.35,-0.272998691,0.030164719,0.160982892
3.36,-0.272822171,0.030139923,0.160105661
3.37,-0.098197639,0.020552635,0.135166004
3.38,-0.038100231,-0.008163452,0.193538427
3.39,-0.032829158,-0.00098896,0.239250302
3.4,-0.031706296,-0.000981331,0.239533499
3.41,-0.055412676,0.020554543,0.199636877
3.42,-0.167837277,0.020586014,0.232714176
3.43,-0.093385994,-0.015286446,0.177626625
3.44,-0.091178551,-0.015203476,0.181356028
3.45,-0.146419674,0.071166039,-0.180428386
3.46,-0.150340796,0.126392365,-0.219278574
3.47,0.251368761,-0.03868866,0.439735085
3.48,0.245706201,-0.038682938,0.439041108
3.49,0.294975758,-0.201503754,0.724013805
3.5,0.140462726,-0.120073319,0.543884993
3.51,-0.092345402,0.021235466,0.179381162
3.52,-0.092646137,0.021319389,0.18225655
3.53,-0.086167954,-0.095851898,-0.327370912
3.54,-0.07109496,-0.014318466,-0.031416982
3.55,-0.073952101,-0.014268875,-0.031149119
3.56,-0.242411971,6.48499E-05,0.371737957
3.57,-0.123534031,-0.040680885,0.350063741
3.58,-0.029363677,-0.047834396,0.260762006
3.59,-0.054172613,-0.064549446,0.227336854
3.6,-0.065177694,-0.0860672,0.22818923
3.61,-0.068285093,-0.105168343,0.176819682
3.62,-0.0520337,-0.150600433,0.221296847
3.63,0.01663629,-0.073966026,0.231456727
3.64,0.014915749,-0.073935509,0.231964231
3.65,-0.06069617,-0.006817818,0.198197335
3.66,-0.064005807,-0.023451805,0.154033482
3.67,-0.074643224,-0.104740143,0.110050693
3.68,-0.075878024,-0.104632378,0.113078967
3.69,-0.079873897,-0.056656837,0.10785839
3.7,-0.080347866,-0.037455559,0.074775323
3.71,-0.002799794,0.017674446,0.182685599
3.72,-0.08704035,-0.025416374,0.25380981
3.73,-0.142249465,0.022464752,0.245301992
3.74,-0.122719355,-0.078121185,0.224713966
3.75,-0.137035534,-0.087675095,0.077740371
3.76,-0.241783828,-0.051762581,0.017328799
3.77,-0.147376522,0.015275955,-0.048145026
3.78,-0.14922975,0.01526165,-0.049308509
3.79,-0.010468125,0.022415161,0.252271533
3.8,0.220943943,0.022371292,0.277868778
3.81,0.246211082,0.012777328,0.313772023
3.82,0.243741483,0.01275444,0.3112441
3.83,-0.111414626,0.022276878,0.22785008
3.84,-0.11166656,0.022224426,0.22567901
3.85,-0.095425971,-0.032876968,0.015835583
3.86,-0.067380317,-0.078369141,-0.113960445
3.87,-0.114034459,0.01978302,0.024351329
3.88,-0.114954487,0.153852463,0.221713185
3.89,-0.127717301,0.098737717,0.514576435
3.9,0.112413719,-0.018600464,0.603515923
3.91,0.374552429,-0.138339996,0.68171835
3.92,0.103010222,-0.219777107,0.236190841
3.93,-0.131206319,-0.116853714,-0.026947409
3.94,-0.14315781,0.005237579,0.101428941
3.95,-0.011207327,-0.047476768,0.121353447
3.96,-0.107815355,-0.078630447,-0.157862842
3.97,-0.118027531,-0.025957108,-0.00491187
3.98,-0.022452295,0.014663696,0.296679944
3.99,-0.014277384,0.021709442,0.762276769
4,-0.078139395,0.052654266,0.765818
4.01,-0.009116858,0.097949028,0.379378736
4.02,-0.092591695,0.073912621,0.145351157
4.03,-0.147978008,0.025968552,0.159561262
4.04,-0.144477233,0.018748283,0.148968399
4.05,-0.143264636,0.0187397,0.150069058
4.06,-0.092560507,-0.050637245,0.37523821
4.07,-0.109960839,-0.021921158,0.268610537
4.08,-0.107587978,-0.021891594,0.271870285
4.09,-0.135754988,-0.029010773,0.064414755
4.1,-0.133369848,-0.040904999,-0.148372769
4.11,-0.148056179,0.021422386,-0.119475186
4.12,-0.148492888,0.11726284,0.152629852
4.13,-0.043898031,0.122067452,0.389601588
4.14,-0.011886328,0.09338665,0.365595341
4.15,-0.12521781,0.06952858,0.219352141
4.16,-0.121975482,0.021755219,0.159296751
4.17,-0.118534401,-0.00684166,0.075520158
4.18,-0.11527276,0.019617081,0.017514467
4.19,-0.112059638,-0.02576828,0.210177124
4.2,-0.080241486,-0.047254562,0.216312349
4.21,0.018466428,-0.008918762,0.159271702
4.22,-0.014652789,-0.032808304,0.231988937
4.23,-0.111827657,0.015135765,0.352819026
4.24,-0.054965526,-0.051866531,0.358636141
4.25,-0.015499845,-0.075734138,0.242702633
4.26,-0.01247026,-0.075611115,0.248279542
4.27,-0.068966426,-0.020400047,-0.145067692
4.28,-0.086680144,-0.01301384,-0.278559119
4.29,-0.130791381,-0.000818253,-0.090669572
4.3,-0.242100716,-0.07007122,-0.02160731
4.31,-0.238605559,-0.069900513,-0.014900506
4.32,-0.067545369,0.023727417,-0.358635396
4.33,-0.065657377,-0.09815979,-0.062192827
4.34,0.129039645,-0.08131218,0.323725641
4.35,0.266419113,-0.253707886,0.775361657
4.36,0.096347928,-0.359167099,0.431804061
4.37,-0.027007759,-0.332889557,0.293312192
4.38,-0.105686531,-0.177301407,0.119761944
4.39,-0.180730373,-0.167711258,-0.319910467
4.4,-0.180019885,-0.16757679,-0.316025436
4.41,-0.164298371,-0.145897865,-0.791103602
4.42,-0.068743289,0.16299057,0.262180001
4.43,-0.048624769,0.284947395,0.646814585
4.44,-0.041941054,0.282522202,0.654371321
4.45,-0.054501034,0.246730804,0.240776181
4.46,-0.127251729,0.098564148,-0.102806747
4.47,-0.105217591,0.007974625,-0.278025687
4.48,-0.247962296,-0.125678062,-0.258526236
4.49,-0.157457858,-0.209080696,-0.125258058
4.5,-0.063020304,-0.215970039,-0.006573081
4.51,-0.059891935,-0.215662003,0.001588136
4.52,-0.09703692,-0.179455757,0.17463623
4.53,-0.129601151,-0.243787766,0.034124881
4.54,-0.227193058,-0.264987946,-0.201173663
4.55,-0.319709748,-0.269369125,-0.557990968
4.56,-0.311986297,-0.13013649,-0.86277467
4.57,-0.363809943,0.018699646,-0.810847879
4.58,-0.363847792,0.083752632,-0.655405402
4.59,-0.348755449,0.163187981,-0.293876946
4.6,-0.269102693,0.115653038,-0.027016371
4.61,-0.264606565,0.116019249,-0.019398034
4.62,-0.155414373,0.020568848,-0.01033175
4.63,-0.106457807,-0.024601936,-0.178222239
4.64,-0.131962836,-0.014702797,-0.336866856
4.65,-0.291483522,0.021538734,-0.287295878
4.66,-0.294782221,-0.006920815,-0.348789215
4.67,-0.20288156,0.024500847,-0.369530439
4.68,-0.175824776,0.031985283,-0.232080936
4.69,-0.284623802,0.032290459,-0.216781616
4.7,-0.324673146,0.054205894,-0.319895148
4.71,-0.552231133,0.061891556,-0.387351692
4.72,-0.52776438,0.050539017,-0.536861241
4.73,-0.555766523,0.003419876,-0.554574072
4.74,-0.489328951,-0.201564789,-0.687924683
4.75,-0.515883744,-0.200493813,-0.716424286
4.76,-0.399835497,-0.129885674,-0.198228478
4.77,-0.290300399,-0.188837051,0.15991056
4.78,-0.28681767,-0.245661736,0.243115008
4.79,-0.248238564,-0.31452179,0.322558224
4.8,-0.313648164,-0.440994263,0.067183614
4.81,-0.445511162,-0.519573212,-0.051611125
4.82,-0.361994475,-0.624491692,-0.412795007
4.83,-0.383738786,-0.815451622,-0.518090725
4.84,-0.281716675,-0.865175247,-0.166693389
4.85,-0.010215692,-0.891288757,0.170776427
4.86,0.079569876,-0.824419022,0.601634026
4.87,0.042031072,-0.774670601,0.496184409
4.88,-0.144185394,-0.739295006,0.119990051
4.89,-0.352938563,-0.658355713,-0.233677805
4.9,-0.497796625,-0.57977581,-0.532302141
4.91,-0.506898582,-0.367041588,-0.502232671
4.92,-0.42844677,-0.254863739,-0.105810702
4.93,-0.244408339,-0.197809219,0.033313453
4.94,-0.237824202,-0.140668869,-0.305110812
4.95,-0.194483966,-0.200581551,-0.634879708
4.96,-0.18722713,-0.2003479,-0.632837057
4.97,-0.286140859,-0.424969673,-1.001574874
4.98,-0.276461482,-0.424402237,-0.995064199
4.99,0.239991754,-0.964887619,-0.927602768
5,0.204674646,-0.942703247,-0.626874328
5.01,0.385863513,-0.786675453,-0.523285985
5.02,0.894852758,-0.633303642,-0.590032756
5.03,1.372876048,-0.453818321,-0.348905683
5.04,1.704349399,-0.370606422,0.042550206
5.05,1.424987793,-0.288040161,0.626729369
5.06,1.402270555,-0.290959358,0.584822476
5.07,2.372679949,-0.550126076,-0.036218762
5.08,1.466798067,-0.246322632,-0.329667032
5.09,0.522568524,0.110488892,-0.877956271
5.1,-0.013550751,0.537114143,-1.717041492
5.11,-0.533492029,0.842097282,-2.392555475
5.12,-0.902973771,1.140259743,-2.224366665
5.13,-0.91458106,1.19685173,-1.718827248
5.14,-0.936154246,1.196260452,-1.751495957
5.15,-0.810088158,0.934851646,-0.847837031
5.16,-0.797935307,0.481975555,-0.358515024
5.17,-0.554150224,-0.205548286,-0.083382651
5.18,-0.185023174,-0.986427307,-0.265854508
5.19,0.093200639,-1.501507759,-0.389300346
5.2,0.368717134,-1.870509624,-0.522828937
5.21,0.437090397,-2.141283035,-0.387217283
5.22,0.430819035,-2.141462326,-0.42329368
5.23,0.513009071,-2.170249939,0.076561116
5.24,0.254792333,-2.007286549,-0.118845508
5.25,0.248157114,-2.006883144,-0.167821348
5.26,0.303977132,-1.694921494,-0.442553431
5.27,0.41724959,-1.408961296,-0.752856851
5.28,0.282647401,-0.727602959,-0.260617912
5.29,0.269144356,-0.725884438,-0.312407076
5.3,0.331233949,-0.357857704,-0.358542651
5.31,0.059587479,-0.0044384,-0.996936679
5.32,0.050609082,0.018211365,-1.391801357
5.33,-0.021574259,0.028474808,-1.605030537
5.34,-0.101156548,0.114816666,-1.270078778
5.35,0.031640083,0.322906494,-0.682777524
5.36,0.105132192,0.43007946,-0.440991461
5.37,0.536333084,0.695098877,-0.214342207
5.38,0.755713105,1.039112091,-0.387720913
5.39,0.702735305,1.330422401,-0.560159743
5.4,0.792374373,1.549918175,-0.877194703
5.41,0.804827333,1.549294472,-0.868958235
5.42,0.702462673,1.991887093,-1.225085855
5.43,0.350842923,3.205618858,-1.602319598
5.44,0.364839017,3.205547333,-1.609442234
5.45,0.122645557,3.919024467,-1.862796307
5.46,-0.824878216,4.962874413,-1.734064341
5.47,-1.12828362,5.092014313,-1.309729338
5.48,-0.771597743,5.254498482,-0.535495937
5.49,-0.350562841,5.174977303,0.279085875
5.5,0.065514676,4.932534218,0.887574554
5.51,0.43405062,4.493736267,1.493081093
5.52,0.700215519,4.026333809,1.918231845
5.53,0.579190791,3.693112373,2.294294119
5.54,1.190679908,3.427167892,3.127369642
5.55,1.401023746,2.814225197,4.041065693
5.56,1.413291931,2.814374924,4.043479919
5.57,0.985861003,1.430811882,5.055214882
5.58,-0.066833287,0.74423027,4.880782127
5.59,-1.049471617,0.088831902,4.39456749
5.6,-1.544789791,-0.331834793,3.412730932
5.61,-1.858168483,-0.800430298,2.442699432
5.62,-1.787404776,-0.818900108,1.880945325
5.63,-1.799261808,-0.7104702,1.444900393
5.64,-1.426334023,-0.132793427,1.236257911
5.65,-1.424793243,-0.132153511,1.22206974
5.66,-0.646261096,0.536563873,1.21146059
5.67,-0.481213689,0.73853302,1.094931722
5.68,-0.269602329,0.775494576,1.171484232
5.69,-0.274500907,0.776679039,1.146556973
5.7,-0.255058825,0.450042725,1.008103132
5.71,-1.037256479,-0.443834305,1.477656245
5.72,-0.696121097,-1.234607697,1.678098679
5.73,-0.343300611,-2.21228075,1.549218893
5.74,-0.571624875,-3.216733456,1.067081809
5.75,-0.67241621,-4.169020653,0.232577562
5.76,-0.512225568,-4.846889496,-0.642499328
5.77,-0.522951126,-5.534973145,-1.220556498
5.78,-0.525146008,-5.536304474,-1.200284719
5.79,-0.404703319,-6.299189568,-1.12880826
5.8,-0.091556221,-6.449179649,-0.888085127
5.81,0.201000854,-6.316615105,-0.570842385
5.82,0.186135009,-6.317961693,-0.548282921
5.83,0.630115151,-5.691948891,0.027368546
5.84,0.614089906,-5.693213463,0.051365346
5.85,0.531498909,-5.208509922,-0.182344317
5.86,-0.323254883,-4.137162209,-0.841178775
5.87,-0.331297606,-4.138380051,-0.812372446
5.88,-0.576160669,-3.540862083,-1.465117455
5.89,-0.450304866,-2.241763115,-1.799281716
5.9,-0.573884487,-1.337850571,-1.848716974
5.91,-0.578347623,-1.339010239,-1.809124827
5.92,-1.075446606,0.326382637,-0.998806238
5.93,-0.969983459,1.024719238,-0.366255581
5.94,-0.874171019,1.500585556,0.141722962
5.95,-0.733588815,1.866511345,0.26761663
5.96,-0.551316559,2.287608147,0.058166943
5.97,-0.518542826,2.727986336,-0.118963435
5.98,-0.711511791,3.125449181,-0.21737209
5.99,-0.888410747,3.551748276,-0.561548054
6,-0.909391284,3.55196476,-0.560144723
6.01,-1.112779498,3.865884781,-0.772119343
6.02,-2.441538334,3.969089508,-0.933639824
6.03,-2.832135439,3.859075546,-1.061168432
6.04,-2.834978342,3.859027863,-1.045447826
6.05,-0.564020217,4.598765373,1.122589588
6.06,1.874403119,4.687485695,2.449710131
6.07,3.447147846,4.675997734,3.436280012
6.08,3.43063426,4.676742554,3.488368988
6.09,3.660658836,3.899487495,5.812778473
6.1,3.417169571,3.189246178,5.449021816
6.11,3.169357061,2.108034134,5.292098999
6.12,3.07533288,1.306894302,4.038896084
6.13,2.195944786,0.639845848,1.908617139
6.14,2.195296049,0.640607834,1.932728291
6.15,0.142653391,0.688985825,-1.113766074
6.16,-0.010202616,0.844637871,-1.203214645
6.17,0.029658139,0.877771378,-0.350857168
6.18,0.733789325,1.039851189,0.6777426
6.19,1.101209044,0.940927506,1.594927907
6.2,1.088307858,0.940245628,1.551021814
6.21,0.449222058,1.303628922,1.914780021
6.22,-0.302468836,1.418059349,1.694208264
6.23,-1.35811162,1.05838871,1.5987885
6.24,-1.770644188,0.069018364,1.441037655
6.25,-1.375799417,-1.209971428,1.151881218
6.26,-1.364258051,-1.210320473,1.137968302
6.27,-0.573781133,-4.01200676,-0.298545718
6.28,-0.413899541,-4.895899773,-0.381625742
6.29,-0.149483368,-5.655330181,-0.439154983
6.3,-0.124052867,-5.655738354,-0.426586807
6.31,0.134505436,-6.211577415,-0.199649468
6.32,0.163032442,-6.211850166,-0.186040774
6.33,0.222651422,-5.740341663,0.161613658
6.34,0.08361426,-5.501000404,-0.039755896
6.35,0.042121604,-5.184921741,-0.169104308
6.36,-0.006769494,-4.88317728,-0.097665653
6.37,-0.039392393,-4.519216061,0.106123753
6.38,-0.023123395,-4.519236088,0.101584211
6.39,0.092987135,-4.298975945,-0.04689122
6.4,0.185813159,-3.822484016,-0.892870247
6.41,-0.064182855,-2.594168186,-1.648979664
6.42,0.016937181,-1.586115837,-1.363721013
6.43,-0.113752782,-0.685792923,-0.343071312
6.44,-0.102200583,-0.685727119,-0.348328292
6.45,0.38039276,0.564128876,0.734545171
6.46,0.204111904,1.344787598,0.134459615
6.47,0.077766187,1.991508484,-0.680045843
6.48,-0.214903057,2.683806419,-1.14613986
6.49,-0.486143351,3.385706902,-1.426601171
6.5,-0.665352583,3.910423279,-1.388814211
6.51,-0.602196574,4.059248924,-1.363135457
6.52,-0.716184974,3.686071396,-1.600781679
6.53,-0.837070644,3.377526283,-1.807952642
6.54,-0.630948246,3.676967621,-1.26592195
6.55,-0.632442832,3.676953316,-1.26488173
6.56,0.086831823,4.553030968,0.015899211
6.57,1.037411332,5.196790695,0.803992093
6.58,1.44423604,5.751983643,1.221259832
6.59,-0.003911182,5.078857422,4.859937668
6.6,-0.928523898,3.620366096,6.242928028
6.61,-0.793797612,1.88166523,6.686515331
6.62,0.159279659,-0.146962166,6.514455795
6.63,0.124593541,-0.147623062,6.477190971
6.64,1.481535792,-1.108146667,4.15534687
6.65,-0.002053791,-0.191225052,2.589876652
6.66,-0.417962253,0.807284355,1.299169779
6.67,-1.30136764,2.203331947,0.18261151
6.68,-2.282862663,3.364718437,-0.270990849
6.69,-2.265704632,3.364920616,-0.293171346
6.7,-3.756085396,4.404346466,-0.170204014
6.71,-3.954830647,4.436163902,2.573816061
6.72,-2.161658049,3.278126717,2.722198009
6.73,-2.157888174,3.278734207,2.696489573
6.74,0.24996005,0.099526405,2.109499454
6.75,1.25461185,-1.602554321,1.453586221
6.76,1.942176819,-3.24247694,0.609791637
6.77,1.874892116,-4.49701643,-0.171090201
6.78,1.081774712,-5.076377869,-0.712175667
6.79,1.057767868,-5.076310158,-0.711283207
6.8,-0.026526622,-6.048246384,-1.213100553
6.81,-0.241939604,-6.385668278,-0.977036238
6.82,-0.342098326,-6.596168041,-0.533114374
6.83,-0.495879233,-6.598590851,-0.195045382
6.84,-0.633161962,-6.637099743,0.090335608
6.85,-0.809687555,-6.481800079,0.667580485
6.86,-0.854549229,-6.319331646,0.391755998
6.87,-0.985962987,-5.941445351,-0.40178588
6.88,-0.610836029,-5.743038177,-1.236986041
6.89,-0.627376795,-5.743003845,-1.193843365
6.9,0.06245172,-4.768228531,-1.840475798
6.91,0.046265155,-4.767823219,-1.814203143
6.92,-0.234583914,-3.907910824,-1.927585244
6.93,-0.389766723,-1.125425339,-2.951486588
6.94,-0.388224781,-1.125077248,-2.90399766
6.95,-0.190066993,0.352549553,-1.983046174
6.96,-0.491205394,2.636915207,0.422911972
6.97,-0.895382524,3.606529236,1.141655684
6.98,-0.881088018,3.60641098,1.155992866
6.99,-1.307189107,4.178789139,0.929895401
7,-1.678658962,4.284936905,-1.161846638
7.01,-1.044261932,3.958088875,-1.058772802
7.02,-0.469939888,3.39907074,-0.884800375
7.03,-0.719228864,3.20622921,-0.958539367
7.04,-1.380333424,3.278888702,-1.237749577
7.05,-2.422263622,3.394289017,-1.839642644
7.06,-3.3408916,4.196448326,-2.064903975
7.07,-3.320658445,4.196526527,-2.052148819
7.08,-3.022976398,5.180969238,-1.384099603
7.09,0.901995421,5.399777412,0.955984056
7.1,2.209764957,4.972474098,2.643364191
7.11,3.057646036,4.449400902,4.210351467
7.12,3.564713478,3.512103081,4.801068306
7.13,3.396287918,2.229845047,4.256568909
7.14,3.130822897,0.803294182,3.749149323
7.15,3.168758869,-0.300577164,2.828219652
7.16,3.155149221,-0.301023483,2.815416336
7.17,1.524477959,-0.720694542,0.476132125
7.18,0.860360503,-0.175519943,-0.342433751
7.19,0.797823429,0.393610954,-0.643332839
7.2,0.94365418,1.092090607,-0.488727599
7.21,1.393322349,1.584634781,-0.085338235
7.22,1.394530654,1.583786964,-0.102503449
7.23,1.064949512,2.224232674,0.974608541
7.24,0.62907815,2.299448967,0.819312692
7.25,-0.164335772,1.871828079,1.245713115
7.26,-0.290447235,0.694729805,1.786921024
7.27,-0.255710781,-0.637817383,1.787876964
7.28,-0.496411741,-2.276304245,1.139584064
7.29,-0.797700703,-3.663103104,0.1457268
7.3,-0.792093396,-3.663473129,0.133920476
7.31,-0.584037364,-5.694082737,-0.877130568
7.32,-0.363317698,-6.383929253,-0.400330126
7.33,-0.131884143,-6.829652786,0.327625185
7.34,0.081166133,-6.945066929,0.609566331
7.35,0.107272632,-6.945535183,0.604163587
7.36,-0.006585814,-6.658610344,0.506602764
7.37,0.089927457,-5.713200092,0.878503263
7.38,0.120008707,-5.713378429,0.876332879
7.39,0.481556773,-4.846687794,-0.040110692
7.4,0.370909542,-4.281628609,-0.302795649
7.41,0.168567643,-3.776443481,-0.38580972
7.42,0.134086043,-3.185009003,-0.988395989
7.43,0.299095988,-2.47862339,-1.73804462
7.44,0.23058337,-1.597405434,-1.975732207
7.45,0.284373283,-0.527020454,-1.673686981
7.46,0.355693996,0.45462513,-0.973112106
7.47,0.598415077,1.148874283,-0.119308949
7.48,0.530265093,1.826301575,0.499970168
7.49,0.41831398,2.326559067,0.32222867
7.5,0.179451942,2.841323853,-0.3813366
7.51,0.033208072,3.449688911,-1.287599683
7.52,-0.356546879,4.113217354,-1.682483792
7.53,-0.257732749,4.384121895,-1.961636543
7.54,-0.067795187,4.3916502,-1.818945646
7.55,-0.148461551,4.406275749,-1.69585216
7.56,-0.140080676,4.406590462,-1.68712306
7.57,-0.517059028,4.478881836,-1.138934612
7.58,-0.578295648,5.018191338,-0.301158667
7.59,-0.244448617,5.497778893,0.157811403
7.6,0.319389105,5.484303474,-0.023561493
7.61,0.742750168,5.231455803,0.200847209
7.62,0.811755478,4.796648979,1.329970241
7.63,0.498353958,3.804008484,2.838729143
7.64,0.386533588,0.984182358,4.63164854
7.65,0.941278935,-0.339850426,4.674244881
7.66,1.025699615,-0.86739254,4.616719723
7.67,1.007670641,-0.868634224,4.588338852
7.68,-0.034238458,0.020807266,3.581300259
7.69,-0.926913977,0.900914192,1.872728705
7.7,-1.423318863,1.889140129,0.491750836
7.71,-2.525746346,3.203332901,-0.043942317
7.72,-3.781413555,3.912032127,0.318075061
7.73,-4.007137299,4.151614189,0.660050333
7.74,-3.387388706,3.572379112,0.741864204
7.75,-1.5658288,1.874908447,0.501383364
7.76,-0.668801129,0.545909882,0.617309213
7.77,-0.152156621,-0.922095299,0.52480787
7.78,0.313801378,-2.148302555,0.046151072
7.79,0.733745754,-3.286048412,-0.049801633
7.8,0.712569952,-3.286612988,-0.057933208
7.81,1.145678997,-4.13241291,0.564921022
7.82,1.125132799,-5.677336216,0.421811104
7.83,0.838346303,-6.056135178,0.08436361
7.84,0.593087494,-6.157082081,0.078072838
7.85,0.12968342,-6.202893734,-0.190881178
7.86,0.101458028,-6.203083515,-0.18661651
7.87,-0.157957837,-6.248665333,-0.500241101
7.88,0.046485495,-6.239090919,-0.427568853
7.89,-0.039107874,-5.961249352,-0.365482777
7.9,-0.394290865,-5.747949123,-0.659955084
7.91,-0.664748132,-5.261595726,-1.224625468
7.92,-0.704955578,-4.744049072,-1.395536542
7.93,-0.717567205,-4.06601429,-1.674855471
7.94,-0.959639728,-2.784507751,-1.897498727
7.95,-0.704756379,-1.687067986,-1.697319865
7.96,-0.265013158,-0.792598724,-1.704364419
7.97,0.059067257,0.083104134,-1.210740328
7.98,-0.044418473,0.886987686,-0.201946765
7.99,-0.048096288,0.888446808,-0.166894466
8,0.018927261,1.490654945,0.32654798
8.01,-0.062764794,1.783966064,0.196866959
8.02,-0.668895364,2.759589195,-0.766767025
8.03,-0.680640698,2.760700226,-0.747798085
8.04,-0.910761952,3.226187706,-0.892871141
8.05,-1.455153942,3.957290649,-1.194382787
8.06,-1.983950973,3.88364315,-1.728709102
8.07,-2.994470596,3.804960251,-2.283270597
8.08,-4.184829235,3.838481903,-2.194476843
8.09,-4.361571312,4.595295906,-1.429500461
8.1,-2.489112616,5.154111862,-0.464494646
8.11,-0.116733559,5.141980171,-0.025801897
8.12,-0.098495595,5.145418167,0.027666867
8.13,1.828325868,5.024671555,0.951960564
8.14,3.366243124,4.743319511,3.742132425
8.15,3.446885586,4.07882309,4.304543972
8.16,3.320966005,3.306100845,4.306262016
8.17,3.312218904,3.307779312,4.324557304
8.18,2.400771618,1.551186562,2.292616129
8.19,1.64886713,0.847455978,1.357361436
8.2,1.040863156,0.363193512,0.291171074
8.21,1.034149051,0.362059593,0.277578414
8.22,0.067493953,0.561916351,-1.003608465
8.23,0.514406979,1.003686905,-0.497497439
8.24,1.218974113,1.042847633,0.681608141
8.25,1.21164012,1.040836334,0.655946672
8.26,1.282757163,0.983755112,1.08904016
8.27,1.125809193,0.85241127,0.945366502
8.28,0.138029158,-0.169919968,1.353734493
8.29,-0.114362583,-1.015159607,0.804349721
8.3,-0.338496506,-1.824467182,0.650316179
8.31,-0.543472171,-2.820371628,0.67624563
8.32,-0.739869535,-3.679467201,0.428950578
8.33,-0.830460787,-4.27477932,0.133859962
8.34,-0.799291253,-4.853068829,0.327500016
8.35,-0.422364891,-5.505500793,0.431762427
8.36,-0.163151681,-5.889604092,0.466787368
8.37,-0.023720995,-5.95282793,0.433679372
8.38,0.028937355,-5.831587791,0.492830485
8.39,0.046993233,-5.832448006,0.47700727
8.4,0.253904849,-5.323300838,0.199392781
8.41,0.262198359,-5.034307957,-0.189201593
8.42,0.200563341,-4.620797634,-0.724732339
8.43,0.027309377,-4.190498352,-1.143975258
8.44,0.137409046,-3.73384428,-1.693967462
8.45,0.254893631,-3.102289677,-1.642808676
8.46,0.521849871,-2.329199314,-1.182027817
8.47,0.104833275,-1.464949608,-0.76087749
8.48,0.09591566,-0.409000397,-0.24389416
8.49,0.194785416,0.263906479,0.122901857
8.5,0.097440682,0.948795319,0.119762406
8.51,0.104021229,0.948984146,0.124737397
8.52,-0.02880422,1.614760399,-0.093676001
8.53,-0.277663618,3.113810539,-1.380105019
8.54,-0.545795858,3.827531815,-1.811460972
8.55,-0.66010946,4.304203987,-2.023845673
8.56,-0.636842847,4.397665977,-1.990869284
8.57,-0.745666206,4.170179367,-2.048019648
8.58,-0.94650209,3.870830536,-1.807795763
8.59,-0.931511998,3.870759964,-1.813040853
8.6,-1.065288544,3.684012413,-0.941726446
8.61,0.53143543,5.01763916,2.166908741
8.62,1.264215946,4.99157238,2.417816877
8.63,1.123876095,4.760115623,2.467639446
8.64,0.42849803,4.323043823,3.221020937
8.65,0.040546224,3.081474304,3.806221008
8.66,0.018592969,1.595445633,4.126554012
8.67,0.199578717,0.017868042,4.860016823
8.68,0.054352716,-1.218159676,3.928092718
8.69,0.048112944,-1.219158173,3.905141592
8.7,-0.40494746,-1.438268661,2.518796444
8.71,-1.813509822,0.422987938,0.246316075
8.72,-1.896180868,1.700383186,-0.935875952
8.73,-1.640719652,3.32768631,-0.657867849
8.74,-1.533215404,4.67493248,1.429470658
8.75,-1.845401883,5.346961975,3.01569438
8.76,-2.105190277,4.922603607,3.536980391
8.77,-0.485114932,2.882341385,2.170074463
8.78,0.597147167,1.160583496,0.480734348
8.79,0.475467503,-0.381616592,-0.679340363
8.8,0.453434676,-1.567023277,-0.79360795
8.81,0.500016511,-2.529789925,-0.532814682
8.82,0.383294404,-3.365672112,-0.064657107
8.83,0.25048855,-4.160802364,0.25195387
8.84,0.21472165,-4.160894871,0.239674807
8.85,0.579572678,-4.871935368,0.497348994
8.86,0.6283741,-5.281135082,0.690199614
8.87,0.072854526,-5.934454441,-0.129760653
8.88,0.067653805,-6.120809555,-0.298523217
8.89,-0.236907378,-6.065316677,-0.458813697
8.9,-0.530272186,-5.799132347,-0.65322268
8.91,-0.733099341,-5.676669598,-0.600351989
8.92,-0.652495503,-5.381790638,-0.721500814
8.93,-0.5702793,-5.108397961,-0.975856304
8.94,-0.433478534,-4.61226511,-1.327894449
8.95,-0.56097889,-4.12319994,-1.327800751
8.96,-0.558669448,-4.122552395,-1.297800064
8.97,-0.653283536,-2.723680496,-1.241528034
8.98,-0.592445493,-2.112368107,-1.284960508
8.99,-0.894863725,-1.390770912,-0.593424439
9,-0.597278237,-0.566345215,-0.258232862
9.01,-0.285927296,0.059339523,-0.372475207
9.02,-0.171124265,0.998818398,-0.303780645
9.03,-0.373313904,1.981468201,-0.455839664
9.04,-0.714873552,2.95228672,-0.805276632
9.05,-0.79539001,3.657534599,-0.983002663
9.06,-0.646384716,4.264661789,-0.750532389
9.07,-1.116437793,4.526891708,-1.092667818
9.08,-1.124705195,4.527607918,-1.081412554
9.09,-1.837872863,4.714678764,-1.768808126
9.1,-3.604721785,4.140137672,-1.390329599
9.11,-4.065707207,3.601431847,-0.597265303
9.12,-3.299788475,4.183769226,-0.145687103
9.13,-0.548351228,4.889361382,0.476499379
9.14,1.956370115,4.936275482,1.177091837
9.15,3.218175888,4.538744926,1.331513643
9.16,3.085702896,4.148870468,1.749401689
9.17,2.441486835,3.478357315,3.161975145
9.18,2.201811314,2.672167778,3.814198494
9.19,1.89605391,1.727802277,3.407750368
9.2,1.917314291,0.76293087,2.533878326
9.21,2.126634359,0.328808785,1.265813828
9.22,1.708028316,0.380318642,0.00719887
9.23,1.690451741,0.37894249,-0.009118319
9.24,0.670767903,1.361521721,-0.421921611
9.25,0.635162711,1.946632385,-0.06894213
9.26,1.141824722,2.206209183,0.629216194
9.27,1.302977204,2.27882576,1.178146482
9.28,1.389650226,2.226690292,1.423400521
9.29,0.901074052,1.939605713,1.51929009
9.3,0.884503424,1.93719101,1.48292017
9.31,-0.645413876,0.613091469,0.92033875
9.32,-0.854452014,-0.653176308,0.57720083
9.33,-1.227057934,-2.057853222,0.381578505
9.34,-1.227427363,-2.059120655,0.3606534
9.35,-1.313503623,-4.320271969,-0.197768211
9.36,-0.975431442,-5.343340397,-0.313232005
9.37,-0.360137314,-6.174872875,-0.153066933
9.38,0.388950944,-6.587574959,0.506211996
9.39,0.67880553,-6.830491066,1.244734049
9.4,0.280121267,-6.676104546,1.581052065
9.41,0.361927331,-6.45704937,1.086362243
9.42,0.56432426,-6.146706104,0.166200608
9.43,0.583741486,-6.147262096,0.157434464
9.44,-0.163070366,-4.962715149,-1.107674956
9.45,-0.382670641,-4.216522217,-1.404099226
9.46,-0.393735707,-3.532682896,-1.558991551
9.47,-0.398283958,-2.92292881,-1.715539217
9.48,-0.383170843,-2.923377037,-1.727736235
9.49,0.080719769,-1.704456329,-1.859155416
9.5,0.091382325,-1.704089165,-1.850742579
9.51,0.705614507,-0.4753685,-0.702652752
9.52,0.708541513,-0.475050926,-0.695283651
9.53,1.17264843,0.906363487,0.808494091
9.54,1.52881813,1.610106468,1.48456347
9.55,1.527376175,1.609957695,1.480655909
9.56,0.442899406,2.893450737,-0.456749052
9.57,-0.212382317,3.602757454,-1.304412007
9.58,-0.496575475,4.142232895,-1.629730225
9.59,-0.588446558,4.111824036,-2.509549379
9.6,-0.584566295,4.057368279,-2.73068285
9.61,-0.592715979,4.055448532,-2.06224227
9.62,-0.408551723,4.5105896,-0.555890918
9.63,0.548840165,5.667074203,0.635076165
9.64,0.984858215,6.08128643,1.164653897
9.65,0.978286147,6.081364632,1.16729331
9.66,0.955024123,5.779799461,1.677534819
9.67,0.368658185,5.05198288,2.726870537
9.68,-0.171900585,2.44473362,3.834834337
9.69,-0.066772565,0.909935951,3.883844376
9.7,-0.073705584,0.909484863,3.875559092
9.71,0.415206969,-0.645307541,3.716225147
9.72,-0.102137536,-0.399739265,3.751491308
9.73,-0.699439168,0.19073391,2.715254307
9.74,-1.401618838,1.076144218,1.19690156
9.75,-1.406342745,1.076179504,1.197401524
9.76,-3.877356529,3.664720535,-0.623282552
9.77,-4.674406528,4.404742241,-0.47220692
9.78,-4.208007336,4.541000366,0.237950102
9.79,-4.19107914,4.540280342,0.218914405
9.8,-1.390279531,2.307710648,1.809266925
9.81,-0.261619151,0.905835152,2.09015274
9.82,0.132948846,-0.383373261,1.50214982
9.83,0.338397771,-1.612397194,0.76875937
9.84,0.878003359,-2.661750317,0.573845267
9.85,1.403462887,-3.797249794,0.654709637
9.86,1.569378257,-4.67172575,0.53778106
9.87,1.419247746,-5.220404625,0.489421427
9.88,1.015454888,-5.531895161,0.263640046
9.89,0.995091319,-5.53197813,0.24511686
9.9,-0.169330373,-5.685187817,0.393890828
9.91,-0.067007318,-5.704230309,0.033963498
9.92,-0.25542292,-5.684834957,0.070999682
9.93,-0.202155083,-5.682151794,-0.492937028
9.94,-0.256441444,-5.662579536,-0.550776601
9.95,-0.380046129,-5.441850662,-1.051565886
9.96,-0.698188901,-4.919407368,-1.486995339
9.97,-0.590411544,-4.610076904,-1.198988438
9.98,-0.486122489,-4.027862549,-0.352334529
9.99,-0.489292622,-4.027552605,-0.340202928
10,-1.063239694,-2.724727631,-0.601768255
10.01,-1.053867221,-2.7242136,-0.573274016
10.02,-0.963180065,-1.883056641,-1.424092412
10.03,-0.700790346,-0.895597458,-1.424064398
10.04,-0.762753785,-0.257375717,-1.554128408
10.05,-0.401597023,0.922135353,-1.230862617
10.06,-0.391771197,0.923274994,-1.202308893
10.07,-0.033413388,2.183409691,-0.29455632
10.08,-0.225372791,2.906826019,0.115299106
10.09,-0.221665472,2.906949043,0.118703753
10.1,-0.78699249,3.785887718,0.165757835
10.11,-1.050129414,4.294110298,-0.624625325
10.12,-1.324002504,4.54389286,-1.369649053
10.13,-3.094857216,3.716058731,-2.20246315
10.14,-3.502855062,2.95512867,-2.747944593
10.15,-3.178689003,2.763518333,-1.751849771
10.16,-3.050593138,2.770767212,-1.666729927
10.17,-0.164490312,4.399921417,0.724581778
10.18,1.92502141,4.739620209,1.143414617
10.19,3.005742311,4.699435234,1.826966524
10.2,3.011160374,4.705171585,1.886348486
10.21,3.069569826,3.620820045,4.05420351
10.22,2.680906296,2.583028793,4.060205936
10.23,2.462114334,1.706541061,3.09558177
10.24,2.31221962,0.747433662,1.66356039
10.25,1.994725585,0.078995705,0.945046365
10.26,1.638342142,0.031248093,0.313387632
10.27,1.028223991,0.273744583,0.003333092
10.28,1.115427017,0.745709419,0.214360893
10.29,1.253406286,1.294433594,0.731323123
10.3,1.109810472,1.68552494,1.238022566
10.31,1.365334868,1.945316315,1.287043929
10.32,1.348490357,1.942024231,1.25258553
10.33,0.898562551,2.029564857,0.781692803
10.34,0.131911546,1.721619606,1.382202148
10.35,0.112828367,1.717484474,1.328521848
10.36,-0.12761882,-0.695090294,1.249422312
10.37,-0.554165721,-2.153906822,0.710826337
10.38,-0.563615382,-2.156078339,0.674041629
10.39,-1.097989082,-4.613805294,-0.346836269
10.4,-1.088840723,-4.614557743,-0.362632155
10.41,-0.538853288,-6.03254509,0.022900254
10.42,-0.523333013,-6.033130646,0.0074251
10.43,0.179578349,-6.658633709,1.486066341
10.44,0.279845268,-6.754897594,1.053624392
10.45,0.555994511,-6.420041561,0.679203928
10.46,0.581739485,-6.420269489,0.661164165
10.47,0.426529646,-5.589570522,-0.642537713
10.48,0.478232294,-4.993506908,-0.787158668
10.49,0.517779529,-4.43599081,-0.800439775
10.5,0.419925809,-3.763669491,-0.806594431
10.51,0.436781943,-3.763984203,-0.836185455
10.52,0.270887703,-2.219833374,-1.270775557
10.53,0.344333082,-1.503947258,-1.362307906
10.54,0.328746736,-0.608411789,-1.111837864
10.55,0.476631641,0.227264404,-0.621750116
10.56,0.699630022,0.880894661,-0.026692331
10.57,0.698197365,0.88075161,-0.029750705
10.58,0.621015132,1.58211422,0.171476737
10.59,0.609088063,2.151821136,-0.272647202
10.6,0.65249908,3.336865425,-1.108034492
10.61,0.378384113,3.983156204,-1.509964705
10.62,0.097253472,4.433065414,-1.665151834
10.63,-0.140099526,4.657864571,-1.855244279
10.64,-0.473736823,4.607303619,-1.929256916
10.65,-0.475966781,4.607093811,-1.934910297
10.66,-0.583939195,4.951806068,-0.09915787
10.67,0.208423466,5.739677429,1.404931307
10.68,0.444313288,5.668375015,1.419995427
10.69,0.721141458,5.190562248,1.333504438
10.7,0.74308908,5.192069054,1.360585451
10.71,0.345247209,4.518828392,1.733962059
10.72,-0.727954507,2.323105812,3.160091162
10.73,-0.60207808,1.044118881,3.445384026
10.74,-0.152287543,-0.180632591,3.867803335
10.75,0.532175541,-1.009123802,4.217772007
10.76,0.520604432,-0.938361168,4.462134838
10.77,-0.109414578,-0.396307945,3.85977006
10.78,-0.489857763,0.464263916,2.293996811
10.79,-0.50249517,0.463182449,2.273023129
10.8,-1.642332792,2.717812538,0.162800893
10.81,-2.274019003,3.56973362,0.186943188
10.82,-2.422785521,3.784912109,0.534132779
10.83,-2.277983665,3.435013771,0.818718553
10.84,-1.589215517,2.730658531,1.080405116
10.85,-1.601076365,2.7299757,1.069204092
10.86,-0.733089209,1.503351212,1.238051653
10.87,0.245620847,-1.044926643,0.88580364
10.88,0.457339704,-2.39365387,0.087051816
10.89,0.531430841,-3.352170467,0.140652403
10.9,0.811002135,-4.267687321,0.162422717
10.91,1.021481872,-5.032508373,-0.20781894
10.92,0.905782044,-5.40943861,-0.162191093
10.93,0.451415658,-5.55642271,0.382153124
10.94,0.473779172,-5.89958334,0.280640453
10.95,0.444904923,-6.266510963,0.193190545
10.96,0.159674212,-6.45131588,0.24724327
10.97,-0.054648705,-6.492291927,-0.041202143
10.98,-0.18754305,-6.264919758,-0.520818353
10.99,-0.220162362,-5.869797707,-1.085992455
11,-0.291758329,-5.163251877,-1.350364327
11.01,-0.363188744,-4.561961174,-1.122571111
11.02,-0.280336916,-3.845742702,-0.743741334
11.03,-0.214211419,-3.06003046,-1.219434142
11.04,-0.223265082,-3.059442043,-1.192900062
11.05,-0.557034016,-1.94037056,-1.733645558
11.06,-0.764510512,-1.019733429,-2.016321659
11.07,-0.506132066,0.767690659,-0.70068562
11.08,-0.610076964,1.357818604,-0.171065807
11.09,-1.01268816,1.868963242,0.064506501
11.1,-1.389439225,2.301249504,-0.5552454
11.11,-1.377651215,2.302970886,-0.517656565
11.12,-1.381208539,2.661881447,-2.112409353
11.13,-0.862927735,2.745471001,-1.425925851
11.14,-0.597107768,2.98186779,-0.366070688
11.15,-0.682388842,3.208133698,-0.260129869
11.16,-1.300756335,3.433959007,-0.980279267
11.17,-2.404478788,3.345902443,-2.205250263
11.18,-3.190084696,3.228844643,-2.811775446
11.19,-3.436847687,3.54057312,-1.789935708
11.2,-3.410113573,3.54137516,-1.779900551
11.21,1.006160736,4.684522629,1.87324667
11.22,2.706892252,4.588147163,2.030547619
11.23,2.703276634,4.590856552,2.068564892
11.24,3.056580067,3.749102592,3.449266911
11.25,2.773717642,3.1369524,3.749109507
11.26,2.64137888,2.318053246,3.709990501
11.27,2.633619547,2.319272041,3.724892139
11.28,2.329528809,1.292725563,0.833376527
11.29,1.440342903,1.40493679,-0.397716999
11.3,1.062236071,1.750839233,0.055205762
11.31,0.318062842,2.076755524,-0.014487445
11.32,0.445010394,2.402719498,-0.039362609
11.33,1.035673022,2.508638382,0.550876796
11.34,1.464970827,2.52586174,1.06241405
11.35,1.133550406,2.29163456,0.792053103
11.36,0.696486712,1.894639969,0.547204435
11.37,0.178628862,1.063922882,0.617228627
11.38,-0.14881745,0.07703495,0.951982141
11.39,-0.568713963,-1.176031113,1.014944553
11.4,-0.83212918,-2.594194889,0.647618115
11.41,-1.12147963,-3.88481617,0.193556249
11.42,-1.118205786,-3.886762619,0.149193585
11.43,-1.416636229,-5.585839272,0.127266496
11.44,-1.19609797,-6.056334496,0.31607306
11.45,-0.993455231,-6.351795673,0.650927126
11.46,-0.554493606,-6.41001749,1.094113588
11.47,0.073241398,-6.436800957,1.093201399
11.48,0.559963524,-6.302911758,0.884703875
11.49,0.933104694,-6.032296181,0.468923569
11.5,0.933885038,-5.610648155,-0.145601049
11.51,0.829627395,-5.011672974,-0.47596699
11.52,0.913252592,-4.527756691,-0.520495772
11.53,1.188030005,-3.857197762,-0.558708191
11.54,1.173841953,-3.184320927,-0.709268034
11.55,0.876208305,-2.442072868,-0.831160665
11.56,0.879383445,-2.442117691,-0.852437496
11.57,0.239999801,-0.967254639,-1.254164219
11.58,0.277405322,-0.387807846,-1.373065829
11.59,0.277748168,-0.387810707,-1.373065829
11.6,0.34227258,0.823702812,-0.684655428
11.61,0.343114853,0.823749542,-0.678430498
11.62,0.342928976,1.360121727,-1.052677274
11.63,0.376679808,2.966691017,-1.24368608
11.64,0.407259941,3.933822632,-0.853960216
11.65,0.270439923,4.754803658,-0.50660938
11.66,-0.084601283,5.166332245,-0.672736049
11.67,-0.426399827,5.11581707,-1.311637521
11.68,-0.743422389,4.763708115,-1.803848028
11.69,-0.801961422,4.265694618,-1.689636707
11.7,-0.650482535,4.361625671,-0.452429354
11.71,-0.642495036,4.3618536,-0.45001781
11.72,0.188857332,4.838578224,0.61649555
11.73,-0.300525278,4.865439415,0.680323303
11.74,-0.399759412,4.370677948,1.730068326
11.75,-0.338737965,3.299038887,2.749581575
11.76,-0.319158822,3.299983978,2.766985893
11.77,-0.166924357,0.640622139,4.140221119
11.78,0.72739017,-0.602050781,4.853644371
11.79,1.697119474,-1.670818329,4.755655289
11.8,1.387429833,-1.602789879,3.856292486
11.81,0.590936184,-0.828332901,3.054064751
11.82,-0.204829574,0.327088356,1.437225461
11.83,-1.557231665,1.892230034,0.237085879
11.84,-2.494250774,3.472082138,-0.073486529
11.85,-2.50401473,3.471926689,-0.090295479
11.86,-3.299668312,4.326700211,1.23419559
11.87,-2.724887371,3.795287132,1.336648107
11.88,-1.573339939,2.777835846,0.988488853
11.89,-0.369507998,1.298176765,0.399902165
11.9,-0.380681425,1.298037529,0.391937256
11.91,0.633898795,-1.067692757,0.963757634
11.92,1.184170961,-2.23388958,0.89073354
11.93,1.397120953,-3.251707077,0.494965792
11.94,1.213979125,-4.10911417,0.398984551
11.95,0.482040107,-4.358355999,0.23914215
11.96,0.070947953,-4.85418272,0.169578567
11.97,0.364827812,-5.484097958,-0.170289636
11.98,0.627764642,-5.917685032,-0.323575854
11.99,0.385807097,-6.013622284,0.012654096
12,-0.117704958,-5.941839218,0.278187692
12.01,-0.328413367,-5.922706604,0.223517507
12.02,-0.307214499,-5.872440815,-0.516010821
12.03,-0.284822404,-5.537216663,-1.195578933
12.04,-0.621828318,-5.084563255,-1.305298924
12.05,-0.840488076,-4.540874958,-1.393117666
12.06,-0.843884766,-4.540616512,-1.364333272
12.07,-0.830645144,-3.106160641,-0.952182412
12.08,-0.73705256,-2.377933979,-1.216549397
12.09,-0.728541613,-2.377331257,-1.176729798
12.1,-0.977170467,-1.409300804,-1.282639027
12.11,-1.192535996,-0.072306633,-0.934745669
12.12,-1.170272708,-0.071126938,-0.890784979
12.13,-1.076056957,1.283078194,-0.52880466
12.14,-1.052943826,1.284790993,-0.484341532
12.15,-0.97902441,2.239668846,-1.548342109
12.16,-1.002901912,2.706290245,-2.240413427
12.17,-1.096676588,3.215898514,-1.83411932
12.18,-1.086134672,3.217529297,-1.805725813
12.19,-0.650681675,4.114090919,0.329108775
12.2,-1.736420155,4.145812988,-0.043994129
12.21,-2.957933664,3.775491714,-1.185793996
12.22,-3.55631423,2.996070862,-2.024710417
12.23,-3.579965591,2.887467384,-1.609544754
12.24,-3.026526451,3.505021095,-0.926746965
12.25,-2.990261793,3.508295059,-0.888836622
12.26,1.922894716,4.137136459,0.405936867
12.27,2.988103867,4.042736053,1.664057374
12.28,2.989485502,4.046072006,1.703777552
12.29,3.249386549,3.718821526,4.147692204
12.3,3.245576143,3.211627007,4.025087357
12.31,3.237999201,3.213537216,4.047513485
12.32,2.507995367,1.979427338,1.267567158
12.33,1.561209917,1.361868858,0.601136208
12.34,1.549933076,1.360768318,0.591953635
12.35,1.038634181,0.90135479,0.086059272
12.36,0.990245223,0.441601753,0.284724474
12.37,0.974466324,0.438844681,0.25630796
12.38,1.277725101,0.567567825,0.306570113
12.39,1.693468094,0.949920654,0.743390441
12.4,1.696656466,0.821957588,0.929688335
12.41,0.907442987,0.779990196,1.047597766
12.42,0.883219838,0.776399612,0.997103274
12.43,0.091759488,0.43542099,0.796001315
12.44,-0.602860272,-1.253192902,0.882689595
12.45,-1.058187366,-2.373689175,0.524453819
12.46,-1.411630154,-3.328164101,-0.004931092
12.47,-1.407596231,-3.329009056,-0.02270335
12.48,-1.376204491,-4.818686485,-0.404886156
12.49,-0.962250412,-5.386357784,-0.344678164
12.5,-0.532598734,-5.913324356,-0.045472801
12.51,0.131524369,-6.148389339,0.351795167
12.52,0.14339295,-6.149076939,0.334869087
12.53,1.445032001,-5.841078758,0.734561861
12.54,1.084110856,-5.205034733,0.697101355
12.55,0.681302846,-4.48273468,0.364678264
12.56,0.56562525,-3.834546089,-0.357187957
12.57,0.306726039,-3.202972412,-0.961645007
12.58,0.180195168,-2.755664349,-1.10940659
12.59,0.135085344,-2.267577648,-1.039335966
12.6,0.117757417,-1.712368965,-1.043912172
12.61,-0.337323874,-1.233582497,-1.362949491
12.62,-0.422407687,-0.663556099,-1.339383125
12.63,-0.408179522,-0.663190842,-1.33340621
12.64,0.406676531,0.230340004,-0.177533716
12.65,0.566370249,0.666560173,0.11713694
12.66,0.658214569,1.184231758,-0.290768802
12.67,0.51109165,1.845604897,-1.067553878
12.68,0.295028865,2.691429138,-1.717201948
12.69,-0.078816131,3.731235504,-1.581586003
12.7,-0.388583571,4.586641312,-1.090774298
12.71,-0.399513841,4.74274826,-0.919191122
12.72,-0.222026035,4.316919327,-1.502848625
12.73,-0.461044669,3.713982582,-1.743464589
12.74,-0.826068103,3.429717064,-1.209143281
12.75,-0.810420752,3.430577278,-1.197495461
12.76,-0.495847821,3.998997688,-0.024578512
12.77,0.401453942,4.684980392,0.182997525
12.78,0.341373146,4.547579765,1.343001485
12.79,0.360631973,4.549391747,1.368231058
12.8,0.090328068,3.304320335,3.386174679
12.81,0.177919328,1.695835114,2.997843742
12.82,0.42474407,0.312437058,3.177980185
12.83,0.704857647,-0.585933685,3.524786472
12.84,0.767444491,-0.880766869,3.908245802
12.85,0.146499649,-0.372361183,3.553354979
12.86,0.125799105,-0.374505043,3.529902935
12.87,-0.499232382,0.159568787,2.478869438
12.88,-2.552394867,2.350803375,0.275402784
12.89,-2.559413433,2.349463463,0.253406405
12.9,-3.491331339,3.581440926,0.301992118
12.91,-2.503664255,3.242653847,0.756475568
12.92,-1.444791317,2.527959824,1.046010137
12.93,-0.907579422,1.662540436,1.113672733
12.94,-0.437589407,0.653654099,0.540761113
12.95,-0.094398707,-0.355033875,-0.030872762
12.96,0.216982707,-1.459587097,0.195357651
12.97,0.449901551,-2.396831512,0.613048792
12.98,1.451657653,-3.312760353,0.571608782
12.99,1.416026354,-3.314119339,0.550860226
13,1.463665724,-4.747044086,1.16777873
13.01,0.825543106,-5.075996399,1.469588876
13.02,0.720332444,-5.366400719,0.818774939
13.03,0.561859071,-5.654096127,-0.092316628
13.04,0.109934256,-5.766645908,-0.794363737
13.05,-0.3413001,-5.785518169,-1.098240137
13.06,-0.470438778,-5.581562042,-0.895630479
13.07,-0.517070353,-5.410964966,-1.032683015
13.08,-0.537259996,-5.410119057,-1.010703683
13.09,-0.657850623,-4.518429279,-0.96883595
13.1,-0.843470097,-4.136553288,-1.198546886
13.11,-0.808159947,-3.486397266,-1.162910581
13.12,-0.809155703,-3.484971523,-1.129323244
13.13,-0.721792936,-2.017607689,-1.82773757
13.14,-0.710939527,-2.01515007,-1.777392626
13.15,-0.800732493,-1.088393211,-1.37945044
13.16,-1.586110115,0.498975754,-0.164632142
13.17,-1.670712113,1.140570641,0.079703808
13.18,-1.175416946,1.336999893,-0.371214151
13.19,-0.640107036,1.655859947,-0.806509614
13.2,-0.176846594,1.728182793,-1.126012325
13.21,0.079046503,1.967794418,-0.972443283
13.22,0.086635061,1.969565392,-0.951641738
13.23,0.042368848,2.382000923,-0.752815843
13.24,-0.947828829,3.473848343,-1.103875637
13.25,-1.999589205,3.741677284,-1.421465635
13.26,-2.955677748,3.719504356,-1.529342175
13.27,-3.826438189,3.654439926,-1.778845549
13.28,-2.896261692,4.512274742,-0.543658912
13.29,-0.917242885,4.800113678,0.506108165
13.3,-0.905027568,4.804717064,0.556004286
13.31,2.505211592,4.322016716,0.86226207
13.32,2.855370045,4.081349373,2.142293453
13.33,2.870107412,3.681917191,3.115386248
13.34,2.595248461,2.67550087,3.912910461
13.35,2.340716362,1.664179802,3.75928092
13.36,2.118712664,0.880423546,2.96065402
13.37,1.236462235,0.325098038,1.521742463
13.38,1.218721986,0.322077751,1.494776726
13.39,-0.190040931,0.692211151,-0.212449193
13.4,-0.327834517,1.351909637,-0.344371557
13.41,-0.326433122,1.349052429,-0.372420728
13.42,0.733832538,2.280495644,0.422816753
13.43,0.740057409,2.278643608,0.403693378
13.44,1.026447058,2.43287468,0.484711289
13.45,0.839772582,2.151524544,0.703766882
13.46,0.850115895,2.149429321,0.680517137
13.47,-0.096569605,0.961378098,1.952452421
13.48,-0.228883803,-0.071726799,2.235735655
13.49,-0.227875352,-0.075470924,2.189061165
13.5,-0.337110639,-2.571270466,0.827668667
13.51,-0.42238152,-3.744755268,-0.041164577
13.52,-0.411396593,-3.746462345,-0.06707269
13.53,-0.581117511,-5.181882381,0.510665
13.54,-0.676894426,-5.639995575,0.241203159
13.55,-0.881177485,-5.788702965,0.596307814
13.56,-0.430329084,-5.807956219,0.877663672
13.57,0.261974394,-5.956398487,0.500775099
13.58,0.252532691,-5.728628635,0.387016833
13.59,0.279744357,-5.728413105,0.380461454
13.6,0.30472669,-4.799475193,0.433642626
13.61,0.346662551,-4.313821793,0.048384964
13.62,0.401564062,-3.725538731,0.084267288
13.63,0.46721077,-3.269490242,-0.108811379
13.64,0.388316989,-2.6219244,-0.551003575
13.65,0.394590497,-2.623026848,-0.578943729
13.66,-0.020949781,-1.512904167,-1.047756195
13.67,-0.146718204,-1.020236015,-0.933961988
13.68,-0.110153794,-0.501002312,-0.345766842
13.69,0.131917179,0.066158295,-0.283375859
13.7,0.166285008,0.686157227,-0.615371943
13.71,0.102287978,1.32554245,-1.161040068
13.72,-0.081003129,1.99635601,-1.621086597
13.73,-0.079564482,1.997050285,-1.604903698
13.74,-0.179746985,2.582134247,-1.75170362
13.75,-0.06305933,3.157500267,-1.504999161
13.76,0.262074292,3.74712944,-1.561546803
13.77,-0.182610571,3.752482414,-1.661674142
13.78,-0.515874505,3.556754112,-1.526972175
13.79,-0.477036744,3.725099564,-0.513567686
13.8,0.147512123,4.43221283,0.935728431
13.81,0.387029469,5.056001663,0.982983708
13.82,0.396070123,5.058157921,1.015579462
13.83,-0.536947489,4.821766853,0.689129233
13.84,-0.857216597,3.960981369,1.475244045
13.85,-0.964303017,2.731499672,2.493627787
13.86,-0.714379251,1.639962196,3.200927258
13.87,0.148230314,0.05362606,4.27980566
13.88,1.634093523,-1.101804733,5.232374668
13.89,1.619743109,-1.110151291,5.220482349
13.9,0.302054167,-0.362244606,3.963059902
13.91,-0.941338301,0.843803406,2.21271944
13.92,-1.834554553,2.079731941,0.548452079
13.93,-2.970511913,3.78565979,-0.427978396
13.94,-4.029015064,4.939062119,-0.164998889
13.95,-3.842609406,5.134882927,0.682965159
13.96,-3.833498001,5.134008408,0.658504725
13.97,-1.671962619,3.169502258,2.51241374
13.98,-0.591943562,1.535785675,1.859696031
13.99,-0.305468172,0.249741554,0.754375815
14,-0.305223256,0.249670982,0.752506256
14.01,0.435643524,-1.986882687,-0.426583231
14.02,0.419057548,-1.987946033,-0.436443955
14.03,1.450376749,-3.881585121,0.619118869
14.04,1.458040357,-4.291001797,1.515625238
14.05,1.417837739,-4.293408871,1.479856133
14.06,1.981502533,-4.937318802,1.528335333
14.07,1.298994303,-5.133179665,1.25545609
14.08,1.250575185,-5.134572029,1.227301717
14.09,0.122060813,-5.331632614,-0.074154854
14.1,0.08700674,-5.331877708,-0.075289786
14.11,-0.464880049,-5.204832554,-0.708099306
14.12,-0.427157223,-5.132543564,-0.792981565
14.13,-0.651902139,-4.794237614,-0.787753344
14.14,-0.770416558,-4.498836994,-0.707672
14.15,-0.716904104,-4.28000021,-0.621813893
14.16,-0.626101673,-4.034808636,-0.665139437
14.17,-0.637157917,-4.033881664,-0.641844511
14.18,-0.58340919,-3.230948925,-0.724445224
14.19,-0.588935256,-3.229910374,-0.700769782
14.2,-0.757687211,-1.566973686,-1.102101684
14.21,-1.063332319,-0.760923386,-1.184874773
14.22,-1.178526521,0.031101227,-1.097704649
14.23,-1.163437843,0.033263206,-1.056293488
14.24,-0.415196359,1.553537369,-0.254906714
14.25,-0.353997707,1.994072914,-0.302589059
14.26,-0.434409082,2.478006363,-0.726482213
14.27,-0.605550766,2.70597744,-0.972878873
14.28,-0.596304417,2.708777428,-0.935829103
14.29,-0.417139173,2.99831295,-0.826096833
14.3,-0.417954564,2.99937439,-0.813079
14.31,-2.697849035,3.030809402,-0.624777198
14.32,-3.778951168,2.645393372,-1.567404509
14.33,-3.605126619,2.33953476,-2.132758379
14.34,-2.83348918,3.222145081,-1.327966928
14.35,-0.163247317,4.211737633,-0.211674213
14.36,2.10058713,4.87920475,-0.111166835
14.37,2.70464468,5.140312195,0.581493616
14.38,2.710704327,5.145195007,0.629204035
14.39,2.506886721,5.154368401,3.428190231
14.4,2.99200654,4.877548218,4.195355892
14.41,2.986156225,3.982000351,4.092159748
14.42,2.433294296,2.824346542,3.588928223
14.43,1.173466206,1.507968903,2.48546052
14.44,-0.093275964,0.589046478,0.588897944
14.45,-0.85513413,-0.049275398,-1.271131158
14.46,-0.21631971,-0.270612717,-1.253623724
14.47,0.970800161,0.045122147,-0.117629051
14.48,2.061231375,0.740645409,0.558633506
14.49,2.060688734,0.739012718,0.544393838
14.5,2.23353219,1.790205956,2.075786114
14.51,1.566686988,2.155534744,2.67243886
14.52,0.166451752,2.388385773,3.311011791
14.53,0.165143147,2.383431435,3.262428045
14.54,-0.399656355,1.846533775,3.107053041
14.55,0.358308345,-0.545804977,1.45407939
14.56,0.364782304,-1.689980507,0.502990842
14.57,0.207223103,-2.569259644,-0.198103428
14.58,-0.22564067,-3.318130016,-0.120929182
14.59,-0.368702561,-3.934675694,0.420802087
14.6,-0.024559561,-4.356985569,0.678696156
14.61,0.222136945,-4.585138798,0.515479922
14.62,0.288116545,-4.576047897,0.649389923
14.63,0.296266556,-4.576770782,0.638365328
14.64,0.471944153,-4.041294575,0.689902067
14.65,0.479123831,-4.042188168,0.676023364
14.66,-0.210585564,-3.21931839,0.306451023
14.67,-0.18935442,-2.903784275,-0.390591264
14.68,-0.258446634,-2.666944027,-0.517826736
14.69,-0.382809937,-2.398775578,-0.626294732
14.7,-0.366191268,-2.398554325,-0.62673825
14.71,-0.121751592,-2.261766911,-0.111852706
14.72,0.237592876,-2.184901237,0.242169231
14.73,0.481256187,-2.270999908,0.726212561
14.74,0.489434362,-2.271300316,0.718593419
14.75,0.823023439,-2.192792416,1.082438707
14.76,0.897963822,-1.844417572,0.854804516
14.77,0.543796063,-1.016862869,0.237070113
14.78,0.194982842,0.835949898,-0.930197716
14.79,0.075119093,1.83905983,-1.286213636
14.8,0.065547705,1.839113235,-1.282315493
14.81,0.307434052,3.453065872,-0.939351022
14.82,0.052373968,3.80040741,-0.503815711
14.83,-0.014363393,3.405376434,-0.454525113
14.84,-0.095946208,2.409448624,-0.672968268
14.85,-0.401309639,1.289481163,-1.038369179
14.86,-0.737534046,0.469380379,-1.216369867
14.87,-0.464909554,0.317920685,-0.699395955
14.88,-0.076509021,0.722025871,0.610546351
14.89,0.339021325,1.266700745,0.282370091
14.9,0.331175566,1.267641068,0.296380997
14.91,-0.25950706,2.755373001,0.668652952
14.92,-0.589394569,3.088785172,0.360889435
14.93,-0.649921119,2.914783478,0.078593493
14.94,-0.562855005,2.72660923,0.399269193
14.95,-0.191036373,2.162376404,0.691111267
14.96,-0.192136884,2.163064957,0.699789107
14.97,0.278300434,0.894044876,1.722351551
14.98,0.461149991,0.296905518,2.451286554
14.99,0.685832083,-0.028033257,3.302202463
15,0.671230733,-0.030287743,3.274057865
15.01,-0.688212395,0.003492355,2.65185523
15.02,-1.443240523,0.083667755,1.593069673
15.03,-1.941052079,0.281636238,1.160382748
15.04,-2.127594233,0.436642647,0.872604609
15.05,-1.665393591,0.455150604,1.120301127
15.06,-1.317113638,0.44221592,1.324720263
15.07,-0.882317781,0.277751923,1.23277092
15.08,-0.511740267,0.201581955,1.225755453
15.09,-0.215305373,0.242502213,1.564839363
15.1,-0.138157234,0.211511612,1.650540233
15.11,0.003081307,0.140001297,1.517787933
15.12,-0.105932392,0.025657654,1.336785078
15.13,-0.12210305,-0.179393768,1.053275108
15.14,0.060922306,-0.638012886,0.842041314
15.15,0.108921416,-0.916898727,0.885941863
15.16,0.099794403,-1.154976845,1.044978619
15.17,0.089593619,-1.155858994,1.011224747
15.18,0.012029607,-1.319375038,1.135490894
15.19,-0.182421982,-1.374937057,1.110605717
15.2,-0.551373959,-1.226831436,0.936296403
15.21,-0.656074584,-1.131291389,0.570962846
15.22,-0.93099916,-1.03804493,0.590268433
15.23,-0.738438427,-0.887331963,0.683320046
15.24,-0.734869659,-0.887447357,0.669741273
15.25,-0.427184105,-0.86838913,0.714967609
15.26,-0.092482626,-0.700871468,0.82902658
15.27,0.015291456,-0.660223961,1.126143336
15.28,0.02027889,-0.660260201,1.107186317
15.29,0.325888634,-0.736667633,1.687816381
15.3,0.28371349,-0.814908981,1.564048171
15.31,0.289929301,-0.81356144,1.485987067
15.32,0.270398587,-0.385482788,1.247033596
15.33,0.143113107,-0.071977615,1.328917861
15.34,-0.183009058,0.047994614,0.86011225
15.35,-0.103789464,0.031407356,0.398273736
15.36,-0.060512781,0.055164337,0.317349017
15.37,-0.209257096,0.112056732,0.079151213
15.38,-0.426701218,0.040390015,-0.288434088
15.39,-0.646024883,0.035508156,-0.172691882
15.4,-0.831718862,-0.129834175,-0.098854512
15.41,-0.822101772,-0.453211784,-0.340465844
15.42,-0.748170018,-0.616271973,-0.255019099
15.43,-0.535416424,-0.578121185,0.12350291
15.44,-0.418569028,-0.362772942,0.108963728
15.45,-0.362935424,-0.056556702,-0.200138122
15.46,-0.380913049,0.134593964,-0.446968824
15.47,-0.458661914,0.462255478,-0.572046757
15.48,-0.453208983,0.744614601,-0.585830987
15.49,-0.417579144,0.897777557,-0.491476148
15.5,-0.353210867,0.902511597,-0.217557937
15.51,-0.259496093,0.648532867,-0.460980147
15.52,-0.260088801,0.648082733,-0.452444464
15.53,-0.221680224,0.02970314,-0.372308314
15.54,-0.016719518,-0.356462479,-0.286529541
15.55,0.118918859,-0.673231125,-0.350280881
15.56,0.122525945,-0.673986435,-0.333993554
15.57,0.395555794,-0.899755478,-0.346647859
15.58,0.391946346,-0.809484482,-0.392558247
15.59,0.315938354,-0.69274044,-0.436176717
15.6,0.315771759,-0.693227768,-0.424676448
15.61,0.431581676,-0.28177166,-0.705146313
15.62,0.446329951,-0.040221214,-0.487848878
15.63,0.430103481,0.04344368,-0.424515456
15.64,0.669735193,0.098417282,-0.659068763
15.65,0.753692448,0.21558857,-0.717961788
15.66,0.794986188,0.361548424,-0.629734993
15.67,0.786686003,0.361517906,-0.629404545
15.68,0.752699971,0.512388229,-0.312476277
15.69,0.742361844,0.512523651,-0.315590441
15.7,0.621592879,0.796991348,-0.057935596
15.71,0.597249448,0.796611786,-0.0439713
15.72,0.204525739,0.67411232,-0.378510177
15.73,0.114385091,0.357584,-0.653097391
15.74,0.23636356,0.019441605,-0.362371534
15.75,0.192226321,-0.179746628,-0.059558138
15.76,0.179264396,-0.180077553,-0.259087235
15.77,0.217205063,-0.118155479,-0.451134294
15.78,0.14275977,-0.053833008,-0.359749436
15.79,0.01186236,-0.073311806,-0.674877465
15.8,-0.139243931,-0.116818428,-0.414376915
15.81,-0.126715571,-0.102809906,-0.307903588
15.82,-0.315124154,-0.08407402,-0.974598885
15.83,-0.427293778,-0.015132904,-1.182979941
15.84,-0.41935873,-0.015607834,-1.148349047
15.85,-0.143183604,0.915450096,-0.523238301
15.86,-0.141340315,0.915290833,-0.491261065
15.87,0.017882131,1.307945251,-0.648730815
15.88,-0.191388547,1.463677406,-0.612867355
15.89,-0.422379851,1.066403389,-0.493087053
15.9,-0.426688373,1.066569328,-0.473930448
15.91,-0.863220453,0.257436752,-0.433228999
15.92,-0.962330401,-1.181371689,-0.523975313
15.93,-0.939745963,-1.181056976,-0.488538951
15.94,-0.540382087,-1.759921074,-0.296269089
15.95,-0.29360038,-1.656198502,0.017271295
15.96,-0.002385944,-1.322527885,0.053751111
15.97,0.046072673,-0.960062027,-0.071160287
15.98,0.061557684,-0.95904541,-0.04161033
15.99,-0.029717825,-0.620500565,-0.106743485
16,0.117996931,-0.121576309,-0.660595357
16.01,0.117954105,-0.120931625,-0.643760502
16.02,0.113777548,0.162044525,-0.715843737
16.03,0.088833153,0.351428986,-0.541292191
16.04,-0.173452854,0.499975205,-0.42230618
16.05,-0.597022712,0.547976494,-0.332282096
16.06,-0.780276179,0.560142517,-0.381888479
16.07,-0.800248146,0.423996925,-0.651467323
16.08,-0.845340014,0.304754257,-0.640868425
16.09,-0.847461224,0.204673767,-0.407393336
16.1,-0.851819992,0.205130577,-0.397659361
16.11,-0.468371511,0.030767441,0.063484162
16.12,-0.310912967,0.028787613,0.199203104
16.13,-0.347653091,-0.049423218,0.198126406
16.14,-0.331662476,-0.048689842,0.211967588
16.15,-0.22976175,-0.37596035,-0.186525226
16.16,-0.190351307,-0.509380341,-0.24244982
16.17,-0.167386547,-0.604673386,-0.168015659
16.18,-0.158844352,-0.604408264,-0.164451957
16.19,-0.05296506,-0.566040039,-0.087387264
16.2,-0.267029941,-0.336236,-0.064901292
16.21,-0.58140254,-0.192667961,-0.38535434
16.22,-0.732108653,0.013313293,-0.500347257
16.23,-0.721778393,0.013552666,-0.497919738
16.24,-0.58352828,0.258080483,-0.190615475
16.25,-0.506028354,0.169856072,-0.301415741
16.26,-0.49683106,0.170255661,-0.296398044
16.27,-0.375257075,0.089007378,0.171503425
16.28,-0.002842829,0.1297369,0.192553252
16.29,0.000788078,0.130054474,0.197365433
16.3,-0.222586304,0.247835159,0.067716539
16.31,-0.294157058,0.164543152,-0.147843003
16.32,-0.358672887,0.040572166,-0.200007796
16.33,-0.435684204,0.02666378,0.048356652
16.34,-0.431683302,0.026899338,0.051175714
16.35,-0.112795353,0.005643845,0.210621357
16.36,-0.290550053,-0.029744148,0.02416563
16.37,-0.283010006,-0.028849602,0.0362342
16.38,-0.333309829,-0.12575531,-0.179197669
16.39,-0.209499747,-0.370965958,-0.646701455
16.4,-0.098928288,-0.379159927,-0.640535891
16.41,-0.093770906,-0.37792778,-0.624446869
16.42,-0.04358004,-0.300314903,-0.462663353
16.43,-0.05567652,-0.270786285,-0.324564219
16.44,-0.130044505,-0.03787899,-0.391410112
16.45,-0.132615671,-0.037262917,-0.382429361
16.46,-0.254765153,0.059087753,-0.409879923
16.47,-0.137719289,0.097830772,-0.156799197
16.48,0.069003746,0.112346649,0.318104535
16.49,0.015089065,0.030789375,0.209982812
16.5,-0.040321633,-0.038618088,-0.068436444
16.51,-0.128817171,-0.127149582,-0.200501323
16.52,-0.111225471,-0.227729797,-0.197488427
16.53,-0.036361441,-0.237504959,-0.00029248
16.54,0.093185142,-0.120624542,0.315818399
16.55,0.215321645,0.032010078,0.476675212
16.56,0.058196306,0.108203888,0.438307554
16.57,0.056305379,0.107997894,0.436092705
16.58,-0.00228256,0.057847977,-0.141440094
16.59,0.030543312,0.036601067,-0.204197943
16.6,0.094203517,-0.003768921,-0.154126883
16.61,0.092835739,-0.003454208,-0.149554014
16.62,0.202906832,0.027989388,0.080202997
16.63,0.097753905,0.009261131,0.059720814
16.64,0.035897821,-0.0333395,-0.084319353
16.65,0.0340617,-0.032832146,-0.07746774
16.66,-0.094670117,-0.051561356,-0.100412965
16.67,-0.096644923,-0.051258087,-0.096356988
16.68,-0.062886819,-0.041457176,-0.205511928
16.69,-0.017993048,-0.038756371,0.050251305
16.7,0.055300012,-0.036129951,0.142229676
16.71,0.002830252,-0.184481621,0.034130394
16.72,0.037154399,-0.241916657,0.391802341
16.73,0.176790401,-0.134588242,0.399353594
16.74,0.113018692,-0.024880409,-0.129802704
16.75,0.035526514,0.010752678,-0.05606401
16.76,0.108684108,0.127638817,0.288617134
16.77,-0.022682019,0.251513481,0.417757571
16.78,0.056566663,0.212633133,0.442327172
16.79,-0.007508993,0.09485054,0.276731879
16.8,0.014384858,0.027567863,0.158807218
16.81,-0.089370333,-0.03711319,0.108012378
16.82,-0.121767312,-0.108859062,0.118686974
16.83,-0.11954701,-0.108621597,0.121337593
16.84,0.097783506,-0.139462471,0.277960092
16.85,0.098443419,-0.13920784,0.281196147
16.86,0.153192014,-0.050379753,0.198184371
16.87,0.152657911,-0.050112724,0.201588154
16.88,-0.108957082,0.053204536,-0.116892278
16.89,-0.104176424,0.048872948,-0.039352536
16.9,-0.011555925,0.049352646,-0.083650231
16.91,0.028043166,0.06664753,0.172167182
16.92,-0.109445378,0.059900284,0.271133304
16.93,-0.276814163,0.024427414,-0.049388707
16.94,-0.342682749,-0.04683876,-0.207904875
16.95,-0.341989815,-0.046457291,-0.203188658
16.96,-0.190686971,-0.024653435,0.053417265
16.97,-0.190431103,-0.024620056,0.053809464
16.98,-0.096812531,0.023278236,0.252674401
16.99,-0.012467995,-0.019781113,0.104628384
17,-0.023577198,-0.029156685,0.037440002
17.01,-0.022201963,-0.028925896,0.039957881
17.02,0.022167772,-0.119671822,0.042526722
17.03,0.022822723,-0.119451523,0.045203686
17.04,0.022955269,-0.025928497,0.346155822
17.05,0.022144824,-0.02583313,0.347275496
17.06,-0.024778187,-0.020895004,0.076447189
17.07,-0.078757465,-0.032647133,-0.02854979
17.08,-0.125630349,-0.008540154,-0.009818733
17.09,-0.132268757,-0.006103516,0.074683309
17.1,-0.014826179,0.053744316,0.156211436
17.11,0.018690526,0.05368042,0.294596791
17.12,-0.134684593,0.053634644,0.062229753
17.13,-0.266139865,0.053938866,-0.238354743
17.14,-0.2644234,0.054408073,-0.233087182
17.15,-0.144756198,-0.014559746,0.190912604
17.16,-0.143138677,-0.014229774,0.194490135
17.17,-0.053480685,-0.140822411,0.315091193
17.18,-0.054775037,-0.207736015,0.773744583
17.19,0.150502414,-0.13608551,0.503364086
17.2,0.151551917,-0.136107445,0.502942324
17.21,-0.052694358,0.053378105,-0.211668372
17.22,-0.070406109,0.118233681,0.025029361
17.23,-0.069994748,0.118216515,0.024842918
17.24,-0.156498164,0.11562252,0.173581123
17.25,-0.156774044,0.05555439,0.183009207
17.26,-0.187167049,-0.040430069,0.276252031
17.27,-0.293444455,-0.095687866,0.400926024
17.28,-0.290058762,-0.095773697,0.399448246
17.29,-0.116645217,-0.069345474,0.246833444
17.3,-0.074012674,-0.131335259,0.203742027
17.31,-0.070230961,-0.13113308,0.205491185
17.32,-0.047448799,-0.130908966,0.157028973
17.33,-0.104089901,-0.094730377,-0.034254074
17.34,-0.086957142,-0.120903969,0.160942018
17.35,-0.043838486,-0.101736069,0.230290175
17.36,-0.061877564,-0.072973251,0.043672264
17.37,-0.1593097,0.042039871,0.089910805
17.38,-0.246996984,0.056370735,0.235592842
17.39,-0.176514074,0.075360298,0.166523933
17.4,-0.228759229,0.070466042,0.136426985
17.41,-0.227360025,0.070439339,0.1360358
17.42,-0.146402493,-0.006174088,0.082982898
17.43,-0.130067304,-0.037203789,0.002262712
17.44,-0.094209805,-0.053862572,0.041385174
17.45,-0.091341257,-0.053751946,0.042012453
17.46,0.009461939,-0.027299881,0.062188089
17.47,-0.144347251,0.056746483,0.15260011
17.48,-0.139224351,0.056985855,0.154254437
17.49,-0.136003435,0.06201458,0.225424051
17.5,0.00574629,0.004852295,0.153425396
17.51,0.122499205,-0.009173393,0.053389549
17.52,0.125230968,-0.00888443,0.056160867
17.53,-0.039505869,0.060816765,0.204544365
17.54,-0.079584926,0.068202019,0.32351023
17.55,-0.076767817,0.058769226,0.152043283
17.56,-0.092981577,0.059070587,0.171466112
17.57,-0.090355471,0.059343338,0.173830628
17.58,-0.258194864,-0.007411957,-0.106001139
17.59,-0.343076468,0.048153877,-0.19714278
17.6,-0.281997412,0.01036644,-0.003180623
17.61,0.036792204,-0.027535439,0.582459211
17.62,0.05639562,-0.096849442,0.365740359
17.63,-0.043599129,-0.101380348,0.081067085
17.64,-0.128355533,-0.103447914,0.278211653
17.65,-0.149759993,-0.026679039,0.33888936
17.66,-0.194342807,0.009317398,-0.048794687
17.67,-0.19088608,0.009730339,-0.045126796
17.68,-0.024917588,0.062576294,0.310824096
17.69,-0.025818184,0.062335968,0.308401704
17.7,0.098622069,0.061764717,0.525693059
17.71,-0.003108934,0.015775681,0.288826823
17.72,-0.130569905,-0.018027306,0.018292367
17.73,-0.131406799,-0.018026352,0.018605709
17.74,-0.236877516,-0.092006683,-0.139295697
17.75,-0.217078447,-0.091757774,0.054894686
17.76,-0.077633724,-0.129876137,0.231551528
17.77,0.049002886,-0.038775444,0.302369952
17.78,0.011994094,0.052365303,0.182181656
17.79,-0.050679356,0.059976578,0.126973748
17.8,-0.047973394,0.050951958,0.025086463
17.81,-0.040823877,-0.027479172,-0.030999005
17.82,0.025622368,-0.048456192,-0.032200634
17.83,0.107694872,-0.007312775,0.087749243
17.84,0.104740121,-0.007071495,0.090978622
17.85,-0.013381109,0.062387466,0.297764778
17.86,-0.054818302,0.052880287,0.100489438
17.87,-0.08404316,-0.035499573,-0.050033271
17.88,-0.086537898,-0.078324318,-0.125772357
17.89,-0.165474221,-0.075725555,-0.037016213
17.9,-0.145745352,-0.058893204,0.086306393
17.91,-0.085379004,-0.037299156,0.146925092
17.92,-0.085159451,0.01065731,0.162579954
17.93,0.035012931,0.037136078,0.063714802
17.94,0.016068801,0.054130554,-0.022055388
17.95,-0.035788015,0.066340446,0.054896355
17.96,-0.017852247,0.064025879,0.070276022
17.97,-0.004692182,0.064101219,0.09525454
17.98,0.079984449,0.059316635,0.215325117
17.99,-0.012690485,0.066506386,0.222756505
18,-0.142865717,0.080925941,0.240280688
18.01,-0.19564949,0.0714674,0.174461246
18.02,-0.10674277,0.066991806,-0.047549188
18.03,-0.106462643,0.067442894,-0.043130815
18.04,-0.141350344,-0.030310631,-0.005762577
18.05,-0.09386912,0.068324089,0.082478166
18.06,-0.08442989,0.01132679,0.328522623
18.07,0.066199809,-0.07919693,0.550455153
18.08,0.034199715,-0.138654709,0.080169678
18.09,-0.021849498,-0.126111031,-0.015178919
18.1,-0.116041109,-0.099478722,0.296338141
18.11,-0.113913015,-0.099497795,0.295712054
18.12,-0.059191108,0.068098068,0.175398588
18.13,-0.006997451,0.065998077,0.089342415
18.14,-0.010821253,0.073419571,0.189641297
18.15,-0.022677198,0.130872726,0.24461937
18.16,-0.004197091,0.101927757,0.199661553
18.17,-0.089451149,0.070514679,0.094161451
18.18,-0.037706345,0.039140701,-0.00387001
18.19,-0.05215016,0.067699432,0.059066474
18.2,-0.087317854,0.070028305,0.283461809
18.21,0.069810182,0.070155144,0.360972524
18.22,0.061815813,0.056141853,0.54847908
18.23,0.064400718,0.056547165,0.551914096
18.24,0.065015405,-0.117610931,-0.14181912
18.25,0.068018094,-0.116718292,-0.133798599
18.26,0.003621772,-0.120743752,-0.172656894
18.27,0.105238862,-0.062708855,0.052850485
18.28,0.104876168,-0.009727478,0.268959582
18.29,0.103935234,-0.009547234,0.270822465
18.3,0.052451193,0.057600975,0.35833329
18.31,-0.089119047,0.074620247,0.07341522
18.32,-0.160094634,0.048609734,0.042827129
18.33,-0.218067452,0.039315224,0.16485405
18.34,-0.215444416,0.039527893,0.166186094
18.35,-0.209893853,-0.041606903,0.141873121
18.36,-0.167723835,-0.098676682,0.149409235
18.37,-0.093832418,-0.024046898,0.133079946
18.38,-0.06583266,0.055381775,0.037917852
18.39,-0.062052995,0.055853844,0.041405797
18.4,-0.151799992,0.077811241,0.018063664
18.41,0.004221052,0.054162979,0.070395827
18.42,-0.018361673,0.013616562,0.186567783
18.43,0.102016524,0.030385017,0.344424248
18.44,0.218762577,0.044622421,0.336200595
18.45,0.217607707,0.044518471,0.335469365
18.46,0.020599857,0.075622559,0.153497815
18.47,-0.106624037,0.078117371,0.092283309
18.48,-0.132435292,0.075884819,-0.016509771
18.49,-0.131858364,0.076102257,-0.014667511
18.5,-0.257234871,0.026075363,0.001658797
18.51,-0.305135667,0.064713478,-0.034273982
18.52,-0.182360187,0.079361916,0.243094564
18.53,-0.139189959,0.072504997,0.391487181
18.54,-0.053320825,-0.030180931,0.558547974
18.55,0.030093819,-0.137775421,0.49723345
18.56,-0.041997075,-0.149643898,0.490476072
18.57,-0.071844101,-0.137684822,-0.001365662
18.58,-0.032422721,-0.199590683,-0.358148456
18.59,-0.047549188,-0.156051636,-0.093669295
18.6,-0.038153261,-0.029125214,0.359271228
18.61,-0.039992034,-0.029565811,0.355837286
18.62,0.159918755,0.058474541,0.490517676
18.63,-0.14729479,0.08193779,0.326445699
18.64,-0.148902804,0.081605911,0.323840857
18.65,-0.242326707,0.033745766,-0.032707214
18.66,-0.186466068,-0.059412003,0.007414341
18.67,-0.108855009,-0.087901115,0.251167953
18.68,0.112345174,-0.1188097,0.47075218
18.69,-0.033541501,-0.130601883,0.314331353
18.7,-0.113780409,-0.14941597,0.080086112
18.71,-0.12186259,-0.13698101,-0.119474649
18.72,-0.11351496,-0.091010094,-0.048431873
18.73,-0.113157094,-0.090786934,-0.04649961
18.74,-0.043915153,0.081615448,0.226489425
18.75,-0.035123795,0.12702179,0.24503684
18.76,-0.086076617,0.139082909,0.109514594
18.77,-0.195638239,0.117721558,0.06571579
18.78,-0.241991162,0.065234184,0.112347603
18.79,-0.217936069,0.010211945,0.231941044
18.8,-0.104811221,-0.004276276,0.215762734
18.81,-0.116536856,0.014718056,0.328618884
18.82,-0.063741177,0.024158478,0.231039405
18.83,-0.061006486,0.024208069,0.230855227
18.84,-0.124659479,0.043533325,0.185970306
18.85,-0.060417652,0.026968002,0.189036191
18.86,-0.056403726,0.027192116,0.189928472
18.87,-0.05048874,-0.044426918,0.315383256
18.88,0.01975283,-0.03953743,0.26994592
18.89,0.010068089,-0.013184547,0.236015737
18.9,0.061909124,-0.010910034,0.210536361
18.91,0.148717627,0.000860214,0.182270289
18.92,0.030817479,0.050893784,0.350130439
18.93,-0.058283478,0.050507545,0.248765588
18.94,-0.058227658,0.050356865,0.24729526
18.95,-0.174632937,-0.002297401,0.029482126
18.96,-0.321024567,0.028855324,-0.097833514
18.97,-0.285599023,0.060012817,-0.05247128
18.98,-0.103051215,0.016894341,0.294254303
18.99,-0.052566856,-0.019018173,0.665428042
19,0.093734816,-0.127004623,0.821097493
19.01,0.063348934,-0.244774818,0.412249267
19.02,0.096007004,-0.201919556,0.069526672
19.03,0.097547784,-0.201972961,0.068559527
19.04,0.130436212,-0.139872551,0.381139398
19.05,0.127837867,-0.140388489,0.37710619
19.06,-0.019137114,0.0383358,0.569050908
19.07,-0.130026102,0.004008293,0.191312552
19.08,-0.301712841,-0.053891182,0.01778245
19.09,-0.293661833,-0.171388626,0.063782096
19.1,-0.291376501,-0.1714468,0.062621593
19.11,-0.075523615,-0.216739655,0.070744514
19.12,0.084620059,-0.21399498,0.083027661
19.13,0.253439635,-0.115468025,0.320768297
19.14,0.28417927,0.042722702,0.501896262
19.15,0.158411786,0.078605652,0.396768451
19.16,0.157457128,0.078614235,0.397075892
19.17,0.058243364,0.071557045,0.187774122
19.18,-0.131826431,0.045347214,0.117282569
19.19,-0.256633669,0.026360512,0.245786905
19.2,-0.234824657,0.026453972,0.117323339
19.21,-0.318277657,0.03396225,0.034048796
19.22,-0.316792667,0.034522057,0.038791895
19.23,-0.252531648,0.016216278,-0.033046603
19.24,-0.268400103,-0.023414612,-0.033905149
19.25,-0.192813724,-0.060668945,-0.030306458
19.26,-0.033463418,-0.097962379,-0.108594537
19.27,-0.031174451,-0.097297668,-0.10338819
19.28,-0.034184188,-0.099332809,-0.055220127
19.29,0.030948311,-0.072978973,0.22024703
19.3,0.030444175,-0.073049545,0.219668865
19.31,-0.009132504,-0.056362152,0.183570087
19.32,-0.091991991,-0.006164551,0.03714335
19.33,-0.099111766,0.027313232,0.0613693
19.34,-0.084478915,0.070325851,0.200122595
19.35,-0.087246776,0.070104599,0.198865175
19.36,0.012525499,0.084352493,0.148510456
19.37,-0.045912147,0.093951225,0.228587866
19.38,-0.115541697,0.096492767,0.16585201
19.39,-0.08150506,0.063085556,0.002238035
19.4,-0.176945299,-0.030136108,-0.16827178
19.41,-0.178544402,-0.02991581,-0.165905476
19.42,-0.28684485,0.020539284,-0.082802057
19.43,-0.197004139,0.037536621,-0.15953052
19.44,-0.058113605,-0.091732979,0.322538912
19.45,-0.06081,-0.091869354,0.322047889
19.46,0.111586466,-0.18556881,0.391725719
19.47,0.110123113,-0.18585968,0.389451325
19.48,-0.065547973,-0.073532104,-0.296723485
19.49,-0.066537887,-0.073625565,-0.297431231
19.5,-0.110928029,-0.050210953,-0.272399664
19.51,-0.003472507,0.121279717,0.752889216
19.52,-0.0101327,0.120286942,0.745592654
19.53,-0.131484538,0.081284523,0.053925872
19.54,-0.179115653,0.028263092,-0.077411175
19.55,-0.182484984,0.028064728,-0.078441381
19.56,-0.172471449,0.008863449,0.146540105
19.57,-0.041474909,0.016177177,0.140884697
19.58,0.048536658,-0.009848595,0.198830843
19.59,-0.000328496,0.04086113,0.459066331
19.6,-0.000970453,0.041261673,0.462786377
19.61,-0.026795149,-0.044190407,-0.050340533
19.62,-0.051020056,-0.115174294,-0.105189443
19.63,-0.051695481,-0.114455223,-0.098681331
19.64,-0.017448992,-0.082892418,0.029977202
19.65,-0.034538686,-0.015685081,0.123058677
19.66,0.000335947,0.027318001,0.149314046
19.67,0.01772891,0.063037872,0.105329037
19.68,-0.09374781,0.034204483,0.045322657
19.69,-0.208808392,0.003107071,0.117932916
19.7,-0.272242606,-0.035222054,0.158642948
19.71,-0.272653699,-0.035217285,0.158816993
19.72,-0.170639634,-0.035235405,0.118112922
19.73,0.13360928,-0.001862526,0.227489531
19.74,0.199733675,0.050574303,0.305048168
19.75,0.126756787,0.08386898,0.248608112
19.76,-0.065448552,0.083779335,0.133612454
19.77,-0.066975623,0.083786011,0.133899272
19.78,-0.087545231,0.074098587,0.159572065
19.79,-0.041088894,0.066714287,0.191597045
19.8,-0.042474508,0.066409111,0.189185679
19.81,0.02825892,0.051709175,0.413891137
19.82,0.02707614,0.051377296,0.411153972
19.83,-0.040469587,0.048816681,0.304522932
19.84,-0.061676696,0.000946999,0.127357841
19.85,-0.060696751,0.001145363,0.128888369
19.86,-0.16500704,-0.063257217,-0.216267586
19.87,-0.163090393,-0.062797546,-0.212530017
19.88,-0.166264787,-0.000130653,-0.290713787
19.89,0.210380763,0.069426537,0.780493319
19.9,0.177591339,0.009289742,0.541335821
19.91,0.175386369,0.009103775,0.540144682
19.92,0.125267431,-0.132404327,0.411506474
19.93,0.089758739,-0.125733376,0.038612604
19.94,0.088028416,-0.126089096,0.035857558
19.95,0.143873185,0.08432579,0.167734087
19.96,0.176202297,0.119775772,0.4539814
19.97,-0.024425209,0.100216866,0.420113146
19.98,-0.150027037,0.068787575,0.295857251
19.99,-0.202720612,-0.063231468,0.097026348
20,-0.204255715,-0.063494682,0.094958663
20.01,-0.164524645,-0.123519898,0.162940741
20.02,-0.099914297,-0.049494743,0.331125736
20.03,-0.027767494,0.014938354,0.506355822
20.04,0.063500479,0.043414116,0.508799553
20.05,0.058539942,0.024062157,0.279690325
20.06,0.057957754,0.024167061,0.280734599
20.07,-0.026623949,0.024460793,-0.020529032
20.08,-0.006066099,0.034228325,0.132161617
20.09,-0.036128804,0.019924164,0.207066536
20.1,-0.037401587,0.019949913,0.207553148
20.11,-0.024797544,0.079788208,0.205295682
20.12,-0.099784777,0.079969406,0.065690875
20.13,-0.138184786,0.049168587,0.004031777
20.14,-0.180792198,-0.02462101,0.067489982
20.15,-0.180171877,-0.024278641,0.070529461
20.16,-0.074365065,-0.069483757,0.209553182
20.17,-0.014342785,-0.007015228,0.264022887
20.18,-0.059522018,0.02190876,0.215396941
20.19,-0.058770463,0.022175789,0.217670023
20.2,-0.146381617,0.005673409,0.219656766
20.21,-0.08463949,-0.013353348,0.069656372
20.22,-0.04512772,-0.027552605,0.008689284
20.23,-0.070520312,-0.041733742,0.065225244
20.24,0.038031325,0.023066521,0.262679398
20.25,0.037979737,0.023198128,0.263925374
20.26,-0.004487813,0.035422325,0.299556196
20.27,-0.005657658,0.074072838,0.158594549
20.28,-0.030498758,0.057739258,0.133313775
20.29,-0.046139166,0.058161736,0.203752101
20.3,-0.04538016,0.058444023,0.206115425
20.31,-0.047534049,0.020406723,0.160520196
20.32,-0.178868011,0.02532959,-0.020321846
20.33,-0.177509293,0.025592804,-0.018476009
20.34,-0.23762095,0.085799217,-0.02292943
20.35,-0.051480457,0.033549309,0.495133281
20.36,-0.016883045,-0.03326416,0.580711842
20.37,-0.178152055,-0.143176079,-0.09764719
20.38,-0.232721135,-0.221599579,0.009863615
20.39,0.014858827,-0.144646645,0.330478966
20.4,0.170733437,-0.080021858,0.210060597
20.41,0.21036841,-0.008057594,0.201468647
20.42,0.164866224,0.046979904,0.304218829
20.43,0.043865085,0.087332726,0.287047029
20.44,0.041892618,0.086754799,0.282547832
20.45,-0.153660446,0.086103439,0.246147335
20.46,-0.265118688,-0.005664825,0.225333571
20.47,-0.265112251,-0.006279945,0.220080137
20.48,-0.302352727,0.053235054,0.087679029
20.49,-0.157454282,0.03161335,0.15613997
20.5,-0.110172674,0.024456024,0.2159518
20.51,-0.040774718,-0.013734818,0.281107783
20.52,-0.054781526,0.00565815,0.091161728
20.53,-0.059373617,0.027600288,-0.025545955
20.54,-0.03332527,0.011312485,0.068995118
20.55,-0.031608671,0.011685371,0.071898699
20.56,-0.037377104,-0.031193733,0.229026198
20.57,-0.041541532,-0.019135475,0.186570346
20.58,0.001306251,-0.014397621,0.284358203
20.59,-0.05928579,0.009352684,0.337936521
20.6,-0.100558952,0.006741524,0.139912844
20.61,-0.100601196,0.006782532,0.140309215
20.62,-0.193464562,0.009419441,-0.049289346
20.63,-0.225368768,-0.021577835,-0.019778252
20.64,-0.28103736,-0.040701866,0.063835502
20.65,-0.068812326,0.014322281,0.214089632
20.66,-0.082488522,0.038218498,0.297319293
20.67,-0.01938574,0.02377224,0.207843542
20.68,-0.023552939,0.062106133,0.086033225
20.69,-0.125978813,0.033511162,0.072577119
20.7,-0.070550978,0.040757179,0.010864139
20.71,-0.068389222,0.033652306,0.025887489
20.72,0.115449727,0.06961441,0.311439455
20.73,0.027738124,0.08627224,0.476032734
20.74,-0.083152547,0.066977501,0.417470098
20.75,-0.116004735,0.014434814,0.166983187
20.76,-0.093455404,-0.035578728,0.027933955
20.77,-0.068737015,-0.083100319,-0.062638402
20.78,-0.112014264,-0.063708305,-0.007862449
20.79,-0.140666813,-0.006093979,-0.052000642
20.8,-0.058665335,0.092211723,0.087887764
20.81,0.027830034,0.066038132,0.287938774
20.82,0.163587868,-0.010418892,0.629420817
20.83,0.073572233,-0.036813736,0.437568069
20.84,-0.118808597,-0.05598259,-0.034064531
20.85,-0.147364125,-0.110907555,0.175487638
20.86,-0.094413653,-0.04394722,0.308869779
20.87,-0.005487636,-0.008141518,0.030119777
20.88,-0.005947888,-0.008015633,0.031252742
20.89,0.079073161,0.032752037,0.022481203
20.9,-0.028164521,0.075540543,0.34822005
20.91,-0.116260171,0.084676743,0.277766526
20.92,-0.134666845,0.055504799,0.123606682
20.93,-0.135919914,0.055212021,0.121380568
20.94,-0.139138505,-2.86102E-06,0.026944399
20.95,-0.105862051,-0.011996269,0.141554356
20.96,0.061574116,0.052767754,0.334229231
20.97,-0.072071403,0.06738472,0.369737148
20.98,-0.070283636,0.067761421,0.372593284
20.99,0.008249879,0.006088257,0.166513622
21,0.022039026,-0.002621651,-0.190546274
21.01,0.087780878,-0.04037571,0.110774636
21.02,0.137927294,-0.049696922,0.208719134
21.03,0.110649705,-0.020850182,0.162042975
21.04,-0.112715915,0.08942318,0.136987567
21.05,-0.17954123,0.089543343,0.159464479
21.06,-0.104867548,0.089599609,0.083258986
21.07,-0.104732901,0.089719772,0.084272027
21.08,-0.015680611,0.080306053,0.126172185
21.09,-0.082072511,0.056538582,0.225741565
21.1,-0.044698328,0.039995193,0.224864483
21.11,-0.062147677,-0.055448532,0.145844698
21.12,-0.134167001,-0.050151825,0.051340938
21.13,-0.160599887,-0.073707581,0.04703927
21.14,-0.135033488,-0.071154594,0.06465745
21.15,-0.072370321,-0.030554771,0.075851679
21.16,-0.044210255,0.029053688,0.164804816
21.17,-0.045337722,0.028613091,0.161417723
21.18,0.01552628,0.090506554,0.223343492
21.19,-0.030268386,0.090261459,0.259654462
21.2,-0.029653236,0.09013176,0.258522093
21.21,-0.035460085,-0.015122414,0.144006848
21.22,-0.050731465,-0.072387695,0.200499833
21.23,-0.049316481,-0.072257996,0.20137471
21.24,0.030001685,-0.074621201,0.206241548
21.25,-0.082363755,-0.045923233,0.057572722
21.26,-0.294983327,-0.007546425,-0.26759088
21.27,-0.243157983,0.090809822,-0.402736425
21.28,-0.155555323,0.093369484,-0.119282842
21.29,0.029277608,0.098031044,0.519002557
21.3,0.176549345,0.073607445,0.701875567
21.31,0.174873531,0.07316494,0.698702812
21.32,0.050045073,-0.005970001,0.333668709
21.33,0.00536342,-0.034881592,0.24594444
21.34,-0.06954436,-0.08753109,-0.189988256
21.35,0.02471526,-0.137405396,-0.285097122
21.36,0.021079451,-0.039108276,0.190346301
21.37,-0.053423405,0.089688301,0.44787997
21.38,-0.063904554,0.117614746,0.504025102
21.39,-0.124934122,0.097488403,0.376737177
21.4,-0.125139937,0.087010384,0.218778193
21.41,-0.123413906,0.074611664,0.061996698
21.42,-0.132028461,0.036201477,0.15678221
21.43,-0.156102404,-0.01876545,0.356019974
21.44,-0.047183633,-0.099913597,0.273645699
21.45,0.059357181,-0.132928848,0.207651675
21.46,-0.04324609,-0.165833473,-0.053415298
21.47,-0.040080324,-0.165180206,-0.048398256
21.48,0.017028719,-0.080854416,0.051299453
21.49,0.106351852,0.02237606,0.067825794
21.5,-0.068830103,0.089642525,0.151219249
21.51,-0.03055954,0.120945931,0.140638709
21.52,-0.05509308,0.113882065,0.024526834
21.53,-0.146413982,0.121294022,0.007307887
21.54,-0.232544094,0.090278625,0.281222403
21.55,-0.171771988,0.083069801,0.462766588
21.56,-0.022295415,-0.031957626,0.325267971
21.57,-0.112304792,-0.03669548,0.239308357
21.58,-0.133561358,-0.062936783,0.23223877
21.59,-0.130406261,-0.062917709,0.231783032
21.6,-0.07018894,-0.096404076,0.102180839
21.61,-0.036528379,-0.053272247,0.058801293
21.62,-0.053354293,-0.000696182,0.208357215
21.63,-0.04600814,0.051763535,0.284924626
21.64,-0.043449342,0.0516119,0.283146143
21.65,-0.026452035,0.063574791,0.193914831
21.66,-0.03372559,0.077998161,0.110046983
21.67,-0.019443929,0.025351524,0.172053218
21.68,-0.017669588,0.025436401,0.172314167
21.69,0.060397029,0.037431717,0.284669161
21.7,0.023125649,0.027986526,0.278376937
21.71,-0.06919682,0.040110588,0.288917244
21.72,-0.11779964,-0.05074501,0.237055957
21.73,-0.115778595,-0.05055809,0.237985671
21.74,-0.188050807,-0.167637825,-0.280019045
21.75,-0.157143086,-0.112478256,0.045839071
21.76,-0.156025052,-0.112688065,0.043924332
21.77,-0.009910375,-0.136983872,0.323421598
21.78,-0.11861375,-0.120656014,0.478104413
21.79,-0.118388921,-0.121305466,0.472659051
21.8,-0.101164222,-0.088489532,0.356286228
21.81,-0.068423688,0.052103996,-0.159610391
21.82,-0.067064554,0.051796913,-0.162608624
21.83,-0.052166969,0.125951767,0.104696631
21.84,-0.053019434,0.125702858,0.10280478
21.85,-0.038175493,0.237769127,0.590162575
21.86,-0.194274247,0.218200684,0.359849334
21.87,-0.495304316,0.294674873,0.366183758
21.88,-0.337428033,0.143626213,0.21362263
21.89,-0.123133779,0.007217407,0.142621219
21.9,0.128259823,-0.270277977,0.097454906
21.91,0.242822811,-0.389630318,0.182581425
21.92,0.357943326,-0.492352486,0.268981397
21.93,0.315120876,-0.413293839,0.308106124
21.94,0.247015029,-0.267379761,0.175502121
21.95,0.217838153,-0.047338486,0.204838157
21.96,-0.130057395,0.086322784,0.225324512
21.97,-0.406033337,0.244039536,0.179081202
21.98,-0.460648209,0.215191841,0.055438995
21.99,-0.458208323,0.215242386,0.055207968
22,-0.232246339,0.074175835,-0.115669847
22.01,-0.217054904,0.026536942,0.116163254
22.02,-0.122986913,-0.014129639,0.236019552
22.03,-0.11510846,-0.011746407,0.281166613
22.04,-0.130715311,-0.059710503,0.30651921
22.05,-0.128815115,-0.059919357,0.304339469
22.06,-0.155416876,-0.067432404,0.327253401
22.07,-0.162182272,-0.13246727,0.251334488
22.08,-0.080653131,-0.140036583,0.067755342
22.09,-0.079273731,-0.140321732,0.064811111
22.1,-0.04298529,-0.12147522,-0.064751625
22.11,0.028352618,-0.02132225,0.22140491
22.12,0.04917042,0.004636765,0.290157557
22.13,0.048334703,0.00435257,0.28796792
22.14,0.050140291,0.04742527,0.244718969
22.15,-0.028996676,0.035452843,0.199311912
22.16,-0.055718362,0.023405075,0.21785754
22.17,0.010803908,0.05432415,0.230464995
22.18,0.002146661,0.082723618,0.383513033
22.19,0.009942114,0.032042503,0.385265648
22.2,-0.096871048,-0.044755936,0.209206998
22.21,-0.176287651,-0.106975555,-0.142356992
22.22,-0.214281708,-0.094689369,-0.323956132
22.23,-0.108514071,-0.072832108,-0.220734835
22.24,-0.013297439,-0.05837059,-0.021017313
22.25,0.027961403,0.006028175,0.424901962
22.26,0.185624987,-0.006766319,1.036064029
22.27,0.211230964,-0.053343773,0.80189085
22.28,0.146503121,-0.068674088,0.286266208
22.29,-0.064982772,-0.021386147,-0.061262488
22.3,-0.110022306,-0.057531357,-0.14724946
22.31,-0.129189193,0.014120102,0.181458175
22.32,-0.119404465,0.082795143,0.510315776
22.33,-0.091108501,0.076992989,0.458509862
22.34,-0.12711671,0.07605648,0.244572341
22.35,-0.128232479,0.075427055,0.238815844
22.36,-0.194276303,-0.011073112,-0.015689492
22.37,-0.19178465,-0.011189461,-0.017455101
22.38,-0.066663057,-0.063883781,0.192431271
22.39,0.006083637,-0.039837837,0.285839677
22.4,0.197630808,-0.018148422,0.408642948
22.41,0.198245719,-0.013274193,0.438006878
22.42,0.095523134,-0.015620232,0.218059659
22.43,0.095916077,-0.01550293,0.219138384
22.44,-0.038067222,-0.108760834,-0.014388084
22.45,-0.100476325,-0.063262939,0.088701487
22.46,-0.064759642,-0.008343697,0.20236069
22.47,-0.127839625,0.075161934,0.23799783
22.48,-0.171475709,0.074873924,0.149188161
22.49,-0.298098564,0.07479763,0.076588511
22.5,-0.238947898,0.070017815,0.028423309
22.51,-0.191325218,-0.001667023,-0.006789923
22.52,-0.121954292,-0.05413723,0.111782014
22.53,-0.04030031,-0.089863777,0.120000303
22.54,0.065033153,-0.025081635,0.242874742
22.55,0.061889693,-0.020208359,0.298320115
22.56,-0.052013546,0.018161774,0.243418217
22.57,-0.058043003,0.015845299,0.1695714
22.58,-0.057418466,0.015857697,0.169505239
22.59,-0.040669441,0.054133415,0.114169538
22.6,-0.041347116,0.054026604,0.1133762
22.61,-0.023594826,0.075428963,0.23923707
22.62,-0.025379509,0.075304985,0.238665223
22.63,-0.134730756,0.07290554,0.200674534
22.64,-0.087615162,0.027432442,0.193936586
22.65,-0.042925477,-0.032469749,0.208158851
22.66,-0.053373575,-0.037313461,0.20299238
22.67,-0.025652677,-0.001486778,0.224109829
22.68,-0.050837487,-0.030317307,0.158789218
22.69,-0.052371502,-0.030355453,0.15879935
22.7,-0.256554186,-0.018235207,-0.15799427
22.71,-0.213242859,-0.017993927,-0.2563169
22.72,-0.008180976,0.001339912,0.277102947
22.73,0.030236945,-0.013199806,0.642294765
22.74,0.108880714,-0.056633949,0.642282903
22.75,0.106314018,-0.056946754,0.639951527
22.76,0.084905595,-0.083616257,0.278174341
22.77,-0.038471043,0.002437592,-0.263970375
22.78,-0.040469825,0.002434731,-0.263293743
22.79,-0.120276213,0.040551186,-0.16865325
22.8,0.006394461,0.133298874,0.456393063
22.81,-0.080601051,0.08711338,0.352943599
22.82,-0.183131605,0.0721035,0.326173008
22.83,-0.1998083,0.004571915,0.288567424
22.84,-0.057313189,-0.043548584,0.147528887
22.85,-0.058103964,-0.043551445,0.147805572
22.86,-0.1011336,-0.000357628,0.18221724
22.87,-0.076807648,0.014135361,0.214539886
22.88,0.037998885,-0.009569168,0.329386592
22.89,0.1501652,-0.021379471,0.453137517
22.9,0.15369229,-0.02602005,0.150764227
22.91,0.037176535,-0.025609016,0.078457177
22.92,-0.03818807,-0.044363022,0.049115837
22.93,-0.039378971,-0.04395771,0.053188264
22.94,-0.014626935,-0.041203499,0.01148963
22.95,-0.083879426,0.023666382,0.128928542
22.96,-0.092995539,0.074032784,0.302629769
22.97,-0.195346654,0.074101448,0.155139029
22.98,-0.265755087,0.071948051,0.035551906
22.99,-0.256162137,0.014874458,0.03214395
23,-0.15998593,-0.073349953,0.013823509
23.01,-0.097184896,-0.099305153,0.117918134
23.02,-0.022583947,-0.122894287,0.145057738
23.03,0.068535119,-0.089050293,0.080931842
23.04,0.034752384,0.028583527,0.254024684
23.05,-0.034755319,0.076571465,0.336331368
23.06,-0.056206182,0.076552391,0.228309453
23.07,-0.149413064,0.093292236,0.196998656
23.08,-0.258668929,0.076542854,0.314267337
23.09,-0.256901324,0.076526642,0.313857377
23.1,-0.064689845,-0.002197266,-0.002131462
23.11,-0.025667682,-0.01371479,0.112018168
23.12,-0.07521154,-0.046800613,0.099009395
23.13,-0.050222576,-0.024804115,0.129152179
23.14,-0.046746194,-0.05070591,0.08027935
23.15,-0.067245528,-0.071816444,0.031286716
23.16,-0.145197272,-0.090602875,0.22837764
23.17,-0.012453094,-0.133534432,0.380610347
23.18,-0.012448341,-0.133433342,0.381402016
23.19,-0.054970428,-0.118631363,-0.033787608
23.2,-0.204743415,-0.012779236,-0.204267025
23.21,0.0952048,-0.00284481,0.45707804
23.22,0.113001019,-0.024438858,0.291809857
23.23,0.060622588,-0.091389656,0.202207983
23.24,0.000933409,-0.110642433,0.553607047
23.25,0.018348575,-0.058484077,0.566308141
23.26,0.01682955,-0.05898571,0.562040567
23.27,-0.056340232,0.07511425,-0.155713081
23.28,-0.026865646,0.098947525,0.264893234
23.29,-0.030300885,0.098293304,0.259863079
23.3,0.058403015,0.068903923,0.295002163
23.31,-0.104117081,-0.010807991,0.378108859
23.32,-0.106382176,-0.011486053,0.372486949
23.33,-0.298137367,-0.052575111,0.048124313
23.34,-0.205302239,-0.038211823,-0.03145802
23.35,-0.202765048,-0.03802681,-0.030196786
23.36,-0.159267455,-0.052227974,0.025827885
23.37,0.116076186,-0.009095192,0.317718387
23.38,0.095416337,0.077147484,0.263018191
23.39,-0.064099759,0.077419281,-0.036367059
23.4,-0.07428214,0.027635574,-0.075364232
23.41,-0.070633918,-0.067659378,0.014846683
23.42,-0.000287443,-0.122306824,0.119087994
23.43,-0.016920954,-0.133961678,0.083615243
23.44,-0.017581984,-0.133699417,0.086092889
23.45,0.015165195,0.007707596,0.341407478
23.46,-0.010114715,0.036546707,0.225428999
23.47,-0.109046862,0.055941582,0.050547957
23.48,-0.13752684,-0.005948067,-0.018217087
23.49,-0.103084892,-0.041491508,-0.065248847
23.5,-0.102430224,-0.041208267,-0.062898517
23.51,-0.037227109,-0.031620979,0.308079898
23.52,0.010680303,-0.031727791,0.331228972
23.53,0.010506779,-0.031727791,0.331194997
23.54,-0.020155847,0.080853462,0.197512925
23.55,-0.012599811,0.045027733,0.044907928
23.56,-0.086024672,0.028408051,-0.080848575
23.57,-0.078173831,0.002184868,-0.005786061
23.58,-0.004082516,0.006960869,0.058780432
23.59,-0.004965737,0.064341545,0.261809826
23.6,0.005778655,0.080914497,0.348932624
23.61,-0.201098338,0.09035778,0.450859845
23.62,-0.132749379,0.068887711,0.283649802
23.63,-0.028476372,-0.002745628,0.069669485
23.64,-0.027443662,-0.002455711,0.072003722
23.65,-0.08802937,-0.023816109,0.21227932
23.66,0.030163154,-0.040538788,0.264988542
23.67,0.039244801,-0.090801239,0.224647284
23.68,-0.068599358,0.026659012,0.007960796
23.69,-0.067781672,0.026920319,0.010112643
23.7,-0.088179156,0.055953979,0.201718152
23.71,0.05600442,-0.001392365,0.58100754
23.72,-0.09546937,-0.07806778,0.053748727
23.73,-0.100772888,-0.070591927,-0.206842661
23.74,-0.101474822,-0.070487022,-0.205809236
23.75,-0.010238409,0.053712845,0.72053957
23.76,-0.010116979,0.053292274,0.716763973
23.77,-0.100085557,0.041472435,0.301255941
23.78,0.076103002,0.032364845,-0.144569993
23.79,-0.095736593,0.039475441,0.163961232
23.8,-0.057681799,0.024820328,0.224412799
23.81,-0.077544644,0.005257607,0.379384399
23.82,0.015896514,-0.007192612,0.253525436
23.83,-0.029544666,0.04274559,0.253438711
23.84,-0.057166696,0.021045685,0.233142853
23.85,-0.141263232,-0.012302399,0.217876196
23.86,-0.054617435,-0.081424713,0.08893466
23.87,0.045753002,-0.104899406,0.081164718
23.88,0.063713476,-0.102078438,-0.092068076
23.89,-0.002853855,-0.039358139,-0.128244042
23.9,0.014109269,0.013718605,0.040964365
23.91,-0.065458864,0.021084785,0.229881406
23.92,-0.022633061,-0.014697075,0.217179835
23.93,-0.149586603,-0.04322052,0.157088518
23.94,-0.053126603,-0.023843765,0.025297403
23.95,-0.131683931,-0.083400726,-0.000604272
23.96,-0.150027201,-0.099946022,-0.029489875
23.97,-0.16377078,-0.135836601,-0.012181044
23.98,-0.096234068,-0.176589966,0.128978014
23.99,0.03069149,-0.114567757,0.268666267
24,0.070950806,-0.047847748,0.27825892
24.01,0.032312155,0.011704445,0.216253519
24.02,0.002012938,0.083371162,0.124184012
24.03,-0.013465196,0.083270073,-0.017695308
24.04,0.009342179,0.06416893,-0.160825253
24.05,-0.001460582,0.083433151,-0.133205056
24.06,-0.160740882,0.083532333,-0.074701428
24.07,-0.177859709,0.131546021,0.015017748
24.08,-0.146970496,0.119815826,-0.073815584
24.09,-0.223238111,0.084339142,-0.125138164
24.1,-0.238902003,0.084860802,-0.192661166
24.11,-0.208126783,0.037554741,-0.154706359
24.12,-0.205513015,0.038078308,-0.150569797
24.13,-0.080403998,0.086457253,-0.019929528
24.14,0.04423508,0.086811066,0.356083155
24.15,0.000539079,0.07278347,0.226988554
24.16,-0.190526977,0.075784683,0.16214633
24.17,-0.289312303,-0.110256195,0.07633841
24.18,-0.198403537,-0.159776688,-0.332317829
24.19,-0.194232971,-0.158792496,-0.324915528
24.2,-0.180692092,-0.153022766,-0.57839191
24.21,-0.17741482,-0.092439651,-0.228251219
24.22,0.061309114,-0.190174103,0.052670956
24.23,0.061504349,-0.189684868,0.056662798
24.24,-0.098338291,-0.201194763,0.189489007
24.25,0.046118036,-0.148500443,0.316315353
24.26,0.008260593,-0.148304939,-0.280647159
24.27,0.008616433,-0.147740364,-0.276236415
24.28,-0.037580311,-0.176114082,-0.524543881
24.29,0.01217106,-0.133172035,-0.283445954
24.3,-0.08382833,-0.045189857,0.078974366
24.31,-0.08889693,-0.046121597,0.072251916
24.32,-0.132221639,0.015275002,-0.005683184
24.33,-0.371007264,0.091466904,-0.219039679
24.34,-0.372811556,0.091526031,-0.21828866
24.35,-0.301101446,0.041714668,-0.434812427
24.36,-0.240370467,0.025689125,-0.316374064
24.37,-0.022888646,-0.014325142,0.048042774
24.38,-0.021690145,-0.013831139,0.051712632
24.39,0.031440854,-0.070812225,0.074698925
24.4,0.032570884,-0.070074081,0.080465078
24.41,-0.008973658,-0.160284996,-0.083666921
24.42,-0.046060324,-0.303469658,-0.338614345
24.43,-0.174406722,-0.255308151,-0.267206788
24.44,-0.147212058,-0.217086792,-0.10526216
24.45,-0.199278429,-0.238958359,-0.043323517
24.46,-0.234307081,-0.263255119,-0.244965076
24.47,-0.460404992,-0.258522034,-0.621560216
24.48,-0.442228526,-0.224529266,-0.764533162
24.49,-0.427319288,-0.135106087,-0.665554166
24.5,-0.420597255,-0.134007454,-0.658123612
24.51,-0.105162278,-0.053918839,-0.389818788
24.52,-0.049812078,-0.091176033,-0.40172565
24.53,-0.0621555,-0.097331047,-0.373192787
24.54,-0.019940689,-0.084609032,-0.348969698
24.55,-0.19216764,-0.105414391,-0.389263868
24.56,-0.237308949,-0.090185165,-0.28739357
24.57,-0.344396234,-0.175582886,-0.284394026
24.58,-0.34003973,-0.174721718,-0.278730393
24.59,-0.305605918,-0.496728897,-0.665833473
24.6,-0.299454927,-0.495240212,-0.656004071
24.61,-0.330117285,-0.610982895,-0.650687695
24.62,-0.540545583,-0.740905762,-0.836176395
24.63,-0.296657682,-0.714909554,-0.579560399
24.64,-0.179356515,-0.765987396,-0.366623879
24.65,-0.17179364,-0.765050888,-0.36176765
24.66,-0.137494445,-0.748161316,0.14785099
24.67,-0.133669466,-0.749315262,0.138708592
24.68,-0.155390561,-0.710518837,-0.055303574
24.69,-0.223466337,-0.722283363,0.088590384
24.7,-0.463939339,-0.892580986,0.197460055
24.71,-0.539465606,-1.096651077,-0.486600876
24.72,-0.637961865,-1.47009182,-0.911218047
24.73,-0.625518084,-1.471651077,-0.926899672
24.74,-0.955776095,-1.955677986,-0.930154324
24.75,-0.952943146,-1.961179733,-0.976766706
24.76,-1.123449802,-1.999922276,-1.342713356
24.77,-1.114916563,-2.00523901,-1.394086599
24.78,-1.195793152,-1.800058842,-1.122746944
24.79,-1.192403555,-0.934485436,-0.363804936
24.8,-1.325553179,-0.435414314,-0.532931268
24.81,-1.34923923,0.056606293,-0.7783041
24.82,-1.496136427,0.613601685,-1.261375427
24.83,-1.393199205,1.075188637,-1.697314501
24.84,-1.24801755,1.362443924,-1.957845449
24.85,-1.067688107,1.43230629,-1.933013558
24.86,-0.801074624,1.284864426,-1.704517007
24.87,-0.437857181,0.917848587,-1.466439486
24.88,-0.212432116,0.343323708,-1.321883559
24.89,0.136165679,-0.343019486,-1.105598688
24.9,0.648647368,-1.263449669,-0.753972113
24.91,0.630723834,-1.263947487,-0.841736794
24.92,1.300908208,-3.066574574,0.488537371
24.93,1.497351646,-3.831155777,1.330064654
24.94,1.424257398,-4.464494705,2.157643557
24.95,1.382933736,-4.458351135,2.011867762
24.96,1.606539488,-5.20616436,1.982668042
24.97,1.048496485,-5.156344891,1.57495904
24.98,0.655962765,-4.998101234,1.23052001
24.99,1.264669299,-4.96818924,-0.302857757
25,1.337881207,-4.863440037,-1.166673899
25.01,1.182037592,-4.519697666,-1.241943598
25.02,0.98679924,-4.048438072,-0.675400734
25.03,1.019251943,-3.41245985,0.065238357
25.04,0.922793031,-3.3691535,-0.127720118
25.05,1.505913019,-2.290087223,0.511988878
25.06,2.205924511,-0.943717957,0.944348812
25.07,2.693818092,0.418279648,1.15486002
25.08,2.764615059,1.840511322,1.70597744
25.09,2.308236122,5.739386559,1.558655262
25.1,0.945656657,7.800784111,0.630677939
25.11,0.879316092,7.849173546,0.51564002
25.12,-0.037456155,9.846948624,-0.098165035
25.13,1.188703179,11.72700882,0.129911661
25.14,1.810514212,11.59229565,0.558632135
25.15,1.829668403,11.5938158,0.547991753
25.16,2.249791622,11.21221924,0.63925457
25.17,2.33500123,10.30791664,-0.966558456
25.18,2.365553856,10.300457,-0.956527233
25.19,1.269208312,8.962514877,-2.114426136
25.2,1.304764867,8.963170052,-2.126983404
25.21,-0.30818814,6.275813103,-0.861215115
25.22,-0.268698037,6.286913872,-0.901311636
25.23,-1.734226704,2.266775131,1.124881506
25.24,-2.32221365,0.670497894,0.279820204
25.25,-2.258455276,0.66891098,0.269337654
25.26,-2.356324434,-2.317973137,0.688421726
25.27,-1.77712822,-4.583017349,2.22059536
25.28,-0.896010697,-6.887268543,2.672160387
25.29,-0.161346376,-8.367691994,2.167479753
25.3,-0.058162212,-9.381967545,0.558144808
25.31,-1.352558374,-9.799354553,-1.777147293
25.32,-2.487802029,-9.851285934,-3.292318821
25.33,-2.58667779,-9.736963272,-3.673922539
25.34,-2.597459555,-9.466509819,-3.249252796
25.35,-2.795427799,-9.222126007,-1.465138435
25.36,-2.792266846,-9.214255333,-1.485407114
25.37,-0.742120504,-7.356060505,0.937768936
25.38,-0.173374027,-5.210180283,-0.20478487
25.39,-0.470231265,-2.731770515,-0.587535143
25.4,-1.533591986,0.738372803,-0.056235313
25.41,-3.315639019,3.930970192,0.22817564
25.42,-4.441400051,6.385900497,-0.015990734
25.43,-3.641638279,8.346155167,0.690962553
25.44,-1.718412638,9.32113266,2.898868561
25.45,-0.748937607,10.35409832,5.994149208
25.46,-0.042606018,10.70862103,7.884311676
25.47,1.717853308,10.85844612,6.783148766
25.48,2.382346153,10.9877739,2.539555788
25.49,2.080203772,11.39664745,-0.114933252
25.5,1.056646943,11.49603939,-2.264596462
25.51,0.528084993,11.72709656,-2.955641747
25.52,0.571570396,11.72800827,-2.955247641
25.53,-2.872251034,11.64752769,-1.138719797
25.54,-2.857437134,11.64872265,-1.140429497
25.55,-2.908338547,7.344820976,1.015129805
25.56,-0.323220372,2.944356918,3.091672897
25.57,2.331875563,-0.756663322,3.922156334
25.58,2.917852402,-4.022133827,2.214677334
25.59,2.94112587,-6.545722008,-0.615077496
25.6,2.904279947,-6.603232384,-0.465053797
25.61,3.208933353,-9.549717903,-3.325670958
25.62,2.100231171,-12.97338486,-6.855136871
25.63,2.04166007,-13.00908566,-6.745782852
25.64,0.651848018,-12.78497982,-6.531129837
25.65,1.515507579,-11.8158474,-3.585471153
25.66,1.436187267,-11.79881763,-3.630868673
25.67,0.448535293,-11.48547268,-0.928266048
25.68,0.284150481,-9.9971838,3.571097136
25.69,0.139856875,-9.956080437,3.481640577
25.7,0.557280123,-10.85097504,-3.537275553
25.71,-2.10164547,-8.597419739,-6.211287022
25.72,-2.217167377,-8.572324753,-6.243220329
25.73,4.141098022,0.552055359,-3.509569883
25.74,4.030958176,0.578132629,-3.538397551
25.75,14.99251175,3.751023293,4.294247627
25.76,12.14492035,6.584938049,5.818331718
25.77,6.521353722,9.047847748,5.871414185
25.78,6.467299461,9.061062813,5.865546227
25.79,1.207075834,11.49648666,4.911397457
25.8,-1.76258564,13.99140644,3.945996046
25.81,0.424147606,13.3265419,3.467803717
25.82,0.467593193,13.33706188,3.421918392
25.83,0.892641902,12.3464222,0.672452927
25.84,0.673060536,10.67432213,0.720439196
25.85,-0.816898048,6.829864502,6.184985638
25.86,-1.300540805,4.692207336,5.912822723
25.87,-1.898732424,2.460949898,6.368360519
25.88,-2.170836687,-0.296122551,7.379751682
25.89,-1.739876032,-3.40973711,9.415884972
25.9,-1.684747458,-3.445040226,9.480226517
25.91,-1.353946209,-7.070948124,7.485610008
25.92,-4.776162148,-9.321957588,-7.464763641
25.93,-4.684876442,-9.37125206,-7.365972519
25.94,-7.307827473,-9.703932762,-12.5348568
25.95,-5.483028412,-10.93087006,-5.789210796
25.96,-5.44065094,-10.93059063,-5.79999876
25.97,-3.150814533,-11.70791435,2.744049072
25.98,-2.815892935,-11.98440933,5.170560837
25.99,-3.204762459,-11.87044144,4.574930191
26,-3.063304901,-11.73138046,-0.653039455
26.01,-3.062920094,-11.74158287,-0.627062559
26.02,-3.679040432,-9.668204308,-7.37950325
26.03,-3.770815849,-7.050474644,-5.283846855
26.04,-1.387423277,-3.336199284,-2.613808393
26.05,1.843085289,0.338656426,-0.231729984
26.06,5.649924278,2.639261246,2.3040061
26.07,7.218279362,6.745660782,5.548085213
26.08,7.175666809,6.804102898,5.414034843
26.09,-1.907708406,15.18662834,12.04480934
26.1,-6.260850906,18.1490593,17.68980026
26.11,-7.093587875,19.17350006,19.09711647
26.12,-6.201379776,18.07126999,10.76416016
26.13,-5.032273293,15.67171478,-0.14584446
26.14,-4.962014198,15.5921917,0.024464846
26.15,-2.392388582,9.601121902,-4.895212173
26.16,-0.921302795,7.560757637,-2.418541431
26.17,0.677124262,4.001537323,-1.285499573
26.18,2.421685696,1.524705887,-0.319686651
26.19,3.79708004,-1.273582458,-0.235670805
26.2,3.756904125,-1.271550179,-0.233484507
26.21,5.587559223,-4.895473957,3.568254948
26.22,5.136501789,-6.336438179,4.975879669
26.23,3.862151861,-6.292203903,3.180152655
26.24,1.443871737,-7.112640381,-0.286205769
26.25,1.406036139,-7.134688377,-0.217787743
26.26,-2.477912903,-9.463997841,-5.687662125
26.27,-2.380457401,-10.34544945,-6.495322227
26.28,-1.217597485,-10.90221405,-4.699997902
26.29,1.35847342,-11.6979866,-2.567638159
26.3,2.95357728,-12.2239542,0.462788343
26.31,2.676746845,-12.53028202,3.040403843
26.32,2.579652786,-12.49668407,2.988642454
26.33,-1.681564569,-9.735548019,-2.497160435
26.34,-4.910127163,-7.235300064,-8.904770851
26.35,-0.072431564,-1.95186758,-10.30501938
26.36,-0.100341201,-1.969559193,-10.23972511
26.37,10.30354023,4.905917168,2.75693059
26.38,10.15325546,4.932813644,2.761701584
26.39,8.806664467,10.63594627,7.181038857
26.4,3.683155298,12.38084507,8.29279232
26.41,-1.951976061,14.49356937,7.560451508
26.42,-4.915297031,15.41796589,9.053181648
26.43,-2.082163334,13.56434631,7.708921909
26.44,-1.830650926,11.45560646,0.76204586
26.45,-1.278726339,9.181874275,-2.920482397
26.46,-1.236701488,9.166269302,-2.893152952
26.47,0.160418987,6.758008957,2.509795904
26.48,0.206677437,6.759829521,2.478441
26.49,1.487140536,3.742426872,5.79609251
26.5,0.756465197,2.482533455,7.296110153
26.51,-0.324142873,1.459768295,8.698040009
26.52,-0.238349855,1.437812805,8.731537819
26.53,-3.190840244,-4.505650997,2.324666023
26.54,-4.058537483,-8.240334511,-0.63939929
26.55,-3.994532824,-11.6910553,-1.882608891
26.56,-3.891998768,-11.71622276,-1.82592988
26.57,-3.263290405,-15.99288082,-6.318282127
26.58,-3.104021311,-15.87608719,-5.648981094
26.59,-2.322487831,-15.31180286,-2.428329229
26.6,-2.505816936,-14.91451168,-0.355836391
26.61,-3.77773428,-13.60256577,0.100605488
26.62,-3.783804417,-13.59193611,0.060624361
26.63,-5.469052315,-12.48570728,-0.434996843
26.64,-5.116427898,-11.79522228,-1.730064392
26.65,-3.475747347,-8.498390198,-2.453541756
26.66,-3.283127308,-6.229956627,-1.952335596
26.67,-3.513523102,-3.482293606,-1.011547208
26.68,-3.507720232,-3.480791569,-1.018451571
26.69,3.298727512,3.890691757,2.843030691
26.7,4.313092232,5.717170715,5.275101662
26.71,1.085028648,11.5099659,4.605919361
26.72,1.081582665,11.53125668,4.532541275
26.73,-0.858919144,16.40146255,14.92907906
26.74,-1.026813388,16.37838364,18.7828064
26.75,-3.41422224,16.76216125,14.68747902
26.76,-6.438358784,16.66453743,5.036654472
26.77,-7.708646774,15.22520161,-4.281159401
26.78,-5.594660759,11.95743752,-6.8108778
26.79,-3.185154915,8.337873459,-4.072061539
26.8,-1.897668362,5.349311829,0.452481747
26.81,-0.301061124,2.848881721,3.083527803
26.82,0.554990292,0.97128582,5.283056259
26.83,2.096715689,-1.674057007,7.450661659
26.84,3.98567152,-4.36873436,7.626532555
26.85,3.747684717,-5.957122326,5.959279537
26.86,1.225440502,-7.059012413,1.810643435
26.87,1.226242423,-7.077430725,1.878644705
26.88,-0.328361809,-11.2513628,-6.104940414
26.89,0.63141793,-13.06234169,-6.429907799
26.9,1.730008125,-14.94499969,-5.329240322
26.91,1.70113039,-14.95444107,-5.278567791
26.92,3.051223993,-16.66079712,-3.225991726
26.93,3.154307127,-16.9253006,-0.226927757
26.94,3.314726114,-15.76700974,1.801749468
26.95,2.03579092,-13.37244415,1.921409607
26.96,-0.933456123,-9.801301003,0.908536911
26.97,-0.940236151,-9.797995567,0.898720503
26.98,-4.762039185,-5.239778042,-5.643893242
26.99,-4.392633915,-4.064640522,-8.696905136
27,-2.418781281,-1.253671646,-9.191236496
27.01,3.850518465,4.927863121,-5.459324837
27.02,14.50022411,5.87643528,3.658225775
27.03,22.22710228,5.888616562,8.320240021
27.04,14.36785793,10.1715641,9.343054771
27.05,3.545227528,15.46465874,10.55831432
27.06,3.590001345,15.46331978,10.53214073
27.07,0.193585992,18.00167084,6.62395668
27.08,-0.256454825,16.26642609,3.059876919
27.09,-1.809767008,14.76695728,2.122702122
27.1,-1.633174419,13.45267677,0.879166126
27.11,-2.204568624,12.00651646,0.258665085
27.12,-4.113430977,9.802237511,0.972627878
27.13,-4.055332661,9.79848671,0.957041264
27.14,-1.244487405,1.976555824,7.867321014
27.15,-1.114195585,-0.685089111,12.60852814
27.16,-1.034376144,-4.229000568,13.19052887
27.17,-2.064770699,-6.980949402,8.054374695
27.18,-4.682720184,-9.14084816,1.541973829
27.19,-6.336060524,-11.22290802,-4.108872414
27.2,-5.889011383,-12.83606911,-9.197195053
27.21,-5.29512167,-13.13572121,-10.80694199
27.22,-4.873908043,-12.45839405,-7.633897781
27.23,-5.130541801,-12.6854744,-2.774712563
27.24,-5.869695663,-12.95637321,1.385366082
27.25,-5.881097794,-12.9398613,1.303030491
27.26,-4.202765465,-13.83651447,7.291985512
27.27,-3.40488553,-13.58315659,4.239826202
27.28,-3.416529417,-13.57665825,4.213258743
27.29,-3.710057974,-13.03152561,-1.182883739
27.3,-4.821040154,-9.394803047,-6.850303173
27.31,-4.824776649,-9.398002625,-6.833989143
27.32,-5.156514645,-7.200361729,-5.205108166
27.33,-1.365452528,1.835754395,-2.159221172
27.34,-1.393510342,1.846803665,-2.201692343
27.35,7.858703136,7.205019951,7.616471291
27.36,4.219254494,12.33005333,8.226881027
27.37,1.976554394,15.95412445,12.78662872
27.38,0.114429534,17.91479492,17.89900589
27.39,0.127071261,17.94434738,17.79196358
27.4,-7.448692322,20.42624474,11.41855526
27.41,-7.378750801,20.39628029,11.50244808
27.42,-11.64047337,20.55363083,-0.327562094
27.43,-10.7105608,16.97445107,-8.58568573
27.44,-6.302269459,11.73161221,-6.677275658
27.45,-1.136622787,3.449233055,0.761964321
27.46,0.471259117,0.719753265,2.941220045
27.47,3.07713294,-2.759803295,4.901111603
27.48,3.007492542,-2.74834013,4.880587578
27.49,3.802785873,-4.292606831,6.298955917
27.5,2.551243305,-7.167246819,2.636935711
27.51,2.537035465,-7.178900719,2.691348076
27.52,1.693574548,-8.399134636,-0.943143606
27.53,2.197318077,-10.27973652,-3.66908741
27.54,3.032560349,-11.36689472,-2.13258028
27.55,2.52895546,-12.70176315,-0.992371261
27.56,0.729337096,-13.81685257,-1.490807533
27.57,0.711823106,-13.82699203,-1.42692101
27.58,0.18770349,-15.22463703,-1.199458241
27.59,0.974860072,-15.31379604,-1.133071899
27.6,-0.11036253,-14.50300407,-2.16176939
27.61,-2.522198677,-12.3639164,-3.506199837
27.62,-3.750285625,-9.586128235,-4.248137474
27.63,-3.500825405,-7.527310371,-5.103245735
27.64,-3.757685661,-5.168129921,-5.652019978
27.65,-2.056437016,-0.477574348,-5.810570717
27.66,6.515291691,5.803375244,-1.577957749
27.67,15.75287819,7.506320953,4.405794144
27.68,15.54434967,7.555940628,4.346028328
27.69,10.71926975,14.4063921,4.242232323
27.7,-0.035224438,19.4908371,10.37229919
27.71,-2.801252604,20.04049683,12.45514584
27.72,-0.303195477,17.25748634,7.894932747
27.73,0.718905687,14.17474079,3.028006077
27.74,0.186501622,12.44965363,-0.779799938
27.75,-0.211844921,11.65266418,-0.440263152
27.76,-1.125663519,10.70341587,2.608997107
27.77,-1.448717237,9.160948753,4.886092186
27.78,-0.669032633,5.619587898,5.971201897
27.79,-0.607367098,5.607478142,5.983806133
27.8,-2.699642658,0.659038544,7.200644493
27.81,-2.300653219,-2.22598505,9.867944717
27.82,-3.166704655,-6.657304764,11.20336151
27.83,-5.202414513,-10.7114954,7.573919296
27.84,-6.745968342,-13.52668095,0.461557269
27.85,-7.123235226,-15.12751389,-6.914932728
27.86,-6.196074486,-15.68402481,-10.66895008
27.87,-6.053905487,-15.70132637,-10.61706829
27.88,-5.741837978,-14.67307377,-9.673018456
27.89,-5.950016975,-13.38591576,-5.508240223
27.9,-3.682024956,-12.32812405,2.230494499
27.91,-3.700636864,-12.30804825,2.125982285
27.92,-5.62835741,-11.91961479,2.309649467
27.93,-5.447176456,-11.34012318,1.308551192
27.94,-4.423513889,-10.63272285,0.053556442
27.95,-4.034733772,-8.839299202,-1.622938156
27.96,-4.046178341,-8.83443737,-1.642126322
27.97,-1.934234858,-2.151118755,-2.347711325
27.98,2.754745722,2.096247673,-1.175368667
27.99,5.152657986,4.200497627,2.296561003
28,3.103462696,8.352237701,2.101989985
28.01,3.67091918,13.95934391,3.80693841
28.02,-0.103994906,15.48801899,12.91219234
28.03,-2.948183298,16.08752632,22.93333054
28.04,-2.923499584,16.1283493,22.7882061
28.05,-9.458494186,16.81064987,13.15171242
