Time (s),Linear Acceleration x (m/s^2),Linear Acceleration y (m/s^2),Linear Acceleration z (m/s^2)
0,0.117612824,0.0573349,0.503017902
0.01,-0.008996345,0.080932617,0.44202894
0.02,-0.010566317,0.080659866,0.437443316
0.03,-0.012650169,0.032577515,0.214116246
0.04,-0.077522904,-0.027387619,0.035266221
0.05,-0.077893734,-0.048993111,0.003645599
0.06,-0.147514582,0.080294609,-0.098901808
0.07,-0.098969936,0.097100258,0.081773937
0.08,0.006005742,0.032426834,0.455253869
0.09,0.091085352,-0.018006325,0.647063673
0.1,-0.012995057,-0.063703537,0.540752351
0.11,-0.015292481,-0.06385231,0.538565457
0.12,-0.314514339,-0.039930344,0.17891559
0.13,-0.20923169,-0.109343529,0.013742507
0.14,-0.114572398,-0.149961472,-0.418120503
0.15,-0.016898021,-0.140227318,-0.321892738
0.16,-0.019107148,-0.140319824,-0.323212683
0.17,-0.014593653,-0.018587112,0.199364573
0.18,0.009150617,0.110216141,0.55695349
0.19,0.007832013,0.109867096,0.550584972
0.2,-0.037520319,0.138376236,0.469698995
0.21,-0.084343702,0.150257111,0.371870756
0.22,-0.056918949,0.030570984,0.187918216
0.23,-0.058382057,-0.021950722,0.298373461
0.24,-0.009103887,-0.038545609,0.193752736
0.25,0.111151956,-0.055010796,-0.066507518
0.26,0.122641131,-0.066568375,-0.14257282
0.27,0.102560282,0.032039642,-0.062384963
0.28,0.080090202,0.085102081,0.076414764
0.29,0.078919806,0.085430145,0.082508147
0.3,0.117195368,0.097745895,0.120070726
0.31,0.113892272,0.131594658,0.37280643
0.32,0.070800692,0.0983181,0.509062171
0.33,-0.065619633,0.033889771,0.513118208
0.34,-0.067173585,0.034152985,0.517760754
0.35,-0.101573318,0.015395164,0.287372917
0.36,-0.173603445,0.004087448,-0.364719987
0.37,-0.343126833,0.035937309,-0.312040865
0.38,-0.308415592,0.036572456,-0.256477058
0.39,-0.307559252,0.037083626,-0.248648882
0.4,-0.01094868,0.037454605,0.17860806
0.41,-0.061781041,0.037790298,0.41363743
0.42,-0.084358312,0.030953407,0.58875066
0.43,-0.012470849,0.009778976,0.421882093
0.44,-0.069459952,-0.004113197,0.119992673
0.45,-0.068907939,-0.060923576,0.014331341
0.46,0.036669947,-0.144061089,-0.095632911
0.47,0.11945688,-0.176907539,-0.086232245
0.48,0.041443698,-0.205142975,-0.160469472
0.49,0.043181516,-0.204660416,-0.154058039
0.5,-0.016478293,-0.003160477,-0.113111854
0.51,-0.015022397,-0.002983093,-0.11069119
0.52,-0.000232346,0.032949448,0.650853515
0.53,-0.10518118,-0.007778168,0.686332822
0.54,-0.157293305,-0.031762123,0.491968036
0.55,-0.146032423,-0.038779259,0.041386843
0.56,-0.040596761,-0.021587372,-0.312101781
0.57,-0.027151555,-0.078393936,-0.569085836
0.58,0.068646871,-0.0538311,-0.440960169
0.59,0.110379726,-0.000807762,-0.02176255
0.6,0.04102372,0.054283142,0.493348181
0.61,0.038709741,0.054076195,0.491076291
0.62,-0.087788321,0.219079971,0.596272349
0.63,-0.152927011,0.183200836,0.345488131
0.64,-0.240472734,0.099612236,0.156553745
0.65,-0.237757325,0.099966049,0.161110044
0.66,-0.276740432,-0.079172134,0.07766366
0.67,-0.148330286,-0.200708389,-0.013550341
0.68,-0.047393009,-0.238341332,0.023634493
0.69,-0.031033181,-0.264075279,0.074363112
0.7,-0.02949775,-0.263522148,0.081164718
0.71,0.045581453,-0.301351547,0.087154269
0.72,0.007753059,-0.205262184,0.143859565
0.73,0.00862743,-0.204991341,0.147001982
0.74,-0.184640974,0.034583092,0.065116525
0.75,-0.167100281,0.089660645,0.112949133
0.76,-0.13585268,0.087195396,0.207854569
0.77,-0.135876745,0.087099075,0.206531227
0.78,-0.183578134,0.0654459,0.233976364
0.79,-0.226475447,0.058204651,0.202189744
0.8,-0.125790149,0.046235085,-0.032613337
0.81,-0.126058549,0.046215057,-0.032782972
0.82,-0.095446803,-0.025620461,0.09399879
0.83,-0.169608355,-0.011321068,0.34945789
0.84,-0.165864229,0.046021461,0.517765284
0.85,-0.163587406,0.045912743,0.516137838
0.86,-0.039643265,-0.021144867,0.446173579
0.87,0.02446612,-0.054611206,0.166502535
0.88,-0.007579602,-0.030546188,0.088705063
0.89,-0.015984587,-0.030385017,0.045062125
0.9,-0.027377039,-0.082939148,0.058597088
0.91,-0.085018054,-0.027894974,0.051170349
0.92,-0.249726877,0.04870224,0.007636666
0.93,-0.116974086,0.048643112,0.08330369
0.94,0.045407519,-0.121500015,0.014455736
0.95,-0.023977861,-0.136142731,0.267614365
0.96,-0.026162624,-0.136670113,0.26124996
0.97,-0.057936676,0.027738571,0.72759819
0.98,0.142971546,0.010407448,0.301094145
0.99,0.145203978,-0.028102875,-0.134909868
1,0.145302236,-0.027966499,-0.133226454
1.01,0.06645254,-0.090081215,0.091327786
1.02,0.106570907,-0.104629517,0.460476935
1.03,0.083677709,-0.009280205,0.620731473
1.04,0.020182848,0.045277596,0.490020871
1.05,-0.145387366,0.049678802,0.427705735
1.06,-0.122155331,-0.022433281,0.196434498
1.07,-0.122192994,-0.022488594,0.195763886
1.08,-0.083149232,-0.134735107,-0.070954204
1.09,-0.072620779,-0.203782082,0.048812926
1.1,-0.072316714,-0.203536034,0.052151203
1.11,-0.000739239,-0.212983131,0.298079133
1.12,-0.024584807,-0.038053513,0.168454647
1.13,-0.115188055,0.005181313,0.167526662
1.14,-0.152554572,-0.018752098,0.131830812
1.15,-0.038852192,-0.059418678,0.009948075
1.16,-0.021616019,-0.078521729,-0.109157443
1.17,-0.06441398,0.00051403,-0.044117033
1.18,-0.176575244,0.045918465,0.189261317
1.19,-0.176010072,0.045660973,0.185820401
1.2,-0.027780242,0.045379639,0.273064286
1.21,-0.11691308,0.045148849,0.152977765
1.22,-0.116418794,0.042616844,0.095727026
1.23,-0.11637722,0.042404175,0.093066573
1.24,0.067585379,-0.051193237,0.145265281
1.25,0.066668883,-0.087291718,0.164340615
1.26,0.013384566,-0.111305237,0.201639712
1.27,-0.025571696,-0.053883553,0.282561839
1.28,-0.025684401,-0.053919792,0.282232285
1.29,0.015199654,-0.049152374,0.246178567
1.3,-0.010934107,-0.04430294,0.136624634
1.31,-0.108721107,-0.032296181,0.173073947
1.32,-0.000803716,-0.137664795,0.115378857
1.33,-0.011291541,-0.180762291,0.000434756
1.34,-0.158658028,-0.11848259,-0.023130119
1.35,-0.158908278,-0.118517876,-0.023456395
1.36,-0.098832279,0.017845154,-0.024824977
1.37,-0.067783646,-0.025434494,0.023293138
1.38,-0.038158752,-0.05211544,0.433339745
1.39,-0.042014115,-0.052676201,0.425972492
1.4,0.103219628,-0.08214283,0.648562431
1.41,0.10261377,-0.015591621,0.235001534
1.42,0.100773327,-0.015752792,0.232967705
1.43,-0.059070699,-0.008545876,-0.128123879
1.44,-0.062578335,-0.008653641,-0.129286945
1.45,-0.11222595,0.041287422,0.539086282
1.46,-0.034555472,0.040805817,0.604359806
1.47,-0.078601837,0.04032135,0.33893925
1.48,-0.087207459,0.040045738,0.093560517
1.49,-0.202708602,0.039956093,0.01087296
1.5,-0.161355451,0.063873291,0.017555296
1.51,-0.02170264,0.037595749,0.09263593
1.52,-0.021315467,0.037725449,0.094194949
1.53,-0.094695471,0.030594826,0.372781098
1.54,0.065620035,-0.033924103,0.226273686
1.55,-0.047009736,-0.014585495,0.317529112
1.56,-0.010791302,-0.050384521,0.300044805
1.57,-0.011295743,-0.050272942,0.301509112
1.58,-0.101019703,-0.062044144,-0.042544365
1.59,-0.109183133,-0.001918793,-0.077070713
1.6,-0.151115432,0.041330338,-0.060243011
1.61,-0.154277414,0.041451454,0.049260616
1.62,-0.14547427,0.065478325,0.155710161
1.63,-0.1460132,0.065540314,0.156817794
1.64,-0.16585809,0.017769814,0.127471983
1.65,-0.165765673,0.017868996,0.128852844
1.66,-0.263488948,-0.051523209,0.198879421
1.67,-0.060116984,-0.092189789,0.024458468
1.68,0.022945698,-0.00838089,0.180325389
1.69,-0.006882232,0.039418221,0.392216951
1.7,0.004332915,0.041649818,0.452341706
1.71,0.020217001,0.041525841,0.306899697
1.72,-0.05457959,0.041472435,0.124169886
1.73,-0.088557929,0.041472435,0.028360009
1.74,-0.065240175,0.041540146,0.053445578
1.75,-0.054369748,0.034424782,0.097557366
1.76,-0.046233639,0.041711807,0.163818657
1.77,-0.183711797,0.09696579,0.061056018
1.78,-0.193175644,0.09721756,-0.054944456
1.79,-0.154654339,0.044926643,0.02213949
1.8,-0.023666345,-0.016946793,0.381530196
1.81,0.091600716,-0.136427879,0.509581566
1.82,0.08835195,-0.136254311,0.512095213
1.83,0.084016182,-0.140915871,0.39911744
1.84,0.083490476,-0.143203735,0.153771222
1.85,-0.117935769,-0.114339829,-0.251288056
1.86,-0.177614301,-0.042263031,-0.262292445
1.87,-0.149410158,0.060833931,0.15152663
1.88,-0.075384989,0.106072426,0.598324001
1.89,0.003175709,0.04828167,0.663291335
1.9,-0.020825714,0.043119431,0.45721373
1.91,-0.046124697,0.016530037,0.192995966
1.92,-0.134909913,0.018886566,-0.015936196
1.93,-0.134215951,0.019032478,-0.01384306
1.94,-0.130387396,0.043284416,0.157949686
1.95,-0.01388035,-0.042581558,0.317963153
1.96,-0.012448054,-0.042229652,0.322666615
1.97,0.051263817,-0.046636581,0.351761997
1.98,-0.052092303,-0.038895607,0.057213187
1.99,-0.052253705,-0.050271988,0.057902157
2,-0.03641177,-0.013775826,0.060481012
2.01,0.067348979,0.022647858,0.028819203
2.02,0.088477477,0.001597404,0.087821245
2.03,-0.015962124,0.009149551,0.090399325
2.04,-0.136543736,0.047786713,0.123302698
2.05,-0.313900918,0.048063278,0.148166835
2.06,-0.334749758,0.048260689,0.232195675
2.07,-0.180551812,-0.035365105,0.253330648
2.08,-0.179890633,-0.035223961,0.255040526
2.09,-0.092924379,-0.078160286,0.173267543
2.1,-0.134336144,-0.054012299,0.154121876
2.11,-0.122229591,-0.07062912,0.09356606
2.12,-0.079207167,-0.08725071,0.128667116
2.13,-0.02920403,-0.060814857,0.204001784
2.14,-0.027056567,-0.060720444,0.204968751
2.15,-0.041616354,-0.024737358,0.313293546
2.16,0.065796413,0.001684189,0.216202259
2.17,0.031526335,-0.000597954,0.157635391
2.18,0.076312765,-0.041186333,0.166059613
2.19,0.103640847,-0.07941246,0.159705758
2.2,-0.118280932,0.011651993,-0.069113433
2.21,-0.207487255,0.102863312,-0.272371352
2.22,-0.141274333,0.103193283,-0.175317586
2.23,-0.142281622,0.103319168,-0.173666477
2.24,-0.030035079,0.067345619,0.414752096
2.25,0.028894525,-0.064491272,0.365416706
2.26,-0.083488584,-0.045267105,0.100584388
2.27,-0.133981481,0.041119576,0.083915651
2.28,-0.132607997,0.041352272,0.086610317
2.29,-0.135639846,0.051324844,-0.07400322
2.3,0.010926101,-0.022559166,0.016292453
2.31,0.10459771,-0.041600227,0.364747852
2.32,0.051172189,-0.022616386,0.628751576
2.33,-0.061740711,-0.008563042,0.550970435
2.34,-0.065248355,0.012804985,0.32633239
2.35,-0.055797514,-0.027952194,0.026392996
2.36,-0.055203713,-0.027781487,0.028418422
2.37,-0.164139897,-0.027517319,0.024304986
2.38,-0.102723151,0.032571793,0.314361751
2.39,-0.025092941,0.032665253,0.360808045
2.4,-0.036406875,0.04487896,0.102487445
2.41,-0.0904392,0.030979156,-0.140968561
2.42,-0.074931405,-0.006752014,-0.043290257
2.43,0.012212709,-0.044569969,0.110873044
2.44,0.060210504,-0.00588131,0.184651732
2.45,0.047995534,-0.015122414,0.166861117
2.46,0.047985155,-0.01479435,0.170715213
2.47,-0.045454107,-0.026485443,0.229071796
2.48,-0.092802718,-0.007097244,0.23640877
2.49,-0.135456517,-0.028428078,0.171699584
2.5,-0.180570424,-0.001873016,0.159701705
2.51,-0.108987466,-0.080723763,0.025129914
2.52,-0.14781031,-0.075779915,0.019787014
2.53,-0.147883818,-0.075701714,0.020699739
2.54,-0.225868329,-0.044573784,0.195504904
2.55,-0.224648207,-0.04457283,0.195310712
2.56,-0.089869589,0.02490139,0.207609236
2.57,0.064520255,0.034479141,0.21475625
2.58,0.064680927,0.03445816,0.214556038
2.59,0.007595859,0.058393478,0.39384836
2.6,0.008058146,0.058337212,0.393324971
2.61,-0.006245032,0.055999756,0.034880638
2.62,-0.006134048,0.056201935,0.037166476
2.63,-0.18806991,0.010939598,-0.025060236
2.64,-0.287543207,0.097352028,-0.108888447
2.65,-0.25485903,0.107186317,0.028038323
2.66,-0.09390571,-0.019434929,0.303826392
2.67,0.110234104,-0.105531693,0.728821576
2.68,0.076376408,-0.275729179,0.434896141
2.69,-0.091921844,-0.196677208,0.097704887
2.7,-0.267606616,-0.028954506,0.161234379
2.71,-0.264521897,-0.028867722,0.161937237
2.72,-0.097241208,-0.079051971,-0.157901943
2.73,-0.02510573,-0.054818153,-0.166904807
2.74,-0.027285926,-0.054971695,-0.168359101
2.75,0.024813175,-0.024354935,0.501488388
2.76,0.021732964,-0.025038719,0.494176686
2.77,-0.031041771,0.055755615,0.396337658
2.78,-0.164014801,0.055281639,0.23074472
2.79,-0.17563057,0.055019379,-0.04030472
2.8,-0.189286158,0.040768623,-0.141984522
2.81,-0.066875443,-0.040445328,0.003677428
2.82,-0.007515568,-0.107364655,0.129648387
2.83,0.025285978,-0.061765671,0.099814057
2.84,0.012608353,0.003030777,0.125533044
2.85,0.004802648,0.055887222,0.352559686
2.86,0.075776547,0.046405792,0.334542871
2.87,0.074098453,0.0465765,0.336619973
2.88,0.086771473,0.054076195,0.134401739
2.89,-0.039005078,0.04964447,0.032953262
2.9,-0.069324076,0.025989532,0.086463153
2.91,-0.07075353,0.026215553,0.089226305
2.92,-0.155798912,0.014464378,0.170665383
2.93,-0.113936834,-0.08343792,0.142427206
2.94,-0.17981267,-0.025779724,0.156536818
2.95,-0.220709622,0.041345596,0.167038381
2.96,-0.220580965,0.041292191,0.166678488
2.97,-0.074369743,-0.001885414,0.170450747
2.98,-0.073934197,0.017237663,0.134075165
2.99,-0.108925805,-0.018654823,0.131939471
3,-0.052516442,-0.020990372,0.201842785
3.01,-0.05119966,-0.020974159,0.201930583
3.02,-0.007131681,0.058113098,0.164671421
3.03,0.060520228,0.055866241,0.118249297
3.04,0.046223991,0.058470726,0.074969471
3.05,-0.010958835,0.058674812,0.091607928
3.06,-0.01012319,0.058876991,0.093660891
3.07,-0.222281486,0.135631561,-0.050777137
3.08,-0.217182636,0.24604702,-0.083995819
3.09,-0.019071709,0.059547424,0.184429765
3.1,0.145689905,0.028560638,0.609789014
3.11,0.077155799,-0.072030067,0.700488567
3.12,0.009208411,-0.105618477,0.393354416
3.13,-0.070827685,-0.038417816,0.375808477
3.14,0.013164528,-0.040680885,0.120905638
3.15,-0.109077044,-0.085748672,-0.320117414
3.16,-0.10699892,-0.085163116,-0.314141572
3.17,0.043655604,-0.058468819,-0.015741825
3.18,0.105615437,0.041811943,0.539248049
3.19,0.101295605,0.041013718,0.531176269
3.2,-0.072034866,0.159953117,0.616475701
3.21,-0.216674984,0.264774323,0.313863158
3.22,-0.282660842,0.154441834,0.074749291
3.23,-0.174858853,0.058911324,-0.140628755
3.24,-0.069482774,-0.033835411,-0.016796947
3.25,-0.021982845,-0.09787941,0.2314291
3.26,-0.026887864,-0.145220757,0.325600147
3.27,-0.031381227,-0.151834488,0.372085691
3.28,0.069651119,-0.196827889,0.156919718
3.29,0.054656379,-0.220232964,-0.022029996
3.3,0.08672186,-0.186280251,-0.055912673
3.31,0.086465403,-0.186092377,-0.053983092
3.32,-0.053425156,-0.028157234,0.120203257
3.33,-0.179426968,0.062506676,0.227040291
3.34,-0.180605203,0.062149048,0.223263562
3.35,-0.139162242,0.116945267,0.155902028
3.36,-0.109132648,0.107172966,0.12770766
3.37,-0.25058645,0.078411102,0.11070019
3.38,-0.242231578,0.061830521,0.133857071
3.39,-0.139674366,0.01420784,0.110299408
3.4,-0.137871325,0.01453495,0.11335361
3.41,-0.102261953,-0.052167892,0.107112348
3.42,-0.030706979,-0.066272736,0.301319361
3.43,0.028546002,-0.070877075,0.317437887
3.44,0.06847243,-0.068311691,0.228116572
3.45,0.070024706,-0.068120003,0.229888856
3.46,-0.001909636,-0.027234077,0.090485513
3.47,-0.181439102,0.080679893,-0.061349928
3.48,-0.048117913,0.083224297,0.023859978
3.49,-0.019270077,0.05223465,0.049092293
3.5,-0.096131139,0.064329147,-0.124366462
3.51,-0.095488459,0.064594269,-0.121625006
3.52,-0.119037442,0.062428474,0.292366386
3.53,0.033388693,-0.093053818,0.576431453
3.54,0.084471375,-0.241484642,0.734729171
3.55,0.032856341,-0.32773304,0.432587266
3.56,-0.170964703,-0.287005425,0.145696461
3.57,-0.169317305,-0.286858559,0.146955967
3.58,-0.116482064,-0.236345291,-0.621573448
3.59,-0.117804103,-0.236142159,-0.619403005
3.6,-0.085015863,-0.095110893,-0.429923832
3.61,-0.020013303,0.064578056,0.142463505
3.62,0.025914632,0.283989906,0.605762363
3.63,0.022694647,0.283377647,0.599561095
3.64,-0.1373519,0.290615082,0.324757814
3.65,-0.266860902,0.082747459,-0.058867216
3.66,-0.125342399,0.016541481,-0.005081058
3.67,-0.003169641,-0.083126068,0.159439147
3.68,0.104279876,-0.178057671,0.270680189
3.69,0.105695084,-0.177350044,0.277605593
3.7,0.142577529,-0.267807007,0.316222131
3.71,0.040365331,-0.233905792,0.231403112
3.72,-0.031233348,-0.152256966,0.099680007
3.73,-0.031135954,-0.152056694,0.101602316
3.74,-0.167434037,-0.046614647,0.083397865
3.75,-0.105492912,0.068368912,-0.10279125
3.76,-0.106633678,0.068425179,-0.102241576
3.77,-0.16299291,0.070830345,-0.075565636
3.78,-0.068532713,0.08746624,0.141135335
3.79,-0.165495247,0.072994232,0.228790402
3.8,-0.165301472,0.072977066,0.228749156
3.81,-0.042426936,0.018184662,-0.044112921
3.82,-0.087366,-0.003022194,0.040618122
3.83,-0.03667254,-0.062673569,0.260471463
3.84,0.052026905,-0.103375435,0.389692724
3.85,0.111125283,-0.137043953,0.378806472
3.86,0.076391973,-0.163633347,0.321359098
3.87,-0.034501337,-0.104042053,0.314078629
3.88,-0.035293877,-0.104379654,0.310744822
3.89,0.054421254,-0.076036453,0.196844339
3.9,0.052390695,-0.076408386,0.193476439
3.91,-0.07412535,0.0622015,0.104870737
3.92,-0.142774805,0.066809654,-0.00461036
3.93,-0.25836125,0.126675606,-0.066755831
3.94,-0.126348496,0.112464905,-0.103471458
3.95,-0.076890208,0.016940117,0.004379153
3.96,0.100464553,-0.028409958,0.417732477
3.97,0.1329685,-0.112348557,0.888208091
3.98,0.101936385,-0.206043243,0.631450176
3.99,0.101392344,-0.206209183,0.629777908
4,-0.041254316,-0.194271088,0.277346373
4.01,-0.131260172,-0.186984062,-0.032953918
4.02,0.096694537,-0.232218742,-0.324696422
4.03,-0.007312298,-0.043176651,0.629807591
4.04,0.094123736,0.025449753,0.751290023
4.05,0.027217824,0.053254128,0.471676469
4.06,-0.217915535,0.054903984,0.186369419
4.07,-0.218964383,0.054281235,0.180122018
4.08,-0.156903654,0.003568649,-0.166666508
4.09,-0.073028781,-0.02047348,-0.091054976
4.1,-0.156865507,-0.015704155,0.129143298
4.11,-0.079656452,-0.022829056,0.371325731
4.12,0.085402086,-0.037155151,0.304707229
4.13,-0.00869491,0.013295174,0.222811937
4.14,-0.108868815,-0.019995689,0.095695496
4.15,-0.081948802,-0.0148983,-0.013554335
4.16,-0.077551886,0.023732185,-0.010285735
4.17,-0.094663039,0.064684868,0.052119255
4.18,-0.195612088,0.064884186,0.054154992
4.19,-0.195658043,0.065075874,0.05606097
4.2,-0.26677683,0.060519218,0.060913682
4.21,-0.18698287,-0.00377655,0.040277779
4.22,-0.190733224,-0.07037735,-0.029508829
4.23,-0.151336744,-0.103299141,-0.100159943
4.24,-0.130700052,-0.093074799,-0.03174901
4.25,-0.129016697,-0.092515945,-0.026191831
4.26,-0.022930361,-0.063204765,0.04153347
4.27,-0.022820178,-0.062793732,0.045699
4.28,0.060411066,0.019007683,0.149960041
4.29,-0.008022126,0.045670509,0.246598542
4.3,-0.009349652,0.045933723,0.249196589
4.31,-0.029832978,0.041446686,0.211474717
4.32,-0.074326202,-0.02524662,0.03532964
4.33,-0.054412927,-0.099122047,-0.078718543
4.34,-0.051848777,-0.139461517,-0.125465512
4.35,-0.22187312,-0.139160156,-0.237367749
4.36,-0.342634678,0.011966705,-0.244312048
4.37,-0.282632709,0.000216484,-0.36909008
4.38,-0.283366859,0.000439644,-0.367038608
4.39,-0.03925094,-0.028244019,0.373357296
4.4,-0.021404682,-0.026118279,0.713289559
4.41,-0.022158861,-0.0815382,0.573521793
4.42,-0.105023973,-0.124806404,-0.016871214
4.43,-0.178952187,-0.134008408,-0.705431223
4.44,-0.119568639,-0.147904396,-0.7416327
4.45,-0.121743202,-0.14777565,-0.740343332
4.46,-0.05569829,0.038489342,0.689283848
4.47,-0.009694076,0.030468941,0.576074421
4.48,-0.012839462,0.03015995,0.573202074
4.49,-0.169466421,-0.022659302,0.174290955
4.5,-0.465613574,-0.032198906,-0.390354157
4.51,-0.463161558,-0.032021523,-0.388749123
4.52,-0.282913566,-0.007753372,-0.397655129
4.53,-0.209362969,0.066939354,-0.240079761
4.54,-0.137424678,0.074754715,-0.042725444
4.55,-0.13226445,0.07550621,-0.035759568
4.56,-0.223785669,0.042994499,-0.177388907
4.57,-0.216182053,0.044291496,-0.165758491
4.58,-0.164901897,-0.200874329,-0.241618633
4.59,-0.15611288,-0.199432373,-0.229082227
4.6,-0.172889233,-0.236077309,-0.380113721
4.61,-0.341823399,-0.174584389,-0.421591401
4.62,-0.376945853,-0.137184143,-0.22998476
4.63,-0.290188611,-0.085515976,-0.159076929
4.64,-0.281332254,-0.084169388,-0.148500085
4.65,-0.407398105,-0.133237839,-0.206162334
4.66,-0.429222643,-0.170476914,-0.293836474
4.67,-0.369546235,-0.246071816,-0.35114944
4.68,-0.353240371,-0.194779396,-0.322320104
4.69,-0.286641955,-0.210577965,-0.1671561
4.7,-0.345309138,-0.221764565,-0.085206389
4.71,-0.305335999,-0.154006004,-0.051983595
4.72,-0.258588851,-0.174955368,-0.100924969
4.73,-0.214693949,-0.064238548,-0.030558586
4.74,-0.137989923,0.067902565,0.170767903
4.75,-0.132055059,0.068125725,0.171529055
4.76,-0.174752757,0.094612122,0.569315076
4.77,-0.170457095,0.094902039,0.570835829
4.78,0.005265966,0.01624012,0.587539017
4.79,0.0666482,-0.004723549,0.452472806
4.8,-0.300974429,0.048845291,0.173776031
4.81,-0.294795811,0.049856186,0.180482864
4.82,0.069972098,-0.305990219,0.710960865
4.83,-0.147960618,-0.489685059,0.430398941
4.84,-0.43949002,-0.668379784,0.117171884
4.85,-0.536329866,-0.854095459,-0.28638339
4.86,-0.524643898,-0.852942467,-0.280009627
4.87,-0.466130823,-1.237054825,-1.44494009
4.88,-0.455115706,-1.235479355,-1.435443878
4.89,-0.107389033,-1.03397274,-0.131835103
4.9,-0.012014478,-0.94382,0.291833699
4.91,0.074483782,-0.787513733,0.120590806
4.92,0.153304607,-0.619576454,-0.239553809
4.93,0.342694223,-0.384632111,-0.621169925
4.94,0.444733322,-0.185577393,-0.764972329
4.95,0.711420298,0.056704521,-0.562397242
4.96,0.695344448,0.05450058,-0.576719761
4.97,0.878031492,0.088539124,-0.178364158
4.98,0.887854099,0.088949203,0.213359475
4.99,1.003874898,-0.063603401,-0.310435176
5,0.976288438,-0.112716675,-0.653892756
5.01,0.884489536,-0.109161377,-1.084282756
5.02,0.902235627,0.040345192,-1.087940693
5.03,0.878403187,0.036259651,-1.125236273
5.04,0.882323027,0.110842705,-1.026225805
5.05,0.752454221,0.537250519,-0.445697546
5.06,0.723238826,0.532788277,-0.494907677
5.07,0.243021712,0.904719353,-0.444018424
5.08,0.042384706,0.934858322,-0.722219288
5.09,-0.171765924,0.771559715,-0.874735951
5.1,-0.311091781,0.488922119,-0.969506979
5.11,-0.304151535,0.115650177,-0.92480737
5.12,-0.194433481,-0.202327728,-0.732364953
5.13,0.005049542,-0.551296234,-0.630331218
5.14,0.243883729,-0.782786369,-0.441584706
5.15,0.234805659,-0.784320831,-0.472952634
5.16,0.399682909,-0.984506607,-0.289090306
5.17,0.584388137,-0.923635483,-0.083457708
5.18,0.437623709,-0.762083054,-0.140664071
5.19,0.407390803,-0.574098587,-0.085099578
5.2,0.405998766,-0.575156212,-0.114788353
5.21,0.464870274,-0.659827232,-0.292367578
5.22,0.33073464,-0.727535248,-0.76006794
5.23,0.004621528,-0.648938179,-1.275387287
5.24,0.00439363,-0.68751812,-1.330523014
5.25,0.011596113,-0.687712669,-1.335075378
5.26,0.152093113,-0.752518654,-0.961226523
5.27,0.158671767,-0.932197571,-1.073119998
5.28,0.084928624,-0.882032394,-0.720830441
5.29,0.201528668,-0.831900597,-0.600101411
5.3,0.27875039,-0.709921837,-0.787704289
5.31,0.447066695,-0.717215538,-0.852946997
5.32,0.44876954,-0.717368126,-0.858712971
5.33,0.621699929,-0.583608627,-0.377379924
5.34,0.620354474,-0.392410278,-0.284921795
5.35,0.632023573,-0.196443558,-0.501853705
5.36,0.559342742,0.045059204,-0.929759502
5.37,0.369459927,0.547618866,-1.473454952
5.38,0.008692138,1.086131096,-1.833428025
5.39,-0.044627588,1.634262085,-1.985090137
5.4,-0.016400732,1.868782997,-1.910336375
5.41,-0.222574562,2.2302351,-1.486474752
5.42,-0.487220347,2.598841667,-1.26704514
5.43,-0.427435517,2.790314674,-1.251969934
5.44,-0.022921441,2.871729851,-1.415246725
5.45,-7.6279E-05,2.87193203,-1.390901685
5.46,0.129005224,3.284142494,-1.452998042
5.47,0.317766279,3.651047707,-1.290875912
5.48,0.333731681,3.965402603,-0.944775105
5.49,0.05889051,3.688361168,-0.204640746
5.5,0.081511363,3.688771248,-0.197398737
5.51,-0.390814036,2.795846939,1.082569122
5.52,-0.772532225,2.364834785,1.37145865
5.53,-0.760699928,2.364664078,1.355964184
5.54,0.15393889,1.918966293,2.1736238
5.55,0.551444173,1.973521233,3.11925602
5.56,0.913793266,2.087799072,3.594462395
5.57,0.902635455,2.087251663,3.562992334
5.58,-0.152950168,2.319072723,3.934430122
5.59,-0.926412761,2.050647736,4.138708115
5.6,-1.258743048,1.449532509,4.212631226
5.61,-1.245705962,0.666554451,3.729023933
5.62,-0.971958756,0.032061577,3.15941453
5.63,-1.181233883,-0.336642265,2.558692455
5.64,-1.5015589,-0.355716705,1.922522783
5.65,-1.649687529,0.041858673,1.208267331
5.66,-2.059945583,0.750777245,0.258113384
5.67,-2.273034811,1.256254196,-0.066968262
5.68,-2.158728123,1.309265137,0.429437876
5.69,-2.104975462,0.996006012,0.864680529
5.7,-2.089807749,0.996417999,0.853922248
5.71,-1.26982069,-0.904384613,0.314888626
5.72,-1.156532049,-1.806869507,0.185054943
5.73,-0.812486112,-2.84350729,0.056518719
5.74,-0.324335158,-3.940073013,-0.17625168
5.75,0.17232655,-4.859572411,-0.313756347
5.76,0.255372137,-5.477492809,-0.231266767
5.77,0.244185045,-5.973330021,0.116397627
5.78,0.234265924,-5.973458767,0.109494478
5.79,-0.249526188,-5.904108047,0.859158754
5.8,-0.087604553,-5.602447987,0.913174748
5.81,-0.097464204,-5.602509022,0.905402541
5.82,0.303034484,-5.384930611,0.234128565
5.83,0.296688616,-4.674213409,-0.443015575
5.84,0.154222742,-4.140566826,-0.331618369
5.85,0.18988815,-3.65476656,-0.465033174
5.86,0.233021915,-3.044421673,-0.867697597
5.87,0.127278328,-2.261639118,-0.980827987
5.88,0.106465474,-2.261722088,-0.979453862
5.89,-0.188098192,-0.901821137,-0.845422089
5.9,-0.466948926,-0.219529152,-0.730405867
5.91,-0.623033583,0.309482575,-0.675558507
5.92,-0.62471956,0.30933094,-0.652915537
5.93,-1.256933212,1.137633324,-0.705577493
5.94,-1.397130728,1.271692276,-0.861015022
5.95,-1.388814449,1.271862984,-0.81565994
5.96,-1.095203042,1.401535034,-0.766883194
5.97,-0.940369606,1.720492363,-0.728836477
5.98,-0.617231846,2.16880703,-0.533545256
5.99,-0.618009925,2.169376373,-0.504335523
6,-0.570088506,3.278456688,-0.219479278
6.01,-0.993953347,3.77920723,0.196916267
6.02,-1.486979604,4.102578163,0.436962098
6.03,-1.856867194,4.052298546,0.209415123
6.04,-2.236030817,4.018777847,-0.139554471
6.05,-2.051567078,4.545740128,-0.687789798
6.06,-1.043511271,4.956101418,-0.945055842
6.07,0.268373668,5.039083481,-0.526207924
6.08,1.256687522,5.067403793,0.658940792
6.09,1.734435439,4.65763855,2.47942853
6.1,2.17009449,3.974794388,4.318723202
6.11,2.156125069,3.976451874,4.351921082
6.12,2.287326336,2.706383705,5.321787357
6.13,3.131267309,0.035058022,5.692276955
6.14,3.10756278,0.035338402,5.695790291
6.15,2.211648226,-0.821378708,2.200717688
6.16,0.944789231,-0.322735786,0.062535942
6.17,0.519250989,0.106096268,-1.52289629
6.18,0.339025796,0.702017784,-1.532678843
6.19,0.058903225,1.352357864,-0.316363931
6.2,0.054192267,1.350914001,-0.34293735
6.21,0.244264558,1.284696579,0.621048331
6.22,0.721881867,0.727694511,1.640196443
6.23,0.709065318,0.72637558,1.607394695
6.24,0.579434037,0.150690079,1.463833451
6.25,0.143821389,-0.51584053,1.359591007
6.26,-0.112592354,-1.340138435,0.922575474
6.27,-0.536632717,-3.236814022,0.029545933
6.28,-0.786770165,-3.85704565,0.051943094
6.29,-0.718310952,-4.465180397,0.283016682
6.3,-0.235900477,-5.109071255,0.300347865
6.31,0.058570348,-5.388854504,0.356871426
6.32,0.111008301,-5.237593651,0.368812859
6.33,-0.060184274,-5.110280037,0.640744269
6.34,0.044786729,-4.743845463,0.819689095
6.35,0.401599795,-4.451827049,0.457260847
6.36,0.433313608,-4.452013969,0.449156404
6.37,0.11363975,-4.107537746,0.331494868
6.38,0.176495284,-3.700975418,0.607853591
6.39,0.208251774,-3.720520496,0.269550532
6.4,-0.163588464,-3.543486595,-0.211194813
6.41,-0.578774393,-3.208155155,-0.605929077
6.42,-0.551331043,-3.207849026,-0.61794734
6.43,-0.245799333,-2.812495232,-1.382975101
6.44,0.007394284,-1.569572449,-1.865447402
6.45,0.129555911,-0.717193604,-1.19312501
6.46,0.185860366,0.379240036,-0.224140883
6.47,0.361439765,1.44198513,0.47003457
6.48,0.601323605,2.18379879,0.559085548
6.49,0.681151032,2.875389099,0.18965891
6.5,0.809246838,3.557546616,-0.548887909
6.51,0.678373754,4.125108719,-1.27436769
6.52,0.680960894,4.12539959,-1.263766408
6.53,0.58260411,4.515979767,-1.544316292
6.54,0.448510766,4.039837837,-1.366685987
6.55,0.236206844,3.489476204,-1.431507468
6.56,-0.159844905,3.449241638,-1.485338092
6.57,-0.314949095,4.062931061,-0.773339629
6.58,0.313158125,4.542678833,-0.220836818
6.59,0.825763226,4.751981735,0.363016605
6.6,0.844400764,4.753164291,0.378724158
6.61,0.519876599,4.795544624,1.870714188
6.62,-0.509725034,4.666264534,3.481197596
6.63,-1.726947546,2.454866409,3.920288563
6.64,-1.69619298,2.457985878,3.958613396
6.65,0.363006353,-0.769479752,3.324706078
6.66,0.932046354,-1.527276039,3.673115015
6.67,0.739099026,-1.330807686,3.7428689
6.68,0.336986065,-0.778355598,3.19712472
6.69,-0.001972437,0.037091255,2.127400637
6.7,-0.406049967,0.890641213,1.252087831
6.71,-1.301398039,2.000529289,0.793047607
6.72,-2.681693792,2.919383049,0.557459533
6.73,-3.637619495,3.376886368,0.357588589
6.74,-3.680630684,3.178947449,0.184082389
6.75,-2.402570486,1.915659904,-0.347469211
6.76,-1.001697659,0.46769619,-0.51518333
6.77,-0.083164513,-0.777116776,-0.445306659
6.78,0.228893459,-1.782686234,-0.346910328
6.79,0.463135898,-2.747692585,0.083136827
6.8,0.446310103,-2.74835062,0.08907491
6.81,0.69260782,-3.609078884,0.53574717
6.82,1.415089369,-5.078475475,1.193502426
6.83,1.41958344,-5.437191963,1.538677931
6.84,1.229200125,-5.53272295,1.523679137
6.85,0.86556083,-5.293004036,1.533364534
6.86,0.835502744,-5.294857025,1.514052629
6.87,0.635771692,-5.042727947,0.570061266
6.88,0.608119249,-5.043967724,0.559552968
6.89,-0.085627258,-4.553792,-0.861747503
6.9,-0.102453113,-4.55390358,-0.851258874
6.91,-0.652491808,-3.696607113,-1.610593915
6.92,-0.667252779,-3.696345806,-1.593938947
6.93,-0.3938272,-2.836343288,-1.710193157
6.94,-0.404127806,-2.835548878,-1.685587168
6.95,-0.490714133,-1.663527489,-0.853062689
6.96,-0.914740801,-1.106564522,-0.229734272
6.97,-1.424072146,-0.668617249,-0.594708622
6.98,-1.637051225,-0.05030632,-0.931830645
6.99,-1.403406978,0.479926109,-0.730007112
7,-1.04823339,0.943260193,-0.810993075
7.01,-0.584774375,1.36354351,-0.938408375
7.02,-0.156980246,1.673666,-0.703050971
7.03,0.194011509,1.928027153,-0.003708184
7.04,0.086524069,2.255819321,0.662375391
7.05,-0.013807893,2.839187622,0.717814565
7.06,-0.273067951,3.312137604,-0.097211301
7.07,-1.326991081,3.600575447,-0.521838665
7.08,-2.720456123,3.744212151,-1.671204329
7.09,-3.381654501,3.540049553,-2.876097441
7.1,-3.187413454,3.960781097,-3.019021511
7.11,-1.926728487,4.564281464,-2.03780818
7.12,0.047418311,4.896183014,-0.923287511
7.13,0.030205607,4.899278641,-0.886421919
7.14,2.329796791,5.33271122,0.790618897
7.15,2.357943773,5.464621544,1.768928289
7.16,1.74693048,4.801620483,3.081551313
7.17,1.725595832,4.806075096,3.123034
7.18,1.178896785,2.264027596,4.128143787
7.19,1.359533787,0.761433601,3.65448761
7.2,1.857976794,-0.625869751,2.458996296
7.21,2.280439138,-1.575663567,1.144195795
7.22,2.512811899,-2.111646175,-0.027263641
7.23,2.204979897,-1.723649979,-0.588993192
7.24,1.422818303,-1.010414124,-0.12992692
7.25,0.743035078,-0.192493439,0.401581585
7.26,0.351827622,0.493535996,0.753679156
7.27,0.220269918,0.966747284,0.827480912
7.28,0.127461672,1.152833939,0.767916262
7.29,-0.190905437,0.94377327,0.988411307
7.3,-0.420383036,0.245843887,1.125794649
7.31,-0.431029975,-0.725445747,1.296231866
7.32,-0.474651933,-1.830670834,1.462988138
7.33,-0.754615426,-2.734260082,1.116626859
7.34,-0.954507649,-3.610675335,0.568357766
7.35,-0.850280106,-4.39291811,-0.116526008
7.36,-0.630061269,-5.059509754,-0.516802251
7.37,-0.450651705,-5.397928238,-0.631689012
7.38,-0.157314792,-5.40118742,0.205992729
7.39,0.031617165,-5.349560738,0.551981747
7.4,0.231231108,-5.242783546,0.303364933
7.41,0.24509275,-5.24353981,0.294863939
7.42,0.813100338,-4.392105579,0.71678406
7.43,0.866123974,-4.062618256,0.481741101
7.44,1.047095418,-3.558166027,-0.1456424
7.45,0.830118358,-3.041554928,-0.57697767
7.46,0.606960952,-2.280667782,-0.70160389
7.47,0.393225849,-1.651636124,-0.707808316
7.48,0.398764938,-1.652382851,-0.720780194
7.49,-0.010357365,-0.623608589,-0.569532752
7.5,-0.004843421,-0.624302864,-0.582481921
7.51,-0.067864314,0.320827484,-0.445191324
7.52,-0.02911219,0.849721909,-1.155523539
7.53,-0.088782296,1.501303673,-1.683767319
7.54,-0.376679003,2.359000206,-1.908297896
7.55,-0.703624427,3.276652336,-1.602199316
7.56,-0.691138029,3.277301788,-1.58914566
7.57,-0.022410205,4.288241386,-1.116212249
7.58,0.032748498,4.152288437,-1.099499941
7.59,-0.01313143,3.908294678,-0.51100117
7.6,-0.163825423,3.884335518,-0.394251227
7.61,-0.165979669,3.884345055,-0.393993437
7.62,-0.150756091,4.303508759,-0.379159212
7.63,0.906806767,5.079556465,0.178807795
7.64,0.462171674,5.238152504,0.291732222
7.65,0.46609059,5.239343643,0.312454969
7.66,-1.118565083,4.079562187,2.065709114
7.67,-1.107567906,4.081318855,2.093678474
7.68,-1.065150142,1.387229919,3.237822771
7.69,-0.218409091,-0.205867767,3.757517338
7.7,0.681044459,-1.170750618,3.943548918
7.71,1.112890601,-1.528877258,3.912099361
7.72,0.285560131,-0.717004776,2.837168455
7.73,-0.926522732,0.377228737,1.234968424
7.74,-1.866962314,1.495358467,0.064936012
7.75,-2.814355612,2.836366653,0.005838603
7.76,-3.306789398,3.528895378,0.415675253
7.77,-3.140390635,3.556477547,0.773277402
7.78,-2.835856199,2.924158096,0.007105768
7.79,-2.064678192,1.77819252,-1.054152608
7.8,-1.302017927,0.611384392,-1.20115912
7.81,-0.306661606,-0.653674126,-0.326859415
7.82,0.615516543,-2.039694786,0.472254187
7.83,1.358009338,-3.225455761,0.807167888
7.84,2.341600657,-4.21323967,1.944265008
7.85,2.607346296,-4.876028061,3.018690109
7.86,2.586060286,-4.878213882,2.969774246
7.87,0.875089526,-5.198404312,2.481195688
7.88,0.02753661,-4.864530563,0.902619481
7.89,-0.262349874,-4.97551775,-0.385393113
7.9,-0.564419329,-5.030992508,-1.037844539
7.91,-0.923427045,-5.189134598,-1.302924395
7.92,-0.647624254,-5.076625824,-1.050782919
7.93,-0.6695171,-5.076649666,-1.058197498
7.94,-0.382116646,-4.509070873,-0.789328516
7.95,-0.412653983,-3.94614172,-0.872597277
7.96,-0.626065731,-3.409404755,-0.88997066
7.97,-0.78765446,-2.795881748,-0.915275335
7.98,-0.621317983,-2.091227055,-0.897634745
7.99,-0.584421039,-1.443652153,-0.877165079
8,-0.395309985,-0.702309609,-1.356998205
8.01,-0.379007667,-0.700241089,-1.304775596
8.02,-0.795271277,0.403624535,-1.369369984
8.03,-0.773023069,0.406265259,-1.31784153
8.04,-0.663082898,0.96680069,-0.629260004
8.05,-0.846163988,1.206475258,-0.553359926
8.06,-0.825905085,1.209261894,-0.512397528
8.07,-0.820968628,1.885011673,-1.259485245
8.08,-0.809123993,2.328435898,-0.923166096
8.09,-0.860812485,2.826389313,-0.587935627
8.1,-1.071415782,3.258804321,-0.553946912
8.11,-1.447965384,3.410437584,-0.860852182
8.12,-1.445015073,3.410567284,-0.859645128
8.13,-2.950055122,3.45804882,-1.521094799
8.14,-2.755383253,4.173666,-1.535634756
8.15,-1.612810731,4.765587807,-1.308979511
8.16,-0.132487431,5.060554504,-0.975849032
8.17,-0.126003325,5.064736366,-0.929647088
8.18,2.041704178,4.738956451,2.366867065
8.19,2.19413209,4.473389626,3.562443733
8.2,1.911325336,3.758090973,4.018988132
8.21,1.832219958,2.606526375,3.688265324
8.22,2.068699598,1.374195099,2.505674601
8.23,2.050817966,0.621378899,1.556197405
8.24,1.913339376,0.082424164,1.088417292
8.25,1.902288079,0.080946922,1.076307178
8.26,0.757155418,0.728135109,-0.649526835
8.27,0.324118078,1.229302406,-0.067885518
8.28,0.441738248,1.446243286,0.546002626
8.29,0.403502613,1.686857224,0.246265769
8.3,0.33149901,1.580302238,0.261695385
8.31,0.636212409,1.241067886,0.9108091
8.32,1.018752575,0.594531059,1.980437279
8.33,1.007386565,-0.260909081,2.142382383
8.34,0.986302793,-0.265802383,2.083508968
8.35,0.441628873,-1.256383896,1.768541098
8.36,-0.057279784,-2.317867756,1.072136402
8.37,-0.480777383,-3.105445385,0.389943063
8.38,-1.488235593,-4.756464481,-0.282245398
8.39,-1.467282057,-5.257319927,-0.222606719
8.4,-1.114140749,-5.604446888,-0.071934342
8.41,-0.843357503,-5.845853806,0.112168014
8.42,-0.812609792,-5.845134735,0.119349182
8.43,-0.565183759,-5.882623672,0.32950893
8.44,0.123284072,-5.55371809,0.402010858
8.45,0.193279624,-5.16737318,0.28143698
8.46,0.27689293,-4.670909405,-0.109677613
8.47,0.305605292,-4.294335842,-0.384210944
8.48,0.529458761,-3.728866577,-0.808527648
8.49,0.758324087,-3.13959837,-1.045053244
8.5,0.693040371,-2.277369499,-0.983287752
8.51,0.708398521,-2.27721405,-0.988972187
8.52,0.323535919,-1.295251846,-0.92107755
8.53,0.364928871,-0.559802055,-0.945943177
8.54,0.440406203,-0.106863022,-0.759282112
8.55,0.535345912,0.305427551,-0.313415229
8.56,0.700359225,1.005707741,-0.439177513
8.57,0.710597396,1.007299423,-0.421392441
8.58,0.762347817,1.485626221,-1.064918041
8.59,0.452671289,2.97906208,-1.964492917
8.6,0.457212001,2.980638504,-1.945406914
8.61,0.255977541,4.16937542,-1.770462155
8.62,0.056707323,4.208367348,-1.706579924
8.63,-0.063593775,4.127527237,-1.793133974
8.64,-0.687782407,4.290973663,-1.606822848
8.65,-0.686166763,4.291748047,-1.59759748
8.66,-0.614022732,4.550949097,-1.41513598
8.67,-0.388201296,4.941648483,-0.2942307
8.68,-0.207715213,4.683300972,1.319088936
8.69,-0.274713635,3.843646049,2.058912039
8.7,-0.898929358,3.587033272,3.524951696
8.71,-0.943885207,2.773651123,4.051219463
8.72,-0.679961681,2.001719475,4.179337978
8.73,-0.042827666,1.141251564,4.58399725
8.74,-0.04080534,1.143341064,4.605689526
8.75,0.416826159,0.469118118,4.748051643
8.76,0.492612422,0.210497856,4.309458256
8.77,-0.075344443,0.490012169,2.971348763
8.78,-0.753164947,1.187921524,0.836295128
8.79,-1.114620447,1.678596497,0.482164741
8.8,-2.367639542,2.408649445,0.179374814
8.81,-3.473181248,2.818343163,-0.491267741
8.82,-3.121774912,2.490826607,-1.108929157
8.83,-1.36962533,1.26729393,-0.962134481
8.84,-0.309900403,0.179193497,-0.149701774
8.85,0.311834753,-0.772762299,0.537622929
8.86,0.679616094,-1.621210098,0.814922035
8.87,0.882175207,-2.468920231,0.997225463
8.88,0.884445012,-3.342366695,0.915392757
8.89,0.852056384,-3.343770504,0.910808861
8.9,0.922857523,-4.089452267,0.840110898
8.91,0.418274373,-5.244201183,0.501797676
8.92,0.264937162,-5.431594849,0.603282213
8.93,0.237189412,-5.671758175,0.498894781
8.94,0.171687007,-5.713180065,0.57819581
8.95,0.172913924,-5.673156261,0.529724598
8.96,0.080275603,-5.659092903,0.247999132
8.97,-0.261377454,-5.407561779,-0.088507533
8.98,-0.410902023,-5.050374985,-0.345793188
8.99,-0.293352604,-4.697870255,-0.470997036
9,-0.317860156,-4.69730854,-0.46300292
9.01,0.055580292,-3.731785297,-0.758821249
9.02,-0.468598664,-2.940811634,-0.890971363
9.03,-0.876853526,-2.04167223,-1.115375996
9.04,-0.96465981,-1.182668686,-1.428307056
9.05,-0.86348933,-0.447737694,-1.551537037
9.06,-0.93904233,0.366497994,-1.102741003
9.07,-1.008061051,1.053699493,-0.647239745
9.08,-1.151015401,1.606779099,-0.533418894
9.09,-1.411681056,2.222206116,-0.496231914
9.1,-1.464393735,2.943276405,-0.38552165
9.11,-1.585734367,3.26015377,-0.968782604
9.12,-1.306785941,3.505905151,-1.402782202
9.13,-1.158644557,3.686990738,-1.304370642
9.14,-1.420863152,3.667732239,-1.161673188
9.15,-2.023031235,3.472356796,-1.629948854
9.16,-2.408195972,3.117866516,-2.455721378
9.17,-2.474643946,3.196082115,-2.411763191
9.18,-2.460876942,3.195145607,-2.422375679
9.19,-0.814223349,4.215806961,-0.808507323
9.2,-0.806309819,4.218923569,-0.781103969
9.21,0.244251102,4.59041214,0.07650125
9.22,1.429066658,4.455924988,1.334615231
9.23,2.301328897,4.164961815,3.133629322
9.24,2.219934464,3.329035759,3.265268326
9.25,2.201572418,3.337702751,3.329864502
9.26,2.510604858,1.66793251,2.920113087
9.27,2.672378778,0.941077232,2.267362595
9.28,2.433087349,0.477483749,1.400656223
9.29,1.968311429,0.459340096,0.070484996
9.3,1.398011327,0.712524414,-0.476318955
9.31,1.276689649,0.893201828,-0.044183493
9.32,1.585679173,1.202197075,0.645165265
9.33,1.733134389,1.381491661,1.27652061
9.34,1.714515209,1.37403965,1.217779994
9.35,1.353757024,1.347668648,1.562559843
9.36,0.76264447,1.245092392,1.639588475
9.37,-0.483947158,0.230847359,0.775281429
9.38,-0.486623824,0.225013733,0.718823314
9.39,-0.999140382,-1.75801754,-0.269607306
9.4,-1.376133442,-2.696304321,-0.574240625
9.41,-1.429425359,-3.533090115,-0.475113154
9.42,-1.41509068,-3.5354352,-0.501689017
9.43,-0.946737945,-4.88243866,0.071202755
9.44,-0.837516964,-5.455167294,0.252756476
9.45,-0.510276794,-5.744656086,0.454284191
9.46,-0.41762045,-5.913932323,0.636755705
9.47,-0.204113364,-5.809986591,0.763546884
9.48,0.371764094,-5.713273525,0.689806223
9.49,1.184297919,-5.43724823,0.77524209
9.5,1.573692322,-4.86470747,0.851387262
9.51,1.59553647,-4.864763737,0.846276879
9.52,1.116258025,-4.290150166,0.407195211
9.53,0.669852257,-3.589160919,0.05937922
9.54,0.267612159,-2.265966892,-0.871253729
9.55,0.154384881,-1.847723007,-1.422198772
9.56,0.205338225,-1.233315468,-0.878231227
9.57,0.115170047,-0.674352646,-0.848888338
9.58,-0.003143907,-0.055095673,-1.135449648
9.59,0.063533008,0.634140015,-1.020170808
9.6,0.040973067,1.484097481,-1.142576456
9.61,0.04977715,1.484278679,-1.14410162
9.62,0.652299881,3.02627182,-1.250110626
9.63,0.894598126,3.940400124,-0.966307402
9.64,0.689184129,4.63866806,-1.205221891
9.65,0.261842668,5.109663963,-1.60224402
9.66,-0.462397307,5.097165108,-1.847572327
9.67,-0.654242635,4.574749947,-1.940443277
9.68,-0.653554797,4.574399948,-1.946051836
9.69,-0.75894928,4.126678467,-1.013338089
9.7,-0.756075203,4.12732029,-1.00510478
9.71,0.366396368,4.461172104,0.222925186
9.72,0.360548914,4.304896355,0.455555111
9.73,-0.167710275,4.099113464,1.343250275
9.74,-1.150990486,3.805281639,2.518328428
9.75,-1.483804226,3.076572418,3.538962603
9.76,-1.471258163,3.080615044,3.581073046
9.77,-0.91954726,1.913125992,3.926910877
9.78,0.432448953,-0.276378632,4.880189419
9.79,0.857579351,-0.712820053,4.738049984
9.8,0.395547867,-0.410772324,3.912015438
9.81,-0.587925673,0.190041542,2.76366663
9.82,-1.999732494,1.329480171,1.148519754
9.83,-3.492524147,2.418949127,-0.713778555
9.84,-3.893482685,2.845705032,-1.588719845
9.85,-3.239339828,2.798418045,-1.3148458
9.86,-2.020198107,2.097154617,-0.397542357
9.87,-1.352669954,1.532120705,0.329005927
9.88,-0.960245132,0.972512245,0.511357188
9.89,-0.665079355,0.279579163,0.145788729
9.9,-0.218362331,-0.774401665,0.312371641
9.91,0.28670457,-1.862063408,0.798118889
9.92,0.74270165,-2.993335724,1.311125755
9.93,1.073179007,-3.957666397,1.765134096
9.94,1.488415122,-4.780948162,1.689628363
9.95,2.022127867,-5.443830967,1.474565268
9.96,2.347993135,-5.790509224,1.602335215
9.97,2.300805569,-5.792240143,1.583063126
9.98,0.859724462,-5.798044205,0.230732322
9.99,0.009899901,-5.570933342,-0.344639301
10,-0.606399357,-5.479915619,-0.244985998
10.01,-0.865588963,-5.347961426,-0.31703192
10.02,-0.883577764,-5.347426414,-0.308349192
10.03,-0.433834493,-4.834245205,-1.164693594
10.04,-0.414832205,-4.433460712,-0.945316315
10.05,-0.650146663,-3.71185112,-0.678772509
10.06,-0.611785889,-3.052293777,-0.885864019
10.07,-0.637757361,-2.461770535,-1.151648641
10.08,-0.647923946,-2.459877491,-1.124581337
10.09,-0.794237316,-0.992531776,-1.527106166
10.1,-0.852484405,-0.178815842,-1.532195568
10.11,-1.054285765,0.591816902,-1.391400814
10.12,-1.305982828,1.489328384,-1.092241764
10.13,-1.977826118,2.478023529,-0.898439705
10.14,-1.9500525,2.480927467,-0.86003226
10.15,-1.979032874,3.737289429,-1.963875294
10.16,-1.585981369,3.865211487,-1.891114116
10.17,-0.681910396,3.710504532,-1.299735427
10.18,-0.675369859,3.715161324,-1.255534172
10.19,-0.193931371,3.390289307,-0.465446234
10.2,-1.259830832,3.183867455,-1.152532935
10.21,-2.364767075,2.932218552,-1.765345931
10.22,-2.363055706,2.9307127,-1.778852701
10.23,-3.113148689,2.40468502,-2.593651772
10.24,-1.492544651,3.122128487,-1.7514956
10.25,0.055554129,3.793199539,-0.627323151
10.26,0.900728166,4.215109825,-0.249001265
10.27,1.300250649,4.400204659,0.500822604
10.28,1.299526215,4.405349731,0.544029892
10.29,2.153014898,3.904126167,3.475913048
10.3,2.249063492,2.733472824,4.899355888
10.31,2.387007952,1.644785881,5.252053261
10.32,2.692749023,0.463107109,4.362617016
10.33,2.433497429,-0.43462944,2.885524273
10.34,2.41952157,-0.43786335,2.858618259
10.35,1.067152143,-0.458539963,-0.246348739
10.36,0.631780863,0.178735733,-1.021719694
10.37,0.498806655,0.557169914,-0.966986895
10.38,0.365319103,1.177577972,-0.581918955
10.39,0.381331503,1.173280716,-0.622781873
10.4,0.022980407,1.947579384,0.900385797
10.41,-0.327363253,1.721615791,0.8708359
10.42,-0.7501508,1.149316788,0.609347284
10.43,-0.78311491,0.079323769,0.912923038
10.44,-0.768937349,0.07682991,0.883480549
10.45,-0.53814882,-1.00038147,1.271119356
10.46,-0.307546705,-2.409537792,0.57645756
10.47,-0.072487585,-4.385704517,0.161978722
10.48,-0.057096392,-4.386304379,0.152561545
10.49,-0.382749051,-5.358664036,-0.023872733
10.5,-0.359175444,-5.358840466,-0.030160248
10.51,-0.42701751,-5.670491219,0.244755983
10.52,0.07133323,-5.78604126,0.662123263
10.53,0.374780595,-5.451437473,1.266150236
10.54,0.396367014,-5.45196867,1.252343655
10.55,0.969675243,-4.587840557,0.296815604
10.56,0.987477183,-4.587865353,0.289643318
10.57,0.389575601,-3.740447521,-0.320631504
10.58,0.404537171,-3.74091959,-0.333904028
10.59,0.427809745,-3.413755417,-0.683461189
10.6,0.487670928,-2.765924454,-1.696148753
10.61,0.355515569,-2.211831093,-1.499655366
10.62,0.344640017,-1.40155983,-0.866651714
10.63,0.248646915,-0.574465752,-0.634666383
10.64,0.241018474,-0.57533741,-0.645926356
10.65,0.039415553,1.193628311,-0.600000024
10.66,0.038005248,1.193780899,-0.596755743
10.67,-0.041702867,2.166593552,-1.069681764
10.68,-0.118537188,3.623052597,-1.46572566
10.69,0.073557466,4.377680779,-1.463816166
10.7,0.018958464,4.909296036,-1.382910967
10.71,0.012173042,4.909155846,-1.382356167
10.72,-0.466686398,4.918523788,-1.262507439
10.73,-0.927094162,3.759829521,-1.555146694
10.74,-1.409372568,3.624087334,-1.212593198
10.75,-1.215595245,4.130852699,-0.830081105
10.76,-1.189755082,4.133182526,-0.806645572
10.77,-0.587522924,4.614850998,-0.59833324
10.78,-0.020788312,4.6200037,1.443282008
10.79,0.007928073,4.622407913,1.460756302
10.8,-0.899591088,3.458994865,4.642992496
10.81,-0.80866313,2.22865963,4.741334915
10.82,-0.783856213,2.231069565,4.756701946
10.83,0.661319077,0.099101067,4.516740322
10.84,0.925348997,-0.288356781,4.112983704
10.85,0.226662517,-0.211967468,2.470495462
10.86,0.217510968,-0.212527275,2.469265938
10.87,-0.130184531,0.60477066,0.687351942
10.88,-0.178287238,1.279675484,-0.078275681
10.89,-0.948996663,2.306355476,-0.382091403
10.9,-2.315280437,3.055666924,0.244558275
10.91,-3.183731556,3.556066513,0.919635534
10.92,-3.189995289,3.553722382,0.888264418
10.93,-2.155440569,1.964328766,0.497565359
10.94,-1.359282017,0.6509161,-0.234804273
10.95,-0.814333558,-0.546926498,-0.21741426
10.96,-0.042027652,-1.706240654,-0.119496226
10.97,0.510542989,-2.688365936,0.335274369
10.98,1.190095544,-3.632319927,0.675468326
10.99,1.393283844,-4.432765484,0.991189301
11,1.200401306,-4.775889874,1.713778734
11.01,1.091399908,-4.910704613,1.712771893
11.02,0.951906383,-5.279863358,1.052270889
11.03,0.930117607,-5.279905319,1.060435176
11.04,0.257223606,-5.538045406,-0.179810464
11.05,-0.110644594,-5.683091164,-0.625701249
11.06,-0.362999976,-5.691383839,-0.722014546
11.07,-0.304191351,-5.635042191,-0.663712919
11.08,-0.211270109,-5.346585751,-0.421324432
11.09,-0.227382153,-5.345520496,-0.403157353
11.1,-0.032433003,-4.927767277,-0.272044063
11.11,-0.292809755,-3.982807636,-0.871570289
11.12,-0.295840651,-3.980546474,-0.842498004
11.13,-1.107370973,-2.306175709,-1.520458698
11.14,-1.075674057,-1.662360191,-1.678043127
11.15,-0.68509835,-0.608348846,-1.474061012
11.16,-0.360154629,0.330783844,-1.181417942
11.17,-0.353927136,0.335804939,-1.133683205
11.18,-0.349870563,2.025568962,-0.290815949
11.19,-0.865346193,2.620581627,-0.392926693
11.2,-1.199600816,3.10281086,-0.692103386
11.21,-1.195794106,3.105920792,-0.666208386
11.22,-1.086785793,3.297786713,-0.964133978
11.23,-0.960814357,3.366150856,-0.796517015
11.24,-0.969444394,3.366293907,-0.794121385
11.25,-2.875087738,2.956092834,-2.356194973
11.26,-3.60575676,2.712898254,-2.799130201
11.27,-3.956938267,2.70447731,-2.126735449
11.28,-3.020346165,3.25007534,-1.390984654
11.29,-1.906249404,3.677334785,-1.311808109
11.3,-0.098334044,4.241818428,-0.896696448
11.31,1.420789599,4.441137314,0.056415915
11.32,2.454952717,4.415390015,1.34450984
11.33,2.445535898,4.422787666,1.398667097
11.34,2.61264801,4.163870811,2.934484482
11.35,2.214471102,2.643594742,4.698504448
11.36,2.475613594,1.539279938,4.139933109
11.37,3.066564798,0.470515251,2.610383034
11.38,2.871332407,-0.150099754,1.280372143
11.39,1.807483435,0.233276367,0.144273758
11.4,1.100019097,0.797789574,-0.510803223
11.41,0.77510345,1.364013672,-0.310080528
11.42,0.811380804,1.614880562,0.229213476
11.43,0.503619254,2.153820992,0.789733052
11.44,0.5021559,2.149903297,0.760107398
11.45,-0.490163028,2.211424828,0.690607548
11.46,-0.486804515,2.208215714,0.665317655
11.47,-0.611246109,0.200555801,0.702939034
11.48,-0.584823668,-1.019635201,0.545984089
11.49,-0.92064786,-2.196528912,0.552718997
11.5,-1.00596869,-3.073699474,0.528801203
11.51,-0.935452581,-3.981349468,0.27708137
11.52,-0.916938305,-3.982799053,0.26242888
11.53,-0.648122549,-5.19304657,0.529835224
11.54,-0.169570833,-5.73526001,0.789601326
11.55,0.174398094,-5.978437424,1.180289626
11.56,0.410001874,-6.097517967,1.420413733
11.57,0.889180243,-5.864920616,1.357548237
11.58,0.652121127,-5.433608055,0.951200843
11.59,0.640353203,-5.01161623,0.607768536
11.6,0.779304266,-4.563165665,-0.142500758
11.61,0.658586443,-4.126612663,-0.837932646
11.62,0.488335371,-3.692547321,-1.171256781
11.63,0.503902793,-3.694749355,-1.203376532
11.64,0.758258581,-2.511752605,-0.81883657
11.65,0.859015882,-1.65188694,-0.426055729
11.66,0.664328694,-0.918584824,-0.432898343
11.67,0.690137267,-0.208649635,-0.494872451
11.68,0.68736577,-0.209395409,-0.503684461
11.69,0.331801802,0.702487946,-0.629948139
11.7,0.566811085,1.228945732,-0.821839273
11.71,0.719340801,1.8057127,-0.911334574
11.72,0.302170217,2.332357407,-1.124825716
11.73,0.016845852,3.134553909,-0.989073634
11.74,-0.040082634,3.658986092,-1.417215109
11.75,-0.134083211,3.905667305,-2.167898178
11.76,-0.308036149,3.879405022,-2.391734362
11.77,-0.347423583,3.816994667,-2.137649059
11.78,-0.72941047,3.694551468,-1.664187312
11.79,-0.958001852,3.926671982,-0.735165954
11.8,-0.951394558,3.926920891,-0.734507382
11.81,0.325107217,4.670523643,0.340800703
11.82,0.159296468,4.582180977,0.272381574
11.83,0.185644075,4.585988045,0.308789223
11.84,-0.561407447,4.291479111,0.921536684
11.85,-1.228957653,2.934646606,2.287292242
11.86,-1.199341297,2.940646172,2.337337494
11.87,-0.891374767,2.086090088,3.119334221
11.88,0.717242181,0.240314484,5.875982761
11.89,1.098421812,-0.044466019,6.0146451
11.9,0.802516699,0.217808723,4.840878487
11.91,-0.168558627,0.903425217,2.455984831
11.92,-1.509269238,1.878442764,0.523109078
11.93,-2.619496107,2.896114349,-0.518178284
11.94,-3.405288219,3.590212822,-1.04386282
11.95,-3.399301767,3.587584496,-1.075732946
11.96,-3.236517906,3.383810997,0.106610835
11.97,-2.500105858,2.344881058,0.210891128
11.98,-1.887487531,1.266005516,-0.066982627
11.99,-0.970237911,-0.056658745,-0.26972425
12,-0.066335946,-1.202362061,-0.078740418
12.01,0.58463794,-2.322333813,0.384937167
12.02,0.563435137,-2.325244427,0.360058725
12.03,1.005469203,-3.310301781,0.762930393
12.04,1.779317975,-4.072879314,0.928125978
12.05,1.786738753,-5.419476032,1.737426639
12.06,2.337759972,-5.803163052,1.148586869
12.07,1.596496701,-6.006645203,0.783274353
12.08,1.555281281,-6.0078125,0.781197429
12.09,0.2369795,-5.85008812,-0.144478321
12.1,-0.000618786,-5.686654568,-0.685155273
12.11,-0.211665392,-5.505723953,-0.820810556
12.12,-0.238740891,-5.504229546,-0.793968499
12.13,-0.255446374,-4.889816284,-0.695576906
12.14,-0.173991859,-4.31618166,0.068134964
12.15,-0.526097417,-3.905276775,-0.466298282
12.16,-0.935729563,-3.208933353,-1.19892478
12.17,-0.974869788,-2.502637386,-1.068991065
12.18,-0.886454105,-1.76783371,-0.997608364
12.19,-1.136186481,-0.95875454,-1.28781867
12.2,-1.326631904,-0.058318138,-1.160390258
12.21,-1.315223694,-0.055397987,-1.128532171
12.22,-1.555443645,1.202461243,-1.070415616
12.23,-1.467493773,1.6920681,-0.951006889
12.24,-1.397067666,2.055055618,-0.962109804
12.25,-1.05822134,2.353613853,-1.118844628
12.26,-0.532405496,2.659306526,-1.10459137
12.27,-0.091723189,3.062782288,-0.720953941
12.28,-0.021319568,3.477566719,-0.551757693
12.29,-0.494237006,3.915716171,-0.969433904
12.3,-1.571145892,4.020029068,-1.53720963
12.31,-2.397515059,3.701688766,-1.950197101
12.32,-2.898591042,3.307964325,-2.27253437
12.33,-2.194697618,3.557982445,-2.090152502
12.34,-1.193253994,3.751215935,-1.353701472
12.35,-1.198810339,3.753222466,-1.336721301
12.36,0.869917035,4.319872856,-0.127912164
12.37,1.219455481,4.504528046,0.99979341
12.38,1.722413182,4.48353672,1.941238165
12.39,2.017803431,3.955096245,2.937410831
12.4,1.828645229,2.810868263,3.610746145
12.41,1.577809572,1.76809597,3.704942226
12.42,1.561892748,0.639481545,2.912919044
12.43,1.546971679,0.639021874,2.909339428
12.44,1.670422077,-0.136041641,1.560858011
12.45,1.592767239,-0.256016731,-0.132085204
12.46,1.376943111,0.284111977,-0.300353408
12.47,1.260009527,1.023867607,0.125802279
12.48,0.98712039,1.592927933,0.926189005
12.49,0.661446273,1.826392174,1.372589946
12.5,0.662902296,1.820469856,1.324180365
12.51,0.269145012,1.596899033,0.959769249
12.52,0.268562108,1.591409683,0.910889626
12.53,0.106576614,-0.009017944,0.987548232
12.54,-0.094578713,-1.005709648,0.980915666
12.55,-0.448106825,-2.185991287,0.847887635
12.56,-0.755374968,-3.410776615,0.393471479
12.57,-0.782360435,-4.263393402,-0.100191653
12.58,-0.761595249,-4.264698029,-0.113887847
12.59,-0.910442114,-5.512702942,0.488792121
12.6,-0.639341831,-5.785346031,-0.065063
12.61,-0.433161855,-5.84658432,0.099430144
12.62,0.011633299,-5.737689972,0.39121297
12.63,0.043699875,-5.736595154,0.40065369
12.64,0.551544786,-5.421990395,0.46756047
12.65,1.203627348,-4.592911243,0.913773596
12.66,1.434468985,-4.09223032,0.816340923
12.67,1.454195023,-4.092437267,0.809558213
12.68,1.190779567,-2.852930546,-0.065923035
12.69,1.050648093,-2.214929581,-0.209182918
12.7,1.006891966,-1.704734802,-0.136666954
12.71,0.581457913,-1.158829689,-0.073990226
12.72,0.578754187,-1.16108036,-0.101952434
12.73,0.094354033,-0.152377129,-1.115376472
12.74,-0.123596415,0.129012108,-1.219283819
12.75,-0.120324358,0.530591011,-1.410712957
12.76,0.160294324,0.985544205,-1.479664564
12.77,0.253096163,1.510324478,-1.739176273
12.78,0.277920872,2.320384026,-1.589020014
12.79,0.17108956,3.211964607,-1.305925608
12.8,-0.023148164,4.036542892,-1.36020422
12.81,-0.291356683,4.516541481,-1.58786428
12.82,-0.420710504,4.610910416,-1.715372324
12.83,-0.421046257,4.049001694,-1.88970089
12.84,-0.410914451,4.049880028,-1.881686211
12.85,-0.696105301,3.53390789,-1.730755568
12.86,-0.745414138,3.863566399,-0.02999568
12.87,-0.11044994,4.240008354,-0.073074758
12.88,0.333960682,4.172092438,-0.013354599
12.89,-0.153404683,4.083234787,1.679415941
12.9,-0.72942245,3.731266975,3.132630825
12.91,-0.64638108,3.032930374,3.962290764
12.92,-0.609229207,3.039274216,4.007291317
12.93,-0.010287285,0.828274727,4.717184544
12.94,0.103265345,0.298966408,4.610339165
12.95,0.221914709,0.290249825,3.93086195
12.96,-0.070149601,0.691963196,2.612441063
12.97,-0.561962664,1.008872032,1.449620247
12.98,-1.68815124,2.189198494,0.640522063
12.99,-2.99267149,3.205127716,0.007555485
13,-2.981489658,3.203288078,-0.013933063
13.01,-3.842620373,3.866979599,-0.317638278
13.02,-2.502202988,3.055758476,0.237810731
13.03,-1.617694855,1.830443382,0.140914261
13.04,-1.141634941,0.594923973,-0.596055746
13.05,-0.443835259,-0.656386375,-0.378601313
13.06,-0.45143491,-0.656049728,-0.371259213
13.07,0.393391907,-1.755719662,0.327054799
13.08,1.635594845,-3.59113884,0.744596601
13.09,1.814571381,-4.239710331,1.303538561
13.1,1.604047894,-4.575250626,1.624448061
13.11,1.574754596,-4.577908516,1.612716913
13.12,1.002536535,-4.810308933,1.647303581
13.13,0.948230803,-5.133342743,0.816540718
13.14,0.552964866,-5.237546921,0.466780901
13.15,0.223950058,-5.228238583,0.179345787
13.16,-0.062955052,-5.174807549,-0.282683253
13.17,-0.092764199,-5.173112869,-0.259149909
13.18,-0.357370675,-5.158912659,-0.457966685
13.19,-0.28000015,-4.943556309,-0.076060057
13.2,-0.058145389,-4.73303318,0.016765356
13.21,0.054009967,-4.292443275,-0.306134462
13.22,-0.426138401,-3.74585104,-0.558207035
13.23,-0.53583926,-2.976188183,-0.662403584
13.24,-0.677899003,-2.25628376,-1.015536666
13.25,-0.914309204,-1.336919785,-1.306859612
13.26,-1.11280036,-0.493554115,-1.401286244
13.27,-0.983430862,0.122746468,-1.128492713
13.28,-1.034467697,0.839745522,-0.75086844
13.29,-1.04621017,1.427569389,-0.869295239
13.3,-1.031817079,1.434045792,-0.827949047
13.31,-0.981029093,1.802148819,-1.155864
13.32,-0.643437624,1.982729912,-1.335776329
13.33,-0.40489319,2.249457359,-1.104220748
13.34,-0.465642184,3.148791313,-0.644505382
13.35,-1.090236306,3.447739601,-0.818220735
13.36,-1.095960736,3.445806503,-0.829447269
13.37,-3.134449959,2.901756287,-1.9822824
13.38,-3.124825001,2.898859024,-2.001500607
13.39,-3.420751333,2.72365284,-2.370456219
13.4,-2.601622343,3.306423187,-2.237491608
13.41,-1.563974619,3.656447411,-2.099665403
13.42,1.42418611,4.183866501,-0.059856653
13.43,2.094549894,4.209108353,1.539450049
13.44,2.286638975,4.000331879,2.543947697
13.45,1.929559588,3.609830856,3.339137793
13.46,1.951272607,2.970391273,4.291056156
13.47,2.043115139,1.998344421,4.127740383
13.48,1.541912317,0.84286499,2.619019032
13.49,1.397628069,-0.070857048,1.322692871
13.5,1.46148777,-0.678189278,0.393953919
13.51,1.280851364,-0.195680618,-0.648615599
13.52,1.044962764,0.353915215,-0.506846905
13.53,1.12453413,1.164583206,0.290162087
13.54,1.090150833,2.052107811,0.93637079
13.55,0.728186965,2.732228279,1.090782404
13.56,0.245259106,3.123931885,0.904157162
13.57,0.24787426,3.118631363,0.872590303
13.58,0.032274298,2.842384338,0.816416681
13.59,0.17092669,0.491789818,1.469859123
13.6,0.070634209,-0.676374435,1.217454314
13.61,-0.212099761,-2.078471661,0.72884208
13.62,-0.32743755,-3.196284771,0.054131508
13.63,-0.450707614,-4.010917664,-0.022637367
13.64,-0.584327102,-4.63299942,0.229691863
13.65,-0.586125374,-5.05066824,0.408335149
13.66,-0.565500259,-5.412451744,0.754443944
13.67,-0.141277134,-5.519585609,0.923826695
13.68,0.275402099,-5.463287354,1.022935271
13.69,0.305357099,-5.461610794,1.02841413
13.7,0.3305749,-5.253767967,1.017686129
13.71,0.401885271,-4.617269993,0.705036938
13.72,0.386479169,-4.284823895,0.504353046
13.73,0.414690673,-4.283463001,0.505366683
13.74,0.842298627,-3.593198776,-0.306139231
13.75,0.864295065,-3.068946838,-0.652394176
13.76,0.807095885,-2.329912186,-0.824993014
13.77,0.53773284,-1.691949844,-0.585778594
13.78,0.544318795,-1.693839073,-0.601693153
13.79,0.53710264,-0.173340797,0.098385453
13.8,0.18805173,0.277347565,0.133373022
13.81,0.195409805,0.27639389,0.123330951
13.82,0.245016426,0.951658249,-1.370243788
13.83,0.247744411,0.95249176,-1.365103841
13.84,0.454001099,1.666627884,-1.393070698
13.85,1.006348491,2.367337227,-0.779768586
13.86,0.990443945,2.365712166,-0.785590768
13.87,0.536888182,3.654784203,-1.140255928
13.88,0.084077775,3.840150833,-1.327954888
13.89,0.077164054,3.838806152,-1.33564198
13.9,-0.714225829,3.58439827,-1.079721093
13.91,-0.708173096,3.584756851,-1.079167604
13.92,-0.676937461,4.180630684,-0.489982605
13.93,-0.043359101,4.129308701,-0.70092392
13.94,0.066711456,4.352223396,-0.918670178
13.95,-0.866803467,4.490063667,-0.832162142
13.96,-1.261232853,4.25259304,0.513728023
13.97,-0.928253532,3.454054832,2.726260662
13.98,-0.916997969,3.459173203,2.755597115
13.99,-0.374800146,2.139053345,4.317609787
14,-0.162166596,1.012608528,5.505547047
14.01,0.176610798,-0.245782852,5.811024189
14.02,0.184507072,-0.310731888,4.180370331
14.03,-0.313100994,0.146112442,2.553267241
14.04,-1.229159355,1.00709343,0.763597429
14.05,-2.800078869,2.485329628,-0.627084017
14.06,-4.328896523,3.467468262,-0.609508872
14.07,-4.325483799,3.836166382,0.128853202
14.08,-3.125931978,3.308830261,0.526830196
14.09,-2.043527603,2.438113213,0.398269415
14.1,-1.582834601,1.670032501,0.034466147
14.11,-1.418514967,0.76503849,-0.159130335
14.12,-0.995801449,-0.10026741,0.027694225
14.13,-0.336746156,-1.042498589,0.33285135
14.14,0.321360976,-1.87096405,0.880548298
14.15,1.150815487,-2.744149685,1.241428375
14.16,1.755530596,-3.228404999,1.303628206
14.17,1.703636646,-3.543451309,1.48828578
14.18,1.441070437,-3.705581188,1.786867142
14.19,1.102009177,-3.881523132,1.697470427
14.2,0.61503005,-4.06127739,1.181669354
14.21,0.441137433,-4.242007732,0.848078847
14.22,0.171516031,-4.495822906,0.403336942
14.23,0.018762767,-4.554367542,0.145198226
14.24,-0.003077,-4.552047253,0.168928266
14.25,-0.243105978,-4.278512955,-0.119650841
14.26,-0.140474528,-4.114663124,-0.511134982
14.27,-0.159517944,-4.111037254,-0.481013537
14.28,-0.245376378,-3.547330379,-0.515696883
14.29,-0.371603787,-3.113036633,-0.609957576
14.3,-0.762527227,-2.477559566,-0.575958252
14.31,-0.7651003,-2.473906994,-0.550996661
14.32,-1.509413719,-1.368503571,-0.603854775
14.33,-1.058842897,-0.968740463,-0.423441768
14.34,-0.674822569,-0.568847656,0.262745857
14.35,-0.353729367,-0.118953705,0.386854887
14.36,-0.532183409,0.15203476,-0.285122871
14.37,-0.57638669,0.425333023,-0.824388027
14.38,-0.232139453,0.845850945,-0.772965312
14.39,0.01914221,1.250458717,-0.921985865
14.4,0.225480124,1.922386169,-0.414934874
14.41,-0.074766293,2.603064537,-0.247547984
14.42,-0.934703231,3.099137306,-0.313979864
14.43,-1.618842244,2.833152771,-0.223999739
14.44,-1.685203075,2.18036747,-0.618166208
14.45,-1.486220002,1.574645996,-1.306696177
14.46,-1.487653494,1.572691917,-1.317830205
14.47,-1.295939803,2.259385109,-1.268272042
14.48,-0.11331059,3.27550602,-1.361959696
14.49,0.362184107,3.961685181,-1.029737115
14.5,0.36455667,3.969844818,-0.984550595
14.51,0.344077528,4.491526604,0.229218483
14.52,0.943788767,3.407865524,1.689962029
14.53,1.180215955,2.770666122,1.440927267
14.54,1.371137381,2.000840187,1.042393565
14.55,1.341339111,1.067893028,0.649055839
14.56,1.323700666,0.365616798,0.700952888
14.57,1.148488402,0.013014793,0.914831638
14.58,1.136202931,0.0092659,0.898025751
14.59,0.775235534,0.119586945,0.373567104
14.6,0.815253496,0.395736694,0.569761753
14.61,1.142204165,0.8735075,1.160805702
14.62,1.428000689,1.325052261,1.484075069
14.63,1.427765965,1.321715355,1.4674263
14.64,1.4425354,1.739545822,1.696237206
14.65,1.503237128,2.022462845,1.456409931
14.66,0.703631282,1.621713638,0.843244672
14.67,0.440086126,0.812317848,0.891599357
14.68,0.187868044,-0.182945252,0.92155689
14.69,0.193206698,-1.020960808,1.029687166
14.7,0.181710184,-1.030508995,0.97579515
14.71,0.126805738,-1.888217449,0.82535851
14.72,-0.029928334,-2.631373882,0.366994143
14.73,0.012877382,-2.582479477,0.44391942
14.74,-0.045762435,-2.603854656,0.632998884
14.75,-0.109758228,-2.647603035,1.034729838
14.76,0.196320668,-2.62650013,1.112062454
14.77,0.601892352,-2.550261974,0.909674645
14.78,0.613136232,-2.550744534,0.905315161
14.79,0.769638538,-2.316784382,1.273193836
14.8,0.556572914,-2.186328411,0.720623851
14.81,0.566382349,-2.187143803,0.714161277
14.82,0.345029682,-2.025488377,0.429886341
14.83,0.272009522,-1.790183067,0.646838546
14.84,0.282177299,-1.791568756,0.636201143
14.85,0.293293744,-1.670477867,0.972377896
14.86,0.369377971,-1.571033478,1.051546216
14.87,0.315769762,-1.461322784,0.747483909
14.88,0.391875923,-1.157361984,0.327966213
14.89,0.453067839,-0.456170082,0.103129387
14.9,0.627135634,0.218028069,-0.058487058
14.91,0.773784161,1.229383469,-0.268023968
14.92,0.688816309,2.025525093,-0.417897821
14.93,0.453615099,2.699741364,-0.535538793
14.94,0.435058564,2.696356773,-0.556032658
14.95,0.071753576,2.791165352,-0.084038138
14.96,0.149811357,2.118153572,-0.16543293
14.97,-0.055693552,1.085159302,-0.765688777
14.98,-0.056562454,1.087192535,-0.750524163
14.99,-0.234320819,0.114006996,-0.882713437
15,-0.204477385,0.350581169,-0.95876646
15.01,-0.081659108,0.810358048,-0.873699069
15.02,-0.039401904,1.262800217,-0.344850063
15.03,-0.070191666,1.61852932,0.510016918
15.04,-0.047416285,1.848371506,0.981943607
15.05,-0.393395811,2.037441254,1.052972198
15.06,-1.281011581,2.20518589,0.925772488
15.07,-1.343532562,1.930039406,0.692571223
15.08,-0.912423313,1.429510117,0.519795775
15.09,-0.357027829,0.710037231,0.502420425
15.1,-0.358193219,0.710152626,0.503354907
15.11,0.201940984,-0.366223335,1.398561597
15.12,0.228405535,-0.682571411,1.821074128
15.13,-0.308939338,-0.896717072,1.771421671
15.14,-0.799001813,-0.98601532,1.665417671
15.15,-0.969117045,-1.014740944,1.419398546
15.16,-1.17393899,-0.947284699,0.926747084
15.17,-1.320216775,-0.7789011,0.637415111
15.18,-1.244468927,-0.600930214,0.415141106
15.19,-0.979933858,-0.255532265,0.340661168
15.2,-0.515134037,0.123080254,0.336261988
15.21,-0.729947686,0.55602932,0.311024547
15.22,-0.959902167,0.854529381,0.423637331
15.23,-0.875779986,1.075735092,1.112928867
15.24,-0.742660284,0.692876816,1.305769801
15.25,-0.750289917,0.688392639,1.27357173
15.26,-0.239768803,-0.230334282,0.915812016
15.27,-0.034383416,-0.636930466,1.237802267
15.28,0.089435428,-0.868850708,0.923538208
15.29,0.035845295,-1.078653336,0.713453293
15.3,-0.010341659,-1.046458244,0.805742025
15.31,-0.076639667,-0.923173904,0.850190878
15.32,-0.382973045,-0.737311363,1.014278412
15.33,-0.671049118,-0.445832253,1.148546219
15.34,-0.684618533,-0.36939621,0.886165679
15.35,-0.620409846,-0.347308159,0.675580382
15.36,-0.626516581,-0.348690987,0.662925124
15.37,-0.541249991,-0.419174194,0.947464109
15.38,-0.445108771,-0.451248169,1.306931496
15.39,-0.197848842,-0.569642067,1.753713012
15.4,0.116149902,-0.6665802,1.79699111
15.41,0.087854154,-0.531267166,1.603411436
15.42,0.086942442,-0.532366753,1.591834068
15.43,-0.120050728,-0.250968933,1.490965486
15.44,-0.286125392,0.162119865,1.112285972
15.45,-0.62561357,0.532286644,0.691889525
15.46,-0.620455504,0.531793594,0.685398102
15.47,-0.918497682,0.859892845,0.014879823
15.48,-0.993888021,0.553922653,0.08625263
15.49,-0.987228036,0.554717064,0.093630016
15.5,-0.919561625,-0.100157738,0.037672043
15.51,-0.754327416,-0.170639992,-8.07643E-05
15.52,-0.550891817,-0.04941082,-0.165654719
15.53,-0.355917931,0.122070313,-0.247736812
15.54,-0.35013932,0.12304306,-0.239078462
15.55,-0.290835291,0.856296539,0.089304864
15.56,-0.601589322,1.16793251,0.343384028
15.57,-0.884802938,1.034090042,0.480567157
15.58,-0.877035201,1.034421921,0.4821015
15.59,-0.557032585,0.47485733,0.233696878
15.6,-0.380223841,-0.337922096,-0.16955924
15.61,-0.096559733,-0.607145309,-0.023830175
15.62,0.235268459,-0.835820198,-0.013171434
15.63,0.237638697,-0.834588051,-0.001891136
15.64,0.157004565,-0.749526024,-0.040936351
15.65,0.127615601,-0.59516716,-0.042622566
15.66,0.281581879,-0.120090485,0.055351734
15.67,0.275820017,0.132260323,0.454121947
15.68,0.277610391,0.133228302,0.462640405
15.69,0.06208089,0.282928467,0.784751892
15.7,-0.177757889,0.141202927,-0.244525075
15.71,-0.098719031,-0.235769272,-0.1920923
15.72,0.070139632,-0.273365974,-0.209418416
15.73,0.272903115,-0.287180901,-0.299608707
15.74,0.349330366,-0.291463852,-0.090307474
15.75,0.525103688,-0.26478672,0.122335076
15.76,0.489143372,-0.219278336,0.090810061
15.77,0.273740083,-0.142703056,0.137502909
15.78,0.110139266,-0.171673775,0.151091635
15.79,0.105760604,-0.171975136,0.149452746
15.8,0.113942534,-0.234415054,0.045549154
15.81,0.072513372,-0.246165276,-0.535968781
15.82,-0.092179537,-0.14960289,-0.586592913
15.83,-0.089316547,-0.148403168,-0.576984167
15.84,-0.237902612,0.032726288,-0.586196184
15.85,0.013729021,0.281211853,-0.387214065
15.86,0.202487886,0.561043739,-0.277289152
15.87,0.112744853,0.759933472,-0.091985822
15.88,0.246591449,0.932676315,-0.011130691
15.89,0.250358403,0.935421944,0.009812951
15.9,0.31267345,0.926046372,-0.178959131
15.91,0.313076794,0.928286552,-0.161795497
15.92,0.103610829,0.446295738,-0.137218356
15.93,0.100421682,0.44681263,-0.132668734
15.94,0.055979237,-0.261890411,-0.203660965
15.95,0.010762289,-0.597470284,-0.200838208
15.96,-0.017641544,-0.823283196,-0.203104138
15.97,-0.053241909,-0.8408041,-0.217661619
15.98,-0.057536393,-0.841411591,-0.221391439
15.99,-0.01383841,-0.638191223,-0.287525654
16,-0.029978305,-0.470787048,-0.209206939
16.01,-0.034130752,-0.470965385,-0.209784865
16.02,0.259665251,-0.02810955,-0.175911069
16.03,0.241047561,0.149072647,0.059813023
16.04,0.246969715,0.228302956,0.026632905
16.05,0.24156493,0.228960037,0.032450557
16.06,0.150804162,0.241920471,-0.299243331
16.07,0.096702211,0.185691834,-0.308664918
16.08,0.052382216,0.184594154,-0.099778652
16.09,0.01208505,0.109127045,-0.097785592
16.1,0.021911606,0.115041733,-0.196715713
16.11,-0.049289882,0.156555176,0.128105879
16.12,0.076518379,0.18076992,0.810555697
16.13,0.203733653,0.08008194,0.65696615
16.14,0.19762218,0.079959869,0.656850517
16.15,-0.04476203,-0.166856766,0.452553093
16.16,-0.029029921,-0.280056,0.050622702
16.17,-0.289831877,-0.222908974,-0.765367389
16.18,-0.431354225,-0.162797928,-0.746784091
16.19,-0.478969097,-0.081280708,-0.391652226
16.2,-0.458311707,-0.014246941,-0.013207316
16.21,-0.291403651,0.024121284,0.248266578
16.22,-0.292124391,0.024227142,0.249107719
16.23,-0.141513929,0.079601288,0.31833756
16.24,-0.237075746,0.080368042,0.146382809
16.25,-0.38495335,-0.026096344,-0.333520174
16.26,-0.282907486,-0.057965279,-0.346449852
16.27,-0.283893228,-0.106490135,-0.14571631
16.28,-0.278187722,-0.104945183,-0.135598183
16.29,0.096438728,-0.170627594,0.2612468
16.3,0.066199303,-0.118794441,0.001279831
16.31,-0.012313172,-0.066712379,-0.1300354
16.32,-0.012170553,-0.065211296,-0.119921207
16.33,-0.122866601,0.053227425,-0.064403296
16.34,-0.124711633,0.054008484,-0.058813572
16.35,-0.046638638,0.126387596,-0.097763777
16.36,-0.182902902,0.126786232,-0.020445585
16.37,-0.303816021,0.12710762,-0.017792225
16.38,-0.420512915,0.072867393,-0.261036634
16.39,-0.419735193,0.074105263,-0.25297749
16.4,-0.323716998,-0.003442764,-0.270056009
16.41,-0.258317947,-0.111949921,-0.192693949
16.42,-0.209180757,-0.064674377,-0.018803
16.43,-0.140144095,-0.050909042,0.040168405
16.44,-0.159960434,-0.034730911,0.166204214
16.45,-0.158176825,-0.028294563,0.085173011
16.46,-0.154411614,-0.026644707,0.094995022
16.47,-0.012461215,-0.104132652,-0.111246109
16.48,-0.010124877,-0.102865219,-0.103632689
16.49,0.120788887,-0.027762413,-0.062542558
16.5,-0.008204147,0.068840027,-0.007123351
16.51,-0.158327997,0.048205376,0.000776887
16.52,-0.116528466,-0.041809082,-0.129965425
16.53,-0.115511984,-0.040838242,-0.124111176
16.54,-0.214246348,-0.083019257,-0.485071182
16.55,-0.288392991,-0.024905205,-0.189329267
16.56,-0.125514239,-0.005321503,0.332373142
16.57,0.023891747,-0.062643051,0.472075224
16.58,-0.04124409,-0.167621613,0.196659803
16.59,-0.170356959,-0.140638351,0.097522378
16.6,-0.034133539,-0.08031559,0.119224429
16.61,-0.031968459,-0.079991341,0.120857239
16.62,-0.01338014,-0.081503868,-0.230790258
16.63,-0.095765233,0.134765625,0.377032757
16.64,-0.085385591,0.094666481,0.320691466
16.65,-0.123622656,0.054450035,-0.014003158
16.66,-0.123237163,0.054963112,-0.011031032
16.67,-0.103051886,-0.083805084,0.015716791
16.68,-0.101710692,-0.083949089,0.014655352
16.69,-0.142328382,-0.194058418,0.088708758
16.7,-0.119624674,-0.191025734,-0.137809396
16.71,-0.175187051,-0.158660889,-0.121474028
16.72,-0.170416772,-0.157440186,-0.114956617
16.73,-0.00416705,-0.125364304,0.148630261
16.74,-0.006018385,-0.048052788,0.06132865
16.75,-0.039364696,-0.040455818,0.08248651
16.76,-0.177763641,-0.011527061,0.171766639
16.77,-0.174537092,-0.011441231,0.171814799
16.78,-0.080908477,0.062909126,0.04999733
16.79,-0.315195054,0.120596886,-0.066384673
16.8,-0.311155707,0.12093544,-0.064997315
16.81,-0.173205316,0.035168648,-0.111107826
16.82,-0.169546217,0.035758018,-0.108215451
16.83,-0.25836426,0.007644653,-0.059963226
16.84,-0.139160067,-0.05642128,0.191680193
16.85,-0.135002077,-0.055911064,0.193882346
16.86,-0.131025285,-0.031558037,0.092649341
16.87,-0.050908923,-0.043414116,0.219639778
16.88,-0.050595999,-0.05090332,0.057035685
16.89,-0.038973659,-0.005563736,0.177838206
16.9,-0.058172673,0.010946274,0.096921444
16.91,-0.055794239,0.010746002,0.095309377
16.92,-0.127535164,0.068209648,-0.019974709
16.93,-0.139235973,0.070919037,0.031596661
16.94,-0.146055877,0.059357643,0.069360137
16.95,-0.141201645,0.019138336,0.06927371
16.96,-0.089184105,-0.042604446,0.02402091
16.97,-0.171907902,-0.102100372,0.02357614
16.98,-0.229910374,0.003600121,-0.187885404
16.99,-0.277347297,0.092458725,-0.294549465
17,-0.118846238,0.121277809,0.143562913
17.01,-0.045621872,0.041984558,0.321196079
17.02,-0.045569837,0.0417099,0.319578409
17.03,0.053175837,-0.111645699,0.419327259
17.04,0.054907203,-0.111774445,0.418214083
17.05,-0.188945919,-0.080174446,-0.482202649
17.06,-0.143027782,0.006965637,-0.259423494
17.07,-0.122971922,0.064858437,0.193076253
17.08,0.009497374,0.028718948,0.335613132
17.09,0.007552952,0.028247833,0.333419561
17.1,-0.062520772,0.073145866,0.069081783
17.11,-0.062847793,0.072829247,0.06723392
17.12,-0.225595087,0.087053299,-0.005349755
17.13,-0.224589706,0.087180138,-0.004834294
17.14,-0.189755857,-0.005691528,0.03857851
17.15,-0.187629938,-0.004832268,0.043071389
17.16,0.065300375,-0.063697815,0.165854454
17.17,0.016141146,-0.062556267,0.131390333
17.18,-0.002000362,-0.078052521,0.025885105
17.19,-0.046628863,-0.043223381,0.052186012
17.2,-0.010621518,-0.058844566,-0.041882277
17.21,-0.011345446,-0.05773735,-0.035528183
17.22,-0.06077376,0.036397934,0.13186264
17.23,-0.061938435,0.036834717,0.134547591
17.24,-0.2829009,0.164069176,0.191660047
17.25,-0.283573091,0.164358139,0.193390727
17.26,-0.217089236,0.131195068,0.121221662
17.27,-0.176751643,0.021497726,0.17647171
17.28,-0.125460029,-0.001848221,0.043039918
17.29,-0.176742941,-0.039356232,-0.141847253
17.3,-0.179539383,-0.131860733,-0.156608701
17.31,-0.137006313,-0.083267212,-0.083585739
17.32,-0.095307916,-0.006124496,0.134606957
17.33,-0.025598317,0.058868408,0.263363481
17.34,-0.025981188,0.059275627,0.265693307
17.35,-0.095489115,0.131641388,0.364395738
17.36,-0.03955394,0.048178673,0.200885892
17.37,-0.034322619,-0.011388779,-0.005890012
17.38,-0.075388849,-0.046965599,-0.003976583
17.39,-0.054941356,-0.046660423,0.148689032
17.4,0.018023282,-0.041621208,0.265250087
17.41,0.016668677,-0.041316986,0.267106891
17.42,-0.341920465,-0.040440559,-0.087268114
17.43,-0.265123427,-0.063297272,-0.318976522
17.44,-0.262935549,-0.062029839,-0.312453389
17.45,0.065989286,-0.070678711,0.247800708
17.46,0.03810215,-0.021810532,0.253343105
17.47,0.036613941,-0.021164894,0.257124424
17.48,0.049572945,-0.097873688,0.55386281
17.49,-0.100366712,-0.129079819,-0.102397561
17.5,-0.021695852,0.038981438,-0.133450389
17.51,-0.034435272,0.173093796,0.13995719
17.52,-0.156612217,0.189440727,0.224351049
17.53,-0.123969346,0.203300476,0.459212661
17.54,-0.127129883,0.202362061,0.454818249
17.55,-0.127088577,0.177239418,0.597361684
17.56,-0.206533372,-0.02942276,0.119253874
17.57,-0.380217969,-0.008152962,-0.042884827
17.58,-0.290682405,0.030323982,-0.126343012
17.59,-0.122496665,-0.007555962,-0.024035573
17.6,-0.120501399,-0.007111549,-0.021904707
17.61,0.074718177,0.002735138,0.357526183
17.62,0.104079589,-0.030180931,0.276846528
17.63,0.033770263,0.049988747,0.201329112
17.64,0.035458922,0.050980568,0.20636332
17.65,0.072915584,0.05673027,0.156159997
17.66,0.092656374,-0.007002831,0.12022686
17.67,0.046903282,-0.003793716,0.138933778
17.68,0.046055138,-0.003148079,0.142473698
17.69,0.032395065,-0.016889572,0.136553526
17.7,-0.062816471,-0.056868553,0.037819505
17.71,-0.164794087,-0.046543121,0.147342205
17.72,-0.156050175,-0.017273903,0.119128466
17.73,-0.135391057,-0.002356529,0.091078639
17.74,-0.136180759,-0.00178051,0.094281554
17.75,-0.17248854,0.036879539,0.129696488
17.76,-0.11309287,0.027517319,0.140498161
17.77,-0.118203789,0.0611763,0.124525547
17.78,-0.118573487,0.061333656,0.125357628
17.79,-0.056979626,0.023158073,0.02558136
17.8,-0.057305217,0.02338028,0.026874542
17.81,-0.038233727,0.049935341,0.174104333
17.82,-0.016946524,0.069134712,0.20549202
17.83,-0.017025739,0.069173813,0.205658913
17.84,0.017170101,0.08122921,0.287380219
17.85,0.082116276,0.038320541,0.168594956
17.86,0.082089096,0.038544655,0.169757247
17.87,-0.041965455,-0.009036064,0.05399847
17.88,-0.127363235,0.046450615,-0.18825829
17.89,-0.092952877,0.152051926,0.399472475
17.9,0.206349909,0.108692169,0.754942179
17.91,0.237460345,0.110938072,0.256593227
17.92,-0.015949845,0.101622582,0.251066923
17.93,-0.093009144,0.025016785,0.354174137
17.94,-0.046743125,-0.023089409,-0.094788551
17.95,-0.046224654,0.003641129,-0.281953216
17.96,0.080032438,0.023064613,0.270114899
17.97,0.096617371,0.072604179,0.513381243
17.98,0.037880003,0.100278854,0.566074371
17.99,0.034182608,0.098881722,0.559363365
18,-0.073926479,0.049460411,0.489615321
18.01,-0.059743106,-0.126562119,-0.067165613
18.02,-0.061200619,-0.12727356,-0.070703983
18.03,-0.162899673,-0.103887558,-0.083028674
18.04,-0.044414341,-0.018269539,0.263775587
18.05,-0.009796083,0.086858749,0.439899564
18.06,-0.139901727,0.1394701,0.267382503
18.07,-0.139778972,0.139837265,0.26932931
18.08,0.135101438,0.008735657,0.05937922
18.09,0.105056718,-0.0458498,0.160268784
18.1,0.110455871,0.02877903,0.112478137
18.11,0.038582385,0.057824135,0.1312958
18.12,-0.03074044,0.105894089,0.290650249
18.13,0.005395561,0.062771797,0.293234706
18.14,0.002984703,0.062680244,0.29312253
18.15,-0.054419369,0.02917099,0.176208139
18.16,-0.20646745,0.029159546,0.193082452
18.17,-0.125037849,0.029069901,0.111248851
18.18,-0.124765456,0.028852463,0.110051394
18.19,-0.120057583,0.078753471,0.26858449
18.2,0.04060635,0.095136642,0.24972713
18.21,-0.041199386,0.109209061,0.217115879
18.22,-0.019251376,0.099616051,0.171459794
18.23,-0.01843977,0.099755287,0.172097206
18.24,-0.070435792,0.049880028,-0.015064716
18.25,-0.069693148,0.050463676,-0.012072563
18.26,0.012111723,0.007892609,0.201374888
18.27,0.040956438,-0.008479118,0.318268061
18.28,0.03803286,0.02538681,0.286629915
18.29,0.09944728,0.016334534,0.114802957
18.3,0.011794984,0.088817596,0.257234216
18.31,-0.070721537,0.046066284,0.072461724
18.32,-0.109491408,0.008218765,-0.037543654
18.33,-0.210125208,0.006295204,-0.274550557
18.34,-0.135071486,0.03074646,-0.008611917
18.35,-0.088999808,0.035694122,0.375144243
18.36,-0.038811535,0.026106834,0.478069425
18.37,-0.039153457,-0.009310722,0.150267601
18.38,-0.167789072,0.015235901,0.411871314
18.39,-0.045322806,-0.013433456,0.359033227
18.4,-0.051644713,0.029905319,-0.015994549
18.41,-0.048212111,0.030852318,-0.011690497
18.42,-0.031216383,-0.004548073,0.074240327
18.43,0.015208036,-0.050104141,0.183957815
18.44,-0.044949889,0.085738182,0.317218423
18.45,-0.046214819,0.084878922,0.313001394
18.46,-0.100033611,0.131632805,0.185198546
18.47,-0.157789648,0.140366554,-0.010600328
18.48,-0.156970143,0.140222549,-0.011631131
18.49,-0.336385638,0.138139725,-0.235488176
18.5,-0.104108036,0.023410797,0.215303898
18.51,-0.046719164,0.01893425,0.180687547
18.52,0.003723592,0.050934792,0.1225245
18.53,0.083423778,0.030702591,0.289276838
18.54,0.086844102,0.032010078,0.295418024
18.55,0.08529146,-0.012033463,0.089119554
18.56,0.047393888,-0.027392387,-0.045393109
18.57,0.071260601,-0.064518929,-0.10200429
18.58,0.084662586,-0.058925629,-0.009660482
18.59,0.022938102,0.017672539,0.035673261
18.6,-0.024880201,0.077205658,0.048362136
18.61,-0.012959659,0.03371048,0.087056994
18.62,-0.089634895,0.066900253,0.154895425
18.63,-0.089060903,0.066725731,0.153854728
18.64,-0.087961435,0.045230865,0.084584951
18.65,-0.067091078,-0.021481514,0.100260854
18.66,-0.07476905,-0.011603355,0.072734714
18.67,-0.030247629,-0.025849342,0.171179771
18.68,-0.007552028,-0.011569977,0.251957297
18.69,0.081668288,-0.011861801,0.13553524
18.7,0.003013223,0.086168289,0.115554452
18.71,-0.04905352,0.07874012,0.071096659
18.72,-0.074646741,0.080832481,0.174808502
18.73,-0.057012945,0.02532196,0.095723987
18.74,-0.056581289,0.024972916,0.09386003
18.75,0.129572123,0.048485756,0.309700608
18.76,0.104682177,0.062602043,0.229525685
18.77,-0.041818947,0.074645042,0.13178277
18.78,-0.041390508,0.074748993,0.132259131
18.79,-0.133639395,0.070156097,-0.075233459
18.8,-0.175229728,0.070137978,-0.106695175
18.81,0.03096956,0.081807137,0.123953223
18.82,-0.135166258,0.050458908,0.565919399
18.83,-0.135129124,0.050322533,0.565168977
18.84,-0.193934172,-0.016667366,0.203716874
18.85,-0.248845905,-0.155605316,0.102340698
18.86,-0.092260957,-0.107910156,-0.133878112
18.87,-0.008208305,-0.08365345,-0.010672927
18.88,-0.0072155,-0.083434105,-0.009797692
18.89,0.028488785,0.052845955,0.235901475
18.9,-0.130064964,0.152817726,0.503565669
18.91,-0.110759974,0.123149872,0.398142099
18.92,-0.133802861,0.062303543,0.244404197
18.93,-0.16345042,-0.024670601,0.122781277
18.94,-0.101809323,-0.101250649,-0.131103993
18.95,-0.047282368,-0.100503922,0.061448336
18.96,-0.023699164,-0.07359314,0.198184729
18.97,-0.021196246,-0.073060989,0.200431347
18.98,0.026249617,-0.079761505,0.190494657
18.99,0.02776733,-0.079328537,0.19252038
19,0.071141958,-0.026453972,0.169464707
19.01,0.04428792,0.023879051,0.189035416
19.02,-0.039941639,0.093379021,0.093714833
19.03,-0.055159807,0.148513794,-0.015929341
19.04,-0.034738272,0.189175606,0.103739739
19.05,-0.053254128,0.203481674,0.245093703
19.06,-0.09059009,0.136303902,0.345228314
19.07,-0.132083923,0.064394951,0.323340178
19.08,-0.131725609,0.064408302,0.323391795
19.09,-0.114219248,-0.093289375,0.176498413
19.1,-0.058452994,-0.064240456,0.130093455
19.11,-0.058550328,-0.063818932,0.1321913
19.12,0.007870078,-0.029945374,0.220368743
19.13,0.007447749,-0.029713631,0.221716285
19.14,-0.195813984,0.018391609,0.241834164
19.15,-0.190160602,-0.012742043,0.19859302
19.16,-0.11042124,0.001565933,0.310746074
19.17,-0.041096568,0.006144524,0.268922448
19.18,-0.041503102,0.006043434,0.268545032
19.19,-0.047032237,0.092200279,0.256442547
19.2,-0.244153947,0.111293793,0.34972167
19.21,-0.284423739,0.123117447,0.353614092
19.22,-0.290944904,0.017548561,0.098656416
19.23,-0.290245235,0.017661095,0.099009991
19.24,-0.275249213,-0.078115463,0.058144331
19.25,-0.293521643,-0.039863586,-0.102680326
19.26,-0.292541117,-0.039618492,-0.101711154
19.27,-0.197045118,0.063468933,-0.060266733
19.28,-0.039027303,0.05594635,0.455673456
19.29,-0.0425964,0.055272102,0.452945709
19.3,0.113227159,0.03273201,0.625782847
19.31,0.106708214,-0.001926422,0.455621004
19.32,0.08670944,-0.012568474,-0.085686445
19.33,0.083654433,-0.012483597,-0.084668636
19.34,0.079295367,0.013989449,-0.06880033
19.35,-0.064796448,0.033189774,0.339410901
19.36,-0.084545523,0.071282387,0.300929904
19.37,-0.092790306,0.075686455,0.103574514
19.38,-0.014692098,0.060970306,-0.028898001
19.39,0.080266535,0.110795975,0.065496087
19.4,0.197417527,0.150966644,0.164085269
19.41,0.345874101,0.129008293,0.387837887
19.42,0.384643257,0.064109802,0.351278663
19.43,0.338111937,0.040148735,0.416310787
19.44,0.320096165,-0.079417229,0.070141673
19.45,0.1564987,-0.119591713,0.04429853
19.46,0.311696976,-0.238890648,0.075214505
19.47,0.309565514,-0.238556862,0.077309132
19.48,0.360967398,-0.216705322,0.05312562
19.49,0.357082099,-0.216468811,0.054850101
19.5,0.459929079,-0.154427528,0.092917681
19.51,0.332353741,-0.028197289,0.396693111
19.52,0.171555787,0.004629135,0.228596211
19.53,0.168331564,0.004245758,0.227079749
19.54,0.151878864,-0.08707428,0.230457664
19.55,0.150482148,-0.087501526,0.228490949
19.56,0.168815106,-0.130916596,0.224513412
19.57,0.089086413,-0.118569374,0.166041255
19.58,0.093527019,-0.11819458,0.16733408
19.59,0.09378843,-0.038836479,0.125371933
19.6,-0.044949293,-0.000254631,0.116403818
19.61,-0.042990059,0.076571465,0.126391411
19.62,-0.03918016,0.076759338,0.126814604
19.63,-0.047093749,-0.025905609,0.106177568
19.64,-0.059884191,-0.044744492,0.186210513
19.65,-0.056058496,-0.044498444,0.186790347
19.66,-0.222408414,-0.053841591,0.060540199
19.67,-0.218805134,-0.053400993,0.062206626
19.68,-0.276066721,0.066532135,-0.21716857
19.69,-0.274767041,0.066335678,-0.218336463
19.7,-0.111904889,0.125575066,-0.082732916
19.71,-0.186794639,0.160626411,0.11166203
19.72,-0.187010318,0.159346581,0.105033398
19.73,-0.201657116,0.213305473,0.116049647
19.74,-0.161692739,0.181185722,0.50594902
19.75,-0.2538746,0.091486931,0.682298303
19.76,-0.287470758,0.069069862,0.414380312
19.77,-0.333747327,-0.038680077,0.069299579
19.78,-0.340888143,-0.023990631,-0.254960418
19.79,-0.307888925,-0.002256393,-0.043558598
19.8,-0.25217697,0.016541481,0.246430755
19.81,-0.241078019,0.113922119,0.625586391
19.82,-0.230120808,0.069911957,0.68311131
19.83,-0.230888575,-0.01680851,0.505725384
19.84,-0.190359473,-0.024313927,0.266979337
19.85,-0.226275355,-0.000592232,0.107779861
19.86,-0.231194586,0.044877052,0.162750483
19.87,-0.185869336,0.061594963,0.301430702
19.88,-0.083544493,0.085370064,0.607151508
19.89,-0.083884388,0.085264206,0.606635928
19.9,-0.308632612,0.061619759,0.249021173
19.91,-0.305285871,0.019203186,0.060961246
19.92,-0.30949986,-0.083167076,-0.089375019
19.93,-0.290843606,-0.011014938,0.017830729
19.94,-0.239706039,0.060785294,0.300516725
19.95,-0.226095498,0.129590988,0.441340923
19.96,-0.291339994,0.191192627,0.44322288
19.97,-0.338937551,0.190670967,0.191762567
19.98,-0.337842315,0.190465927,0.099946022
19.99,-0.35526073,0.128091812,0.254974127
20,-0.389055878,0.051307678,0.34985733
20.01,-0.408091724,-0.089885712,0.455591321
20.02,-0.235025317,-0.161345482,0.35448432
20.03,-0.354501724,-0.086470604,0.348326445
20.04,-0.219811499,0.024312019,0.516901493
20.05,-0.201692194,0.037197113,0.596195102
20.06,-0.18460837,0.068540573,0.463587403
20.07,-0.200218737,0.066378593,0.40541327
20.08,-0.113816559,0.059486389,0.318829894
20.09,-0.109777242,0.057596207,0.307779789
20.1,-0.181851715,0.044056892,0.245681047
20.11,-0.354575187,0.127096176,-0.034776449
20.12,-0.365729541,0.175366402,0.018989205
20.13,-0.213742048,0.176117897,0.120081186
20.14,-0.216315925,0.129015923,0.353288412
20.15,-0.21172595,0.129652977,0.355891824
20.16,-0.131099641,-0.032481194,0.36355865
20.17,-0.239777088,-0.127596855,-0.002293825
20.18,-0.560219884,-0.023654938,-0.290109754
20.19,-0.55332166,-0.022727013,-0.286575556
20.2,-0.087722212,0.051783562,0.544614792
20.21,0.189849362,-0.099644661,0.665322542
20.22,0.172392681,-0.018973351,0.592093587
20.23,-0.144332349,0.08378315,0.418180347
20.24,-0.151830941,0.165335655,0.212131739
20.25,-0.147198319,0.165675163,0.212934017
20.26,0.031696409,0.142513275,-0.011169076
20.27,0.078919858,0.185925484,0.507351399
20.28,0.006849349,0.123222351,0.595901966
20.29,0.065455049,0.025642395,0.431806922
20.3,-0.002287805,0.002409935,0.179671407
20.31,-0.095929623,0.046403885,0.01453352
20.32,-0.122143596,0.107041359,0.124086618
20.33,-0.033843905,0.117120743,0.275352597
20.34,0.060649604,0.100758553,0.332830191
20.35,0.073552489,0.056149483,0.258896232
20.36,0.070180923,0.033417702,0.287216902
20.37,0.096419752,-0.032282829,0.205715299
20.38,0.108475268,-0.004504204,0.237407804
20.39,0.108913064,-0.002780914,0.246404052
20.4,0.212441772,0.126159668,0.233151674
20.41,0.133765072,0.166824341,0.168730378
20.42,0.143302709,0.176293373,0.300356627
20.43,0.142631978,0.177939415,0.309012175
20.44,0.27458781,0.023449898,0.346474528
20.45,0.281591535,0.055181503,0.680526018
20.46,0.135808855,0.008000374,0.555256486
20.47,-0.004570395,-0.041413307,0.222462893
20.48,-0.162584037,-0.040327072,0.053139806
20.49,-0.128679276,-0.087204933,-0.095006466
20.5,-0.027999312,-0.079159737,0.009884834
20.51,-0.028497934,-0.078742027,0.012114525
20.52,-0.033464193,-0.131480217,0.31352663
20.53,0.029213071,-0.112286568,0.478816867
20.54,0.082948625,-0.040202141,0.333842754
20.55,0.084310561,-0.049406052,0.335470319
20.56,0.030583709,0.039460182,0.307865858
20.57,0.057780296,0.041929245,0.04228723
20.58,-0.095212489,0.127051354,0.017591238
20.59,-0.185311705,0.159698486,-0.003697276
20.6,-0.184704959,0.15909195,-0.006945729
20.61,0.058938503,0.160971642,0.234831929
20.62,0.012288779,0.218296051,0.131394744
20.63,-0.048590451,0.2570467,0.277490974
20.64,-0.049274623,0.257142067,0.278066635
20.65,0.14128539,0.015050888,0.185982227
20.66,0.041532546,0.087046623,-0.059459567
20.67,0.040810645,0.087652206,-0.056238055
20.68,0.033203155,0.078030586,0.910917044
20.69,-0.007321447,-0.06611824,0.34384203
20.7,-0.058626741,-0.128498077,0.084829688
20.71,-0.085055262,-0.172187805,0.220708966
20.72,0.0847781,-0.07281971,0.329498053
20.73,0.082896531,-0.074050903,0.323639989
20.74,0.202617928,0.052309036,0.158513308
20.75,0.07586211,0.085036278,0.308650851
20.76,-0.153336674,0.203884125,0.518100143
20.77,-0.158474684,0.183542252,0.452680945
20.78,-0.105306685,0.055384636,0.269335389
20.79,-0.107105553,0.054421425,0.264716029
20.8,-0.069842249,-0.08731842,0.080516815
20.81,0.024605662,-0.11414814,0.286483169
20.82,-0.050810158,-0.143129349,0.259100914
20.83,-0.096299618,-0.04004097,0.235830069
20.84,-0.106573254,-0.082648277,0.199690819
20.85,-0.17772907,-0.010057449,-0.005248308
20.86,-0.357294291,0.101330757,-0.085884929
20.87,-0.352000296,0.10251236,-0.080829978
20.88,-0.304641277,0.175181389,0.181217194
20.89,0.060933053,0.180534363,0.51185751
20.9,0.053024769,0.099585533,0.205006599
20.91,0.055241555,0.100322723,0.208346129
20.92,-0.280541867,0.026782036,-0.083566427
20.93,-0.285736799,0.108589172,-0.221284747
20.94,-0.119520098,0.070417404,-0.159003496
20.95,-0.17239061,0.082243919,-0.004612565
20.96,-0.169861108,0.081978798,-0.006450176
20.97,-0.078188419,0.206240654,0.326791763
20.98,-0.166849524,0.151693344,0.067468762
20.99,-0.160716713,0.152576447,0.070582747
21,-0.299547166,0.15831089,0.095380306
21.01,0.035169721,-0.130626679,0.119330287
21.02,-0.006304681,-0.139622688,0.068673253
21.03,-0.043633759,-0.124821663,-0.042333722
21.04,-0.005287439,-0.03358078,0.142708182
21.05,-0.003524244,-0.033727646,0.141616702
21.06,0.035129339,0.014163971,0.208499074
21.07,0.071340084,0.095533371,0.299298883
21.08,0.070922762,0.095534325,0.29940784
21.09,0.155795604,0.08840847,0.089291334
21.1,0.21310544,0.028505325,0.223776221
21.11,0.163905412,0.051984787,0.408967376
21.12,0.119047374,-0.006310463,0.300274968
21.13,-0.133757472,-0.01173687,-0.137803435
21.14,-0.235766888,0.064948082,-0.551308036
21.15,-0.234831095,0.065184593,-0.550370812
21.16,-0.277311653,0.213527679,0.267807841
21.17,-0.278056353,0.213301659,0.266801
21.18,-0.104733259,0.045731544,0.166792393
21.19,-0.209818572,-0.068589211,0.289486408
21.2,-0.233144432,-0.070552826,0.212067843
21.21,-0.125005066,-0.100985527,-0.197488546
21.22,-0.096901387,-0.092589378,0.018493652
21.23,0.131508857,0.018328667,0.407140732
21.24,0.163621396,0.157179833,0.588772893
21.25,0.163407743,0.156524658,0.585507035
21.26,0.146565437,0.150348663,0.748458028
21.27,0.013542265,0.115042687,0.387121439
21.28,0.113006055,0.032150269,0.075100541
21.29,-0.017824501,0.043204308,0.007907391
21.3,-0.016629457,0.042636871,0.004701018
21.31,-0.03670609,0.039961815,0.117831469
21.32,0.081770152,-0.065156937,0.094762921
21.33,0.075106949,0.000353813,0.02727139
21.34,0.058874547,-0.058218956,0.000261545
21.35,0.006710827,-0.080701828,-0.078544974
21.36,-0.083758682,-0.033653259,0.0968858
21.37,-0.082965195,-0.032372475,0.103222728
21.38,-0.121228278,0.073904037,0.084011674
21.39,-0.078373969,0.112804413,0.158864379
21.4,0.030760825,0.108213425,0.24631238
21.41,-0.015971631,0.098484993,0.396571517
21.42,-0.074026942,0.021479607,0.275132656
21.43,-0.073184043,0.021378517,0.274460197
21.44,-0.144933462,-0.081554413,0.130329967
21.45,-0.036467522,-0.107899666,0.084021091
21.46,-0.000124425,-0.05987072,0.158255696
21.47,0.002477586,-0.059799194,0.157965303
21.48,0.083802462,-0.026304245,0.281827688
21.49,0.04989177,0.055025101,0.185169816
21.5,0.051801115,0.055075645,0.184895754
21.51,-0.004006982,0.064563751,0.198447466
21.52,0.082831055,0.071352959,0.423757672
21.53,0.08281526,0.070879936,0.421390057
21.54,-0.04858458,-0.070615768,0.094452143
21.55,-0.079584509,-0.101751328,0.058503747
21.56,-0.167655081,-0.039646149,0.002485871
21.57,-0.051797569,0.005640984,0.173661113
21.58,0.022526979,0.079437256,0.298314095
21.59,-0.056481153,0.162869453,0.236672401
21.6,-0.055755764,0.16286087,0.236470938
21.61,-0.216355503,0.069714546,0.059793353
21.62,-0.23502788,0.036389351,-0.117102981
21.63,-0.224513859,0.0414505,-0.044676542
21.64,-0.058933109,0.024754524,0.239848256
21.65,-0.057980329,0.024456024,0.23808074
21.66,0.053890646,-0.035812378,0.284080267
21.67,0.003650337,-0.168386459,0.468589187
21.68,0.002021492,-0.221995354,0.317554116
21.69,0.204697162,-0.227745056,0.182947516
21.7,0.204485267,-0.211915016,0.175740004
21.71,0.075816453,-0.085781097,0.387777567
21.72,-0.017760098,0.025560379,0.683976054
21.73,-0.032270402,-0.016933441,0.522092223
21.74,-0.082496583,-0.021203041,0.2134974
21.75,-0.084026277,-0.022781372,0.205639601
21.76,-0.0349769,-0.048189163,-0.010133386
21.77,-0.050534695,-0.003858566,-0.047080398
21.78,-0.032290608,-0.014044762,0.028910995
21.79,0.002969712,-0.052620888,0.135361433
21.8,-0.078997344,-0.040903091,0.378406405
21.81,0.040404856,-0.046229362,0.358878851
21.82,0.0392887,-0.04673481,0.356457114
21.83,-0.033931017,-0.006171227,0.066358447
21.84,0.007628977,0.007683754,0.174129725
21.85,-0.054435045,0.062033653,0.264186263
21.86,-0.056277454,0.061262131,0.260561824
21.87,-0.083847553,0.108335495,0.232612014
21.88,-0.16825977,0.09578228,0.105116129
21.89,-0.172494769,0.054887772,-0.106835485
21.9,-0.095020205,0.052610397,-0.060945511
21.91,-0.091968298,0.064526558,0.154120326
21.92,-0.04099679,0.112322807,0.359321117
21.93,0.040891081,0.093074799,0.380283594
21.94,0.041081935,0.093166351,0.380721092
21.95,0.042188436,0.014472961,0.114011526
21.96,-0.04590115,0.000344276,0.098430157
21.97,-0.065391153,0.000328064,0.131942391
21.98,0.000378668,-0.047719955,0.129013658
21.99,0.028841466,-0.021657944,0.235913754
22,0.118900746,0.056891441,0.310966015
22.01,0.115250975,0.056411743,0.309293151
22.02,-0.01176098,0.108695984,0.322178006
22.03,-0.135726005,-0.006434441,0.096446991
22.04,-0.068057567,-0.049498558,-0.070506454
22.05,-0.130365372,-0.022997856,0.096200585
22.06,-0.056313425,0.020032883,0.165877104
22.07,0.055055827,0.127622604,0.206610918
22.08,0.012341559,0.125177383,0.209777594
22.09,-0.094433248,0.091871262,0.132855058
22.1,-0.097261727,0.092338562,0.13615942
22.11,-0.2280294,0.047590256,-0.206678391
22.12,-0.23491928,0.038590431,-0.341951489
22.13,-0.147097647,0.014899254,-0.157875896
22.14,0.036877334,0.029060364,0.395236373
22.15,0.099986166,-0.023850441,0.534292817
22.16,0.028616369,-0.040655136,0.367482543
22.17,0.071054041,-0.167598724,-0.101419091
22.18,0.067922473,-0.088224411,-0.304656863
22.19,0.070887953,-0.004203796,0.080531836
22.2,0.017061979,0.100706101,0.460194826
22.21,-0.075796336,0.159415245,0.670975208
22.22,0.066858977,0.16026783,0.434038878
22.23,0.006751209,0.072611809,0.151833534
22.24,-0.140441328,0.081158638,0.003289461
22.25,-0.109203756,0.013634682,-0.166371226
22.26,-0.121339291,-0.017356873,-0.031122327
22.27,-0.142463654,-0.076890945,0.00699079
22.28,-0.114870966,-0.057136536,0.158959866
22.29,-0.04863295,-0.106667519,0.203752518
22.3,-0.04957667,-0.105648041,0.209493637
22.31,0.06131497,-0.027867317,0.194511652
22.32,0.048051208,0.040437698,0.117763042
22.33,-0.013300002,0.048791885,0.02131319
22.34,-0.036303043,0.092926025,-0.054310083
22.35,-0.023741543,0.069810867,-0.013679862
22.36,0.016885519,0.079926491,0.111782789
22.37,-0.010166913,0.096798897,0.223089218
22.38,-0.084774256,0.113397598,0.217975617
22.39,-0.134242624,0.003383636,0.106422901
22.4,-0.175484806,-0.008109093,0.061180711
22.41,-0.189607024,-0.076863289,0.004810452
22.42,-0.188564539,-0.07612133,0.008510232
22.43,-0.037465662,-0.140089989,0.047784686
22.44,0.004012674,-0.120351791,0.103504896
22.45,0.052257657,-0.019330978,0.259095907
22.46,0.107171059,0.083866119,0.308262706
22.47,0.034913778,0.117494583,0.323233604
22.48,-0.006236345,0.08869648,0.136217833
22.49,0.043232113,0.069473267,0.140856385
22.5,0.093625069,0.052489281,0.163944721
22.51,0.064223111,0.066562653,0.234810948
22.52,0.06121251,0.066414833,0.234600544
22.53,-0.134152889,0.123968124,0.139543891
22.54,-0.153891891,0.112244606,0.050016403
22.55,-0.079814345,0.055183411,0.023398995
22.56,-0.085063219,0.000432014,0.123224378
22.57,-0.085083395,0.000617027,0.124225497
22.58,-0.10926199,-0.037364006,0.003796101
22.59,-0.185621291,-0.020089149,-0.220986128
22.6,-0.144195855,0.021180153,-0.232561708
22.61,-0.002378941,0.05739212,0.40099597
22.62,0.184900641,0.004359245,0.658054233
22.63,0.02635631,0.016238213,0.423441649
22.64,-0.116678476,-0.036314964,0.331035852
22.65,-0.090840638,-0.077360153,0.353288651
22.66,-0.090634286,-0.078140259,0.349185586
22.67,0.075743601,-0.064343452,-0.031829953
22.68,0.066478699,0.159732819,0.502031922
22.69,0.055609882,0.186951637,0.727106929
22.7,-0.001307815,0.175557137,0.624850392
22.71,-0.00457266,0.173611641,0.615230441
22.72,-0.280986548,0.03316021,0.029932141
22.73,-0.280217588,0.032286644,0.02520597
22.74,-0.128748179,0.050962448,0.118383169
22.75,-0.097448707,0.076901436,0.235815287
22.76,-0.231232345,0.069595337,0.3046031
22.77,-0.121930182,0.024212837,0.139692187
22.78,0.035278797,0.017426491,0.005080223
22.79,-0.012513161,0.018099785,0.037397146
22.8,-0.022420794,0.021138191,0.215663314
22.81,0.039028376,0.007235527,0.325945258
22.82,0.052110732,-0.049901009,0.277669549
22.83,0.050940812,-0.049651146,0.279210806
22.84,-0.076845735,-0.013421059,0.122989655
22.85,-0.078300595,-0.013295174,0.123832583
22.86,-0.032572865,-0.00381279,0.257847309
22.87,-0.034159839,-0.003975868,0.25720501
22.88,-0.109413445,0.053348541,0.187275171
22.89,-0.106971532,-0.016039848,0.137254715
22.9,-0.15629971,-0.051660538,0.174440384
22.91,-0.185638994,-0.020231247,0.106363416
22.92,-0.183584392,-0.019774437,0.108416796
22.93,-0.102586806,0.018843651,0.097758174
22.94,-0.08625716,0.016422272,0.238509655
22.95,0.034816444,0.128561974,0.341612935
22.96,0.071314529,0.104323387,0.210661411
22.97,-0.011958718,0.061160088,0.042595387
22.98,-0.09955439,-0.015433311,-0.014915943
22.99,-0.119683355,-0.013026237,0.080715537
23,-0.073381424,0.010882378,0.130704761
23.01,0.01096037,-0.008328438,0.211697221
23.02,0.072691292,-0.008331299,0.192582727
23.03,0.021467507,0.003828049,0.162647724
23.04,-0.063146055,-0.024561882,0.131014109
23.05,-0.030371755,-0.017130852,0.175498843
23.06,-0.033623546,0.018766403,0.111028791
23.07,-0.006035,0.03543663,0.077144384
23.08,-0.007634521,0.035251617,0.076473594
23.09,-0.114159823,0.054051399,-0.032959342
23.1,-0.114213914,0.053781509,-0.034399629
23.11,-0.066217929,0.058296204,0.47658062
23.12,0.043736637,-0.0473423,0.379233241
23.13,-0.02888453,-0.00398922,-0.057428122
23.14,-0.028665334,-0.003582001,-0.055251241
23.15,-0.016473293,0.043997765,0.137063742
23.16,-0.027652651,0.108045578,0.334852576
23.17,0.002024978,0.059960365,0.108482122
23.18,-0.002145439,-0.028622627,0.156384349
23.19,-0.002668589,-0.029212952,0.153363228
23.2,-0.02052328,0.027416229,0.354920745
23.21,-0.021719515,0.02627182,0.349103093
23.22,-0.142532468,0.044322968,0.348168135
23.23,-0.132650256,0.014673233,0.151662946
23.24,-0.062120855,-0.076816559,-0.057201624
23.25,-0.118399531,-0.038432121,-0.076218128
23.26,-0.093013883,0.019251823,0.080381036
23.27,-0.092051476,0.019400597,0.080957413
23.28,-0.005788624,0.105751038,0.27339983
23.29,-0.031859934,0.17096138,0.149509788
23.3,-0.042674273,0.130930901,0.073896766
23.31,0.008536071,0.078832626,0.165391088
23.32,-0.01734826,0.057700157,0.201035023
23.33,-0.016532838,0.058002472,0.202535272
23.34,-0.111186504,-0.016016006,0.27046454
23.35,-0.040314347,0.005191803,0.220571518
23.36,-0.013182938,0.081385612,0.251635552
23.37,-0.084592104,0.102424622,0.27756989
23.38,-0.147707522,0.09468174,0.257489085
23.39,-0.144928396,0.094161987,0.254172325
23.4,-0.232331246,-0.035396576,-0.039985657
23.41,-0.178399116,-0.023514748,0.064257264
23.42,-0.126959711,-0.014131546,0.105571389
23.43,0.044319391,0.059969902,0.235954046
23.44,-0.041461885,0.038232803,0.234371305
23.45,-0.074149758,0.045389175,0.269532681
23.46,-0.03725782,-0.014523506,0.163202405
23.47,0.07079196,-0.014650345,0.185993314
23.48,0.084164113,-0.019717216,0.239272595
23.49,0.084715605,-0.020155907,0.236709476
23.5,0.037013978,0.058060646,0.404819489
23.51,-0.1060206,0.050038338,0.330670357
23.52,-0.104146332,0.049290657,0.326164603
23.53,-0.137685537,-0.011328697,0.036676049
23.54,-0.102196455,-0.016700745,-0.089035988
23.55,-0.100543112,0.071269035,-0.016250014
23.56,-0.087303609,0.171048164,0.197126269
23.57,-0.028992593,0.17975235,0.318971396
23.58,-0.088294744,0.1001091,0.212381959
23.59,-0.216191828,0.0447855,-0.064576387
23.6,-0.21369651,0.044905663,-0.064421177
23.61,-0.069948882,0.05457592,0.320997
23.62,-0.068422675,0.054301262,0.319123387
23.63,0.135098562,-0.087374687,0.477264047
23.64,0.046389699,-0.161841393,0.284341574
23.65,-0.134588778,-0.099891663,0.2105968
23.66,-0.117867827,-0.0143013,0.027206898
23.67,-0.11537075,-0.01472187,0.024288297
23.68,-0.026866525,0.166924477,0.230283976
23.69,-0.012044966,0.204310417,0.579416513
23.7,-0.043446124,0.179333687,0.626296043
23.71,-0.067143083,0.135240555,0.364426971
23.72,-0.106426835,0.060236931,0.10817647
23.73,-0.103865445,0.059792519,0.105178595
23.74,-0.184108526,-0.052718163,-0.079960942
23.75,-0.144410849,-0.095714569,0.015544176
23.76,-0.015886724,-0.114612579,0.193213105
23.77,-0.012291908,-0.114179611,0.194910407
23.78,0.05074212,-0.118196487,0.236828566
23.79,0.091900647,-0.066905022,0.280135274
23.8,0.03945303,0.0038023,-0.019671917
23.81,0.015297443,0.071842194,0.004544139
23.82,-0.017051309,0.022097588,0.069527149
23.83,0.055262387,0.091665268,0.091725349
23.84,0.054643363,0.091580391,0.091405749
23.85,-0.120918155,0.177593231,0.145560861
23.86,-0.253243625,0.17743206,0.027529597
23.87,-0.255067706,0.122623444,-0.018974304
23.88,-0.253715694,0.123046875,-0.016972899
23.89,-0.260682315,-0.024987221,0.212107539
23.9,-0.151805162,-0.0916996,0.20837903
23.91,-0.097500414,-0.134407997,0.204721808
23.92,-0.057179242,-0.090987206,0.167160869
23.93,0.042711735,-0.01412487,0.244215131
23.94,0.045980096,-0.013997078,0.244037271
23.95,0.008278638,-0.023400307,0.239488602
23.96,0.011738718,-0.023200035,0.239732504
23.97,-0.02331537,-0.068537712,0.160700202
23.98,-0.044726819,-0.118983269,0.04907763
23.99,-0.043231338,-0.119330406,0.046713591
24,0.047663152,0.059720993,0.163474083
24.01,0.046732008,0.059286118,0.161360383
24.02,-0.119049311,0.011228561,0.064736128
24.03,-0.193343699,0.05171299,0.013221025
24.04,-0.166958183,0.063447952,-0.000119805
24.05,-0.186226338,0.053711891,0.075726986
24.06,-0.061562419,0.099017143,0.175192952
24.07,-0.134105831,0.005594254,0.096053839
24.08,-0.139205068,-0.082685471,-0.048216343
24.09,-0.287143618,-0.146988869,-0.237935185
24.1,-0.349776804,-0.175468445,-0.19876802
24.11,-0.26805827,-0.261711121,0.135462046
24.12,-0.237359434,-0.348199844,0.094930887
24.13,-0.032227844,-0.362884522,0.315427065
24.14,-0.031739175,-0.394607544,0.19225657
24.15,-0.129354417,-0.311227799,0.02689898
24.16,-0.32383731,-0.17764473,-0.129657984
24.17,-0.325060815,0.013389587,-0.408777475
24.18,-0.321702749,0.013088226,-0.411435723
24.19,-0.20944342,0.089317322,0.01667285
24.2,-0.179214001,0.126912117,0.225308776
24.21,-0.254591882,0.049559593,0.129806638
24.22,-0.218355149,0.001311302,0.033551574
24.23,-0.344264865,-0.049099922,-0.109406114
24.24,-0.396873564,-0.103884697,-0.245665789
24.25,-0.320723474,-0.119817734,-0.350583077
24.26,-0.315945953,-0.197468758,-0.282560229
24.27,-0.181381047,-0.239279747,-0.114709616
24.28,-0.012281477,-0.219122887,0.169217229
24.29,0.024881125,-0.175515175,0.187908292
24.3,0.02685827,-0.175035477,0.189946652
24.31,-0.208702803,-0.023785591,-0.09072423
24.32,-0.206837893,-0.023911476,-0.09190774
24.33,-0.379232824,-0.110538483,-0.190868855
24.34,-0.417102575,-0.202031136,-0.216210842
24.35,-0.499922335,-0.197772026,-0.234636664
24.36,-0.521447837,-0.238949776,-0.336978674
24.37,-0.460159898,-0.286994934,-0.315894127
24.38,-0.436646164,-0.238951683,-0.168808579
24.39,-0.498390675,-0.281585693,-0.125468612
24.4,-0.570341468,-0.32379818,-0.219351888
24.41,-0.53687191,-0.315325737,-0.249543786
24.42,-0.435514629,-0.373708725,-0.362774253
24.43,-0.411504924,-0.362494469,-0.225893259
24.44,-0.314393044,-0.351871491,-0.037065983
24.45,-0.212066472,-0.306007385,0.038384557
24.46,-0.301377654,-0.33970356,0.011112094
24.47,-0.316943526,-0.328079224,-0.08405745
24.48,-0.428566515,-0.36695385,-0.264239311
24.49,-0.46255362,-0.384239197,-0.171662808
24.5,-0.455489099,-0.385237694,-0.180125713
24.51,-0.38247174,-0.401104927,-0.049915314
24.52,-0.320263147,-0.319237709,0.09495163
24.53,-0.221343041,-0.268673897,0.124348402
24.54,-0.10407275,-0.266399384,0.149175525
24.55,0.090079784,-0.365345955,0.14913702
24.56,0.087285161,-0.369175911,0.127071142
24.57,0.299560398,-0.727793694,0.148596048
24.58,0.404896736,-0.890302658,0.161802888
24.59,0.152160108,-1.115252495,-0.029683948
24.6,0.144907057,-1.119971275,-0.057229996
24.61,0.025737107,-1.357085228,-0.431546688
24.62,0.156013757,-1.520265579,-0.637557745
24.63,0.754831314,-1.466014862,-0.276173711
24.64,1.03000617,-1.177304268,-0.272757411
24.65,1.343148947,-0.78379631,-0.495881677
24.66,1.460870385,-0.25417614,-0.870010734
24.67,1.209720492,0.133719444,-0.998461366
24.68,1.105989218,0.437544823,-0.773374558
24.69,0.957616568,0.801044464,-0.80243206
24.7,0.771300852,1.114642143,-1.204151511
24.71,0.734883368,1.108236313,-1.249632001
24.72,0.320968658,1.310880661,-1.767477512
24.73,0.21677433,1.229614258,-1.965156436
24.74,0.1838523,1.225854874,-1.993644238
24.75,-0.203888983,0.99313736,-1.733291388
24.76,-0.226742625,0.990924835,-1.751077175
24.77,-0.545605958,0.266179085,-1.224749207
24.78,-0.509022951,-0.182491303,-1.04723835
24.79,-0.369021833,-0.822330475,-0.854530454
24.8,-0.128000647,-1.349449158,-0.923930109
24.81,0.073583916,-1.618048668,-0.762264252
24.82,0.116808519,-1.836814404,-0.529115498
24.83,0.86106056,-2.108956337,-0.474480808
24.84,1.032118559,-2.030290604,-0.090426743
24.85,0.788522601,-1.796632767,0.290685296
24.86,0.690573454,-1.596888542,0.216354668
24.87,0.665193558,-1.48340416,-0.212465465
24.88,0.625396848,-1.353064537,-0.584299684
24.89,0.379511148,-1.184234619,-0.8293432
24.9,0.263875037,-0.94579792,-1.051201463
24.91,0.245653719,-0.948710442,-1.112986803
24.92,0.194368869,-0.905581474,-1.507775068
24.93,0.027446009,-0.691924095,-1.597481847
24.94,0.043790337,-0.698113442,-1.23958528
24.95,0.232593685,-0.761392593,-0.861447036
24.96,0.217905819,-0.762106895,-0.897319436
24.97,0.300498396,-0.391508102,-0.534682334
24.98,0.292757869,-0.391840935,-0.56330502
24.99,0.516204238,0.218467712,-0.58532542
25,0.555570483,0.881504059,-0.304972678
25.01,0.449418902,1.640433311,-0.174462184
25.02,0.445344776,1.640493393,-0.212727919
25.03,0.003248919,2.864195824,-0.743587136
25.04,-0.398209184,3.161493301,-0.89215219
25.05,-0.393571585,3.162124634,-0.935191155
25.06,-0.557553947,3.285092354,-0.721242666
25.07,-0.765081525,3.137619019,-0.652840376
25.08,-0.839936018,2.631017685,-1.298093796
25.09,-0.767288804,2.92650032,-1.460205078
25.1,-1.156741738,3.997792244,-1.114876747
25.11,-1.113595247,3.99913311,-1.13418591
25.12,-0.77948916,4.946435928,0.014998555
25.13,-0.7105515,6.509158134,2.16387558
25.14,-0.480208188,6.798056602,2.92690587
25.15,-0.054897666,6.421281815,3.748405695
25.16,0.263117641,5.732985497,4.116242886
25.17,-0.00051555,4.606101036,3.341370583
25.18,0.025487483,4.606395721,3.36230588
25.19,-1.739865422,2.530973434,2.053450584
25.2,-2.355358124,1.473534584,2.205579042
25.21,-2.313725948,0.744638443,2.426175117
25.22,-2.293903828,0.746269226,2.409801722
25.23,-2.800109625,0.360153198,2.058969259
25.24,-2.647395611,0.701910019,1.138998032
25.25,-2.224578619,0.914167404,0.237698168
25.26,-1.794974089,0.965963364,-0.574255884
25.27,-1.797305942,0.967504501,-0.608435929
25.28,-1.17697382,0.705789566,-0.800840855
25.29,-0.517332077,-0.06529808,1.591808796
25.3,-0.666378498,-1.005246162,2.628855944
25.31,-0.365491331,-2.315717697,2.430230856
25.32,0.496451736,-4.040450096,1.599756598
25.33,1.209953785,-5.662642479,-0.040589631
25.34,1.08190465,-6.766155243,-0.926336408
25.35,1.006528974,-7.697710514,-1.329524755
25.36,1.401247382,-8.332133293,-1.237905025
25.37,1.618066907,-8.48257637,-0.714123607
25.38,1.68209064,-8.512954712,-0.06958133
25.39,1.638964891,-8.509422302,-0.114271462
25.4,1.365767717,-7.538321495,1.295726299
25.41,1.33594358,-7.535074234,1.262139916
25.42,0.496239305,-6.818899155,1.0659343
25.43,0.25096935,-6.938908577,0.186422586
25.44,0.050442405,-6.89610672,-0.594168663
25.45,-0.158658832,-6.943405151,-1.314108968
25.46,-0.184472784,-6.938163757,-1.356480241
25.47,0.115850046,-6.945333004,-2.172830343
25.48,0.046380207,-5.506455421,-1.654159784
25.49,0.313912958,-4.317260742,-1.082918286
25.5,0.217657253,-2.842711449,-0.709049881
25.51,0.203550696,-2.831916809,-0.77416569
25.52,-0.601438224,-0.951983452,-0.196207047
25.53,-1.607188344,1.846693039,-0.935949862
25.54,-1.63350749,2.897289276,-1.760733128
25.55,-1.619597673,2.897446632,-1.761440039
25.56,-1.406586409,4.776207924,-2.20721221
25.57,-1.408119321,4.775921822,-2.205641747
25.58,-1.822408676,6.138035774,-2.807745695
25.59,-2.303490162,6.592372894,-3.398404598
25.6,-2.309486389,6.696855545,-2.957704782
25.61,-1.98343873,6.205355644,-1.766334414
25.62,-1.124679685,5.122331619,-1.165574551
25.63,-0.249356896,4.649448395,-0.558279157
25.64,0.877149284,4.571983337,0.894461036
25.65,2.272300482,4.450624466,2.381545544
25.66,2.8081882,4.360679626,3.101752281
25.67,2.863385201,4.015083313,4.006619453
25.68,2.905653238,3.445683479,5.026640892
25.69,2.870908737,3.444313049,5.037582397
25.7,3.282670975,1.201909065,5.822536945
25.71,3.625838995,0.073098183,6.039760113
25.72,3.945470572,-0.777589798,4.987721443
25.73,3.896863461,-0.775408745,4.982847214
25.74,3.918078899,-0.454334259,3.469631195
25.75,2.004582167,2.389522552,-0.613845944
25.76,1.834508061,4.064235687,-0.858111918
25.77,1.922659159,5.060336113,0.260722995
25.78,2.31758666,6.145035744,1.648750663
25.79,2.766555786,7.356795311,1.856779337
25.8,2.684559584,8.283549309,2.120396614
25.81,2.410910368,9.214236259,2.639479637
25.82,2.406072855,9.222240448,2.587230682
25.83,2.190848827,9.388683319,2.516063213
25.84,1.201496124,8.25370121,0.607530952
25.85,0.027029246,7.154323578,-0.815781295
25.86,0.03402248,7.163777351,-0.870869696
25.87,-1.473226786,4.8408041,-2.814707279
25.88,-0.930809617,3.134768486,-2.037782431
25.89,-0.691220462,0.603649139,-0.295887828
25.9,-0.726103663,-1.510781288,1.238102913
25.91,-0.351932257,-3.401780128,2.440272331
25.92,0.018726319,-5.046107292,3.665577412
25.93,0.482330412,-6.414966106,4.356744766
25.94,-0.243987411,-7.590013981,4.786562443
25.95,-0.22825852,-7.585876942,4.766267776
25.96,-0.213159919,-8.942610741,0.193218708
25.97,0.255779177,-8.603089333,-0.783191562
25.98,-0.751374722,-8.974033356,-1.379426837
25.99,-3.068468332,-8.698814392,-1.724355936
26,-4.427228928,-8.956263542,-1.391722679
26.01,-2.985316277,-10.24329281,-0.788337231
26.02,-1.831471443,-11.28266907,-0.959775686
26.03,-2.309093475,-11.98261833,-1.474502087
26.04,-2.301702976,-12.69600582,-2.048876762
26.05,0.499268502,-13.11948109,0.091116071
26.06,1.404298306,-13.22176552,1.968609452
26.07,-0.109500609,-12.02122307,2.500969172
26.08,-0.596945882,-10.27672672,0.745980263
26.09,-1.832679272,-8.442594528,-0.857401609
26.1,-2.000871181,-6.810196877,-1.796581507
26.11,-1.968142629,-6.822793961,-1.734269142
26.12,-0.438362718,0.586084366,-1.9506042
26.13,-0.523139119,4.204735756,-1.987969279
26.14,-1.0513587,8.949132919,-2.961422205
26.15,-2.093055725,14.27635956,-2.160892725
26.16,-4.032329559,17.88365173,3.088764668
26.17,-6.202755928,20.24392319,11.14842129
26.18,-6.239535332,20.26540375,16.75157547
26.19,-3.135160923,18.53824806,13.71640491
26.2,-3.129801273,18.53093338,13.75506783
26.21,-0.101567984,15.76243973,3.927267075
26.22,-1.110228419,10.80056953,-6.148595333
26.23,-1.707158089,8.988463402,-4.192541122
26.24,-0.649730146,6.455967903,-2.342999935
26.25,0.762675405,5.103592873,-1.625176311
26.26,1.883201003,2.14642334,-0.422822475
26.27,1.837536931,2.150157928,-0.447372675
26.28,2.489564419,-1.645013809,3.688770056
26.29,2.777154922,-3.377096176,3.949758053
26.3,2.741812944,-3.377063751,3.949825287
26.31,0.835886776,-4.928871155,2.071995735
26.32,-0.301764131,-6.297219276,-0.330450058
26.33,-0.723320365,-7.470103264,-1.027980685
26.34,-0.011136666,-9.627638817,-1.151119828
26.35,0.960688472,-11.35847473,-0.99424845
26.36,1.890847445,-12.31767845,-0.233177424
26.37,2.165850163,-13.11144352,-0.031822801
26.38,1.258816004,-13.62949562,0.518084526
26.39,0.746486306,-13.94582844,0.134476304
26.4,0.740723252,-13.95183945,0.180056691
26.41,0.663548291,-13.37821198,-0.48039639
26.42,0.682388008,-12.25293255,-1.240671992
26.43,1.095615029,-11.18759727,-2.410745144
26.44,0.328488231,-9.901137352,-2.418622732
26.45,0.506941497,-8.688435555,-2.53733778
26.46,0.445767939,-6.581853867,-2.744544983
26.47,1.61980176,-2.132615566,-0.690908134
26.48,3.408887863,1.292898178,0.842322111
26.49,6.07282877,3.999593735,-0.436255693
26.5,7.315277576,7.483295441,-0.396838665
26.51,5.554349899,10.94824409,1.914777994
26.52,2.628779888,13.54801178,6.788865089
26.53,0.559016228,14.50749683,8.762713432
26.54,0.476907849,15.21268654,7.710631847
26.55,1.265479684,15.06365871,3.472507238
26.56,1.244062424,15.06817532,3.462053776
26.57,-0.769521475,14.94651127,0.905671477
26.58,-2.316906929,14.70552635,0.198992252
26.59,-2.16555953,14.17244053,-0.286894918
26.6,-1.079899192,12.75561142,0.928084016
26.61,-0.101078272,10.31814861,3.288075686
26.62,-0.280095279,7.854150772,5.418289185
26.63,-1.229789853,5.808080673,5.601330757
26.64,-1.095713258,2.778319359,2.9421103
26.65,-1.043252468,2.772662163,2.945483685
26.66,-0.914603055,-0.995656967,2.178481579
26.67,-0.634493589,-3.924275875,2.534259796
26.68,-0.663184345,-8.914031029,1.803786635
26.69,-0.927543581,-10.49404907,1.471312284
26.7,-0.839516938,-10.50573063,1.50607729
26.71,-1.48676312,-11.82866573,0.530735254
26.72,-2.571961403,-13.69482422,-3.382908106
26.73,-2.334571838,-13.91751575,-3.939796925
26.74,-2.537780285,-14.17659378,-2.400799751
26.75,-2.532864094,-14.13610077,-0.962123334
26.76,-2.069787502,-13.98696899,0.575624585
26.77,-2.083020687,-13.98283768,0.552146912
26.78,-2.429910183,-11.7691679,0.274500847
26.79,-2.534790277,-10.19532013,-1.483045101
26.8,-2.522474527,-10.1967659,-1.476152182
26.81,-4.166999817,-6.690863132,-2.347773314
26.82,-4.327633381,-4.919232368,-1.143943071
26.83,-2.649351835,-1.41912365,-0.52674377
26.84,-0.048766218,0.905173302,1.879517436
26.85,1.304968953,2.687324524,3.687865496
26.86,1.035377264,6.342472076,2.784654617
26.87,-0.207543999,10.79503822,1.884338975
26.88,-0.458148927,14.22988605,5.861004353
26.89,-1.437678814,17.53519058,10.16902828
26.9,-1.685668468,20.48330688,12.77560425
26.91,-2.825699568,21.28566742,12.14157867
26.92,-4.178575993,19.91444778,6.435627937
26.93,-5.900038242,17.63256454,-1.864610672
26.94,-5.18988657,14.46452904,-5.724867821
26.95,-3.516367197,10.29586601,-3.919068336
26.96,-1.486783147,6.9911623,-1.597890019
26.97,-0.032937225,3.697719574,0.629953742
26.98,1.153655887,1.118811607,2.308767319
26.99,1.137424469,-0.648841858,2.978918552
27,1.22375679,-2.399153709,3.008462191
27.01,1.177017212,-2.405691147,3.050521851
27.02,2.948226452,-5.8943367,1.415560484
27.03,2.963379145,-7.769075394,0.851102471
27.04,2.11643219,-9.245070457,0.426486731
27.05,2.10871315,-9.25561142,0.491757155
27.06,0.928020597,-11.12993526,-0.155523777
27.07,0.952771068,-11.14343548,-0.07201755
27.08,-0.92959106,-12.30729485,-3.898873091
27.09,-0.906517327,-12.32160282,-3.793344736
27.1,2.383414745,-13.69094563,-0.27424705
27.11,4.400743961,-14.257967,2.859673977
27.12,4.290925503,-14.2423172,2.776243448
27.13,5.273135185,-12.70343685,4.119170189
27.14,2.952192307,-10.76659203,1.052234769
27.15,-1.143899083,-8.999026299,-2.90191555
27.16,-1.166914344,-8.996984482,-2.902737856
27.17,-6.346903324,-7.725573063,-8.405199051
27.18,-6.017804146,-4.371771336,-6.851183414
27.19,-6.019340515,-4.373547077,-6.838083744
27.2,3.555960417,1.68625164,-1.792209625
27.21,9.13037014,2.764451027,-1.037670612
27.22,8.564544678,4.807538033,2.085340023
27.23,6.432478905,9.649710655,5.901612282
27.24,4.989504814,13.75281334,7.850893974
27.25,2.177877426,17.62319183,9.450876236
27.26,2.082402229,20.4153347,8.178304672
27.27,1.683498979,21.88757133,4.226247787
27.28,0.952677846,21.14913559,2.626889229
27.29,-0.077970982,19.47411728,2.486972094
27.3,-0.982203841,16.69200516,2.846738815
27.31,-0.913853884,12.04041672,3.237982273
27.32,-0.864472866,7.849843979,3.127851725
27.33,-1.636237144,3.999458313,2.30124712
27.34,-1.581188917,3.98081398,2.359201908
27.35,-2.259768009,-1.506368637,0.593421221
27.36,-3.0372684,-5.646369934,3.576841831
27.37,-2.693807125,-7.051570415,4.369831085
27.38,-1.384756446,-8.770742416,5.057839394
27.39,1.081021547,-10.47589684,1.275643349
27.4,-0.840962291,-12.27135468,-0.716442168
27.41,-3.028730869,-13.37822914,-1.590943098
27.42,-3.063111305,-14.04738045,-3.458795547
27.43,-3.076030016,-14.31585884,-3.75587678
27.44,-3.468416214,-14.14472198,-2.521766186
27.45,-3.466793537,-14.14205742,-2.539523125
27.46,-3.466179848,-14.12387657,-1.620206833
27.47,-3.79684782,-14.15079308,-0.334283114
27.48,-2.905086279,-12.79249477,1.188626766
27.49,-3.390125513,-11.11966228,-0.316220164
27.5,-4.04279089,-8.686676025,-1.933102369
27.51,-4.521810532,-6.519431591,-2.280379057
27.52,-4.500272274,-6.519296169,-2.288360596
27.53,-4.619326591,-4.18833065,-2.051361084
27.54,-1.511014938,2.676667213,2.104926109
27.55,-1.511593103,2.682736397,2.072549105
27.56,0.294462264,3.72573185,3.626959801
27.57,1.67241025,6.926532745,3.645447969
27.58,0.676182509,11.01156712,3.398811817
27.59,-1.066962838,17.07445526,9.825899124
27.6,-3.407768488,19.21142387,12.07347202
27.61,-3.380100489,19.22779846,12.00140858
27.62,-4.55497694,17.86584091,3.94570756
27.63,-4.279428482,15.64934921,-1.787192345
27.64,-3.174227953,12.91515255,-3.297970057
27.65,-3.166463137,12.90886307,-3.273164988
27.66,-1.006654263,7.839204788,-1.30750227
27.67,1.236148953,4.615510941,-0.15341568
27.68,1.577540636,3.079357147,0.54560256
27.69,2.043004274,0.181422234,2.423374176
27.7,2.0084095,0.189099312,2.39951086
27.71,1.92095542,-3.70935297,4.910167217
27.72,1.887377024,-3.711213589,4.925054073
27.73,1.793608665,-7.6570611,1.64810729
27.74,1.700351477,-9.983346939,0.25199461
27.75,1.36088562,-11.4987793,-0.797488451
27.76,0.849384785,-13.17796135,-2.053387642
27.77,0.476058126,-14.29330635,-3.763234138
27.78,0.477569103,-14.31254768,-3.676543236
27.79,0.73746556,-14.90687561,-4.190336227
27.8,1.460263968,-14.79645348,-0.367150664
27.81,2.28917408,-14.39115334,2.594207048
27.82,2.231702805,-14.36742401,2.509087086
27.83,1.213539362,-11.68474102,1.037901163
27.84,-0.400215507,-10.27541924,-3.613643169
27.85,-1.746037722,-8.981479645,-8.340864182
27.86,-2.633708477,-6.689293861,-9.500556946
27.87,-2.637294292,-6.691240311,-9.490953445
27.88,2.559519291,2.792305946,-2.268671989
27.89,8.564231873,5.76839447,2.658944368
27.9,12.66411209,8.757184982,3.372169018
27.91,12.50030422,8.778967857,3.369690657
27.92,5.965537071,13.71740818,6.134799957
27.93,2.40208292,15.42085075,5.575590611
27.94,-0.350913882,17.26123428,5.906888008
27.95,0.177373886,16.59202194,4.415026665
27.96,-0.675513625,15.76559448,1.126401901
27.97,-1.974239826,14.77747154,-0.659384131
27.98,-2.014912367,13.95237446,-1.534635067
27.99,-1.343274832,12.28596687,-0.410696745
28,-1.427439451,10.18824196,4.66570425
28.01,-1.369917512,10.1944952,4.617257595
28.02,-0.655392945,3.904996872,9.556024551
28.03,-0.90693295,-0.245991707,9.445982933
28.04,-0.859390497,-2.657730103,6.839456558
28.05,-1.971689224,-6.742655277,2.508087397
28.06,-3.312156916,-9.513775826,-0.415759206
28.07,-3.597315788,-11.70226192,-2.703318357
28.08,-3.244796515,-12.85008049,-5.418610096
28.09,-3.192887068,-12.86230278,-5.377465248
28.1,-3.007389069,-12.46472359,-5.189921379
