Time (s),Linear Acceleration x (m/s^2),Linear Acceleration y (m/s^2),Linear Acceleration z (m/s^2)
0,-0.05817169,0.177576065,-0.089694977
0.01,-0.061613441,0.096288681,-0.02738893
0.02,-0.062900245,0.096343994,-0.025214493
0.03,0.018578768,-0.013875961,0.016840994
0.04,-0.079826653,-0.016497612,0.0670138
0.05,-0.072906494,-0.012008667,0.030366719
0.06,-0.154434502,-0.005075455,0.063292384
0.07,-0.269549727,-0.00507164,0.039587855
0.08,-0.318768263,-0.055176735,-0.043094158
0.09,-0.316691756,-0.054785728,-0.040598571
0.1,-0.053928018,-0.087881088,-0.087356031
0.11,-0.15985167,-0.046759605,0.080990434
0.12,-0.137867808,0.035043716,0.123675525
0.13,-0.135242105,0.035438538,0.125689507
0.14,-0.013638556,0.040629387,0.126115561
0.15,0.09340924,-0.006889343,0.033092678
0.16,0.004023731,-0.016119957,0.047548532
0.17,-0.116901755,0.031977654,-0.015832841
0.18,-0.02926439,0.00831604,-0.152856588
0.19,-0.035769165,-0.089647293,-0.167613328
0.2,-0.052022576,-0.099068642,-0.135269046
0.21,-0.015558422,-0.031983376,0.0225178
0.22,-0.158977628,0.03013134,0.137984633
0.23,-0.162636221,0.087510109,0.157420039
0.24,-0.261794448,0.118634224,0.24704963
0.25,-0.294978797,0.099581718,0.362683028
0.26,-0.138428092,0.087708473,0.333958834
0.27,-0.051849127,0.066232681,0.202618957
0.28,-0.049179614,0.0663414,0.201046586
0.29,-0.022268355,0.049685478,0.275875092
0.3,-0.045674264,-0.005192757,0.274902105
0.31,0.036539435,-0.033640862,0.100274622
0.32,-0.005754471,-0.038020134,0.051483393
0.33,-0.002411902,-0.037593842,0.052846789
0.34,-0.042664289,-0.027739525,0.103452683
0.35,-0.12757194,-0.041967392,0.194620729
0.36,-0.006995142,-0.037083626,0.048822761
0.37,-0.007813752,-0.037128448,0.049224615
0.38,0.047753513,0.034440041,0.33067444
0.39,0.177080393,0.002817154,0.502057493
0.4,0.299774528,-0.165581703,0.637999654
0.41,0.294208407,-0.16662693,0.631429672
0.42,0.084423363,-0.213018417,0.475984633
0.43,-0.06022799,-0.132127762,0.286240608
0.44,-0.534495235,0.090519905,-0.15691644
0.45,-0.45613575,0.220173836,-0.231159747
0.46,-0.455013454,0.220350266,-0.230233014
0.47,-0.062262654,0.25364399,-0.070174873
0.48,0.226722837,0.231602669,0.741118193
0.49,-0.019741237,0.250240326,0.950338185
0.5,-0.062581301,0.084750175,0.706989169
0.51,-0.089613676,-0.133069992,0.293991149
0.52,-0.086329877,-0.132443428,0.298378527
0.53,-0.254245222,-0.38775444,0.120065332
0.54,-0.249350727,-0.386776924,0.126642704
0.55,-0.142426848,-0.49594307,-0.260606289
0.56,-0.140107215,-0.494962692,-0.251241088
0.57,-0.134488225,-0.240296364,-0.531294167
0.58,-0.154784858,-0.11060524,-0.304864109
0.59,-0.21912694,0.045072556,-0.103349328
0.6,-0.108918011,0.186186791,-0.035624325
0.61,-0.018488765,0.190671921,0.148279548
0.62,-0.248681366,0.338740349,0.491535902
0.63,-0.249112427,0.338545799,0.489592969
0.64,-0.157908022,0.122948647,0.734647274
0.65,-0.13258791,0.084798813,0.555596948
0.66,-0.130097866,0.085291862,0.558712363
0.67,-0.20024544,-0.067139626,0.348355383
0.68,-0.174238145,-0.265028,-0.16362679
0.69,-0.170746803,-0.264253616,-0.158159196
0.7,-0.059391201,-0.316378593,-0.461986423
0.71,-0.00232929,-0.280404091,-0.487121642
0.72,0.043878078,-0.137109757,-0.147249997
0.73,0.015366614,0.029884338,0.082626224
0.74,-0.046677232,0.091534615,0.357965648
0.75,0.035117149,0.090946198,0.37015754
0.76,0.031898201,0.090377808,0.366516829
0.77,0.216325879,0.082539558,0.270606816
0.78,0.183146119,0.084384918,0.235218525
0.79,-0.034114897,0.057654381,-0.102807283
0.8,-0.161830664,0.064741135,-0.31129396
0.81,-0.159264982,0.088694572,-0.47866708
0.82,-0.164233506,0.062300682,-0.361719191
0.83,-0.193225443,-0.012150764,0.088430464
0.84,-0.081692517,-0.084600449,0.604160309
0.85,-0.05968827,-0.140621185,0.748165131
0.86,-0.033760607,-0.136585236,0.555132806
0.87,-0.0038535,-0.038878441,0.280228853
0.88,-0.003857315,-0.039039612,0.278263986
0.89,0.125065625,0.016103745,-0.129799187
0.9,0.040301859,0.028209686,0.049885094
0.91,0.112745643,0.039941788,0.360343784
0.92,0.0650388,0.072978973,0.512259007
0.93,0.063319147,0.072455406,0.507614136
0.94,-0.002478063,-0.064335823,0.083484173
0.95,-0.002824962,-0.064538956,0.081498563
0.96,-0.079566598,-0.093527794,0.351297081
0.97,-0.04732132,-0.08667469,0.465738446
0.98,0.140033245,-0.139652252,0.343929261
0.99,0.232780755,-0.18537426,0.274579227
1,0.231576324,-0.185658455,0.272303402
1.01,0.096701384,-0.190732956,0.267194033
1.02,-0.057851136,-0.18623066,-0.132524431
1.03,-0.058787823,-0.186486244,-0.134953678
1.04,-0.184015572,-0.016882896,-0.033547044
1.05,-0.15918076,0.080810547,-0.102948427
1.06,-0.103811622,0.09946537,0.005565405
1.07,-0.105807483,0.09906292,0.002552748
1.08,-0.213938773,0.197001457,0.225224197
1.09,-0.120208442,0.1466856,0.252858639
1.1,-0.143368244,0.096493721,0.068901002
1.11,-0.141992569,0.096693993,0.070047855
1.12,-0.023143113,-0.046824455,0.153841376
1.13,0.013643086,-0.104311943,0.1525563
1.14,0.014958858,-0.104348183,0.150765598
1.15,-0.033670545,-0.094856262,0.154898644
1.16,-0.039325655,-0.056655884,0.364771605
1.17,-0.023238659,-0.133537293,0.507695198
1.18,0.016894042,-0.102711678,0.369824171
1.19,0.035493732,-0.102906227,0.2118904
1.2,0.024554372,-0.014368057,0.14780736
1.21,0.008397639,0.026290894,0.13445127
1.22,0.001229465,0.052554131,0.157526255
1.23,-0.025784731,0.004570007,0.063437045
1.24,-0.148650885,0.064356804,-0.068125069
1.25,-0.147763252,0.064491272,-0.067494035
1.26,-0.144659698,0.083837509,-0.216369033
1.27,-0.142507136,0.016842842,0.332787305
1.28,-0.035510898,-0.012131691,0.85472703
1.29,-0.005207717,-0.015042305,0.77175647
1.3,-0.107873976,-0.087236404,0.242175281
1.31,-0.10498935,-0.039011002,-0.264224351
1.32,-0.133581579,0.026090622,-0.471425355
1.33,-0.201899171,0.079037666,-0.155586064
1.34,0.034359813,0.004599571,0.374132931
1.35,0.150749743,-0.010437012,0.696545363
1.36,0.146894515,-0.011317253,0.688956499
1.37,0.090098381,-0.043028831,0.637434483
1.38,-0.133419693,-0.072203636,0.227479667
1.39,-0.078629017,-0.010320663,0.198554754
1.4,0.035526633,-0.036990166,0.118041217
1.41,-0.035448432,0.017812729,0.130387664
1.42,-0.03666687,0.055962563,0.117778301
1.43,-0.037612617,0.01285553,0.030183852
1.44,-0.134260118,0.051321983,-0.13893503
1.45,-0.134745002,0.051615715,-0.134121478
1.46,-0.089810491,0.013647079,-0.109488547
1.47,-0.102609575,-0.048400879,0.093356848
1.48,-0.057966769,-0.021952629,0.248898149
1.49,-0.135456801,0.028395653,0.174465358
1.5,-0.13571018,0.028539658,0.176689148
1.51,-0.238419354,0.076647758,0.01427561
1.52,-0.221055389,0.065008163,-0.156602085
1.53,-0.246361017,0.019987106,-0.060324788
1.54,-0.245154858,0.020330429,-0.056919634
1.55,-0.180088878,-0.092058182,0.066521943
1.56,0.029865861,-0.147238731,0.231135637
1.57,-0.032704175,-0.08757019,0.346183986
1.58,-0.051963568,-0.039962769,0.380679846
1.59,0.000661969,-0.045064926,0.230497629
1.6,0.029150963,0.002622604,0.036626339
1.61,-0.050344408,0.067171097,-0.021851003
1.62,-0.000763357,0.076594353,0.017735004
1.63,-0.002533019,0.076376915,0.016668797
1.64,-0.013972104,0.100049019,0.175572753
1.65,0.029253781,0.080637932,0.282321185
1.66,0.091758668,0.075653076,0.262813032
1.67,-0.134644926,-0.104123116,0.254620463
1.68,-0.142164707,-0.106638908,-0.046271682
1.69,-0.209394932,-0.058793068,-0.266815841
1.7,-0.202751041,0.00825119,-0.03617698
1.71,-0.037582576,-0.011240005,0.423865527
1.72,-0.042070568,-0.011924744,0.419444531
1.73,0.087091267,-0.091629028,0.508762598
1.74,0.050374925,-0.111346245,0.430313408
1.75,-0.004063487,-0.047165871,0.21480605
1.76,-0.072203517,0.002749443,-0.119435728
1.77,-0.125452757,-0.004595757,-0.078267455
1.78,-0.146348238,0.071640015,0.516936481
1.79,-0.031225979,0.071013451,0.694551706
1.8,-0.153727889,0.036806107,0.565733731
1.81,-0.155126333,0.036399841,0.561136425
1.82,-0.330270529,-0.066725731,-0.10174036
1.83,-0.329138935,-0.066628456,-0.101701498
1.84,-0.115180135,-0.042551994,-0.227674544
1.85,0.028639138,-0.009026527,0.107644618
1.86,0.028011382,-0.009165764,0.106036902
1.87,0.008571386,0.045655251,0.454680234
1.88,-0.005351543,0.069515228,0.560541272
1.89,-0.148296654,0.069561958,0.282741696
1.9,-0.102018654,0.00743866,0.152127743
1.91,-0.145009279,0.022017479,0.076098263
1.92,-0.145707786,0.022193909,0.079597235
1.93,-0.109403908,-0.018479347,0.005981684
1.94,0.211756945,-0.021076202,-0.075554311
1.95,0.133257508,0.048113823,0.129325032
1.96,-0.013255,0.069412231,0.299089134
1.97,-0.079430997,0.059634209,0.429605156
1.98,-0.151519358,0.035568237,0.435240448
1.99,-0.227402926,-0.026767731,0.476191938
2,-0.149762571,-0.08672142,0.325222939
2.01,-0.12280333,-0.082022667,0.215065032
2.02,-0.067341626,-0.043874741,0.11410284
2.03,-0.067369103,-0.044026375,0.11180073
2.04,-0.0487234,-0.034640312,0.16705817
2.05,0.0492329,-0.046813965,0.154662192
2.06,0.041494489,-0.020688057,0.154180676
2.07,0.026729584,0.010219574,0.141953617
2.08,0.026374757,0.033994675,0.182787597
2.09,0.073244333,0.067288399,0.261922956
2.1,0.015771329,0.066910744,0.35490638
2.11,0.012857795,0.066453934,0.350978971
2.12,-0.08577323,0.082700729,0.092642665
2.13,-0.150329769,0.139860153,-0.165542424
2.14,-0.200606883,0.096585274,-0.055132508
2.15,-0.079728603,0.048415184,0.375709832
2.16,0.228327513,-0.179636955,0.526475012
2.17,0.281196147,-0.256950378,0.013777614
2.18,-0.113663554,-0.116034508,0.056926548
2.19,-0.202761054,0.017930985,0.254389972
2.2,-0.036410451,0.022708893,0.078143716
2.21,-0.038869917,0.013205528,-0.119449794
2.22,-0.233609915,0.063559532,0.265615135
2.23,-0.152562797,0.08950901,0.588741779
2.24,-0.00131768,0.019505501,0.551144302
2.25,-0.006582737,0.018875122,0.547391415
2.26,-0.032461941,-0.039103508,0.168116689
2.27,-0.085700572,-0.084911346,-0.12090838
2.28,-0.087332845,-0.084950447,-0.119450867
2.29,-0.090290606,-0.029833794,-0.122709692
2.3,-0.089932323,-0.029789925,-0.122514784
2.31,-0.094077289,-0.010696411,0.11999619
2.32,0.002530217,0.022764206,0.366960198
2.33,-0.210956097,0.061200142,0.328172535
2.34,-0.022765636,0.051888466,0.117800921
2.35,0.106706739,-0.038831711,-0.019268751
2.36,0.144123733,-0.033857346,0.001514435
2.37,0.147483707,-0.033809662,0.157151282
2.38,0.145518005,-0.033946037,0.157326043
2.39,0.059647083,-0.034268379,0.367903918
2.4,0.058166504,-0.034523964,0.365384072
2.41,-0.140933275,-0.065782547,0.145635158
2.42,-0.21765703,-0.073069572,0.110669464
2.43,-0.217229426,-0.073171616,0.108495623
2.44,-0.178656876,-0.063721657,0.12981686
2.45,-0.178728759,-0.063969612,0.12592712
2.46,-0.143550873,-0.002007484,0.215353936
2.47,0.013396621,0.057618141,0.260673404
2.48,-0.066204488,0.04315567,0.259561062
2.49,-0.044214129,-0.00230217,0.242912769
2.5,-0.10793072,-0.018969536,0.221771091
2.51,0.020325124,-0.030789375,0.119686514
2.52,-0.034229994,-0.028303146,0.171018124
2.53,0.043017507,0.014830589,0.242605805
2.54,0.004629314,-0.018762589,0.181794405
2.55,-0.115574241,-0.066716194,0.027916372
2.56,-0.115663946,-0.066703796,0.028169215
2.57,-0.213238001,0.010033607,-0.2147457
2.58,-0.262868941,0.043658257,0.028099298
2.59,-0.021163225,-0.044965744,0.415463865
2.6,0.256973714,-0.119483948,0.707562208
2.61,0.006420255,-0.131953239,0.335083425
2.62,-0.157896459,-0.074676514,0.13268891
2.63,-0.105498016,0.028138161,0.193041533
2.64,0.018910766,-0.022275925,0.102048606
2.65,0.018006504,-0.022428513,0.100758582
2.66,-0.057469547,-0.003383636,-0.175046265
2.67,-0.058134317,0.058354378,0.509330928
2.68,-0.133876264,0.057678223,0.418649197
2.69,-0.177706122,0.09304142,0.235748082
2.7,-0.148385048,0.09031105,0.129122555
2.71,-0.225752592,0.059038162,0.120131493
2.72,-0.222137868,0.056697845,0.064518094
2.73,-0.112619102,0.008992195,-0.00175494
2.74,-0.16830796,-0.031503677,0.222503692
2.75,-0.192344308,0.047724724,0.297470868
2.76,-0.036333382,0.043169975,0.058903217
2.77,-0.034787297,0.043458939,0.061972559
2.78,-0.001858234,0.058227539,0.169728786
2.79,-0.000434339,0.058540344,0.173555046
2.8,0.186551154,0.03245163,0.151060671
2.81,0.128425181,0.056598663,0.150715411
2.82,0.072513402,0.059132576,0.197324753
2.83,-0.079552531,0.05914402,0.261412114
2.84,-0.202086449,0.083136559,0.337004781
2.85,-0.089435041,0.001833916,0.166064858
2.86,-0.089508712,0.002018929,0.169503927
2.87,-0.076887965,-0.083862305,0.073514163
2.88,-0.211279571,-0.143317223,0.065612495
2.89,-0.253593624,-0.054286003,-0.088855445
2.9,-0.249613583,-0.053705215,-0.084106803
2.91,-0.252334178,0.049906731,-0.265377402
2.92,-0.266460896,0.062488556,0.140798062
2.93,-0.262120843,0.06301403,0.143803686
2.94,0.090664625,0.063464165,0.180757016
2.95,0.144986451,0.063855171,0.232983768
2.96,0.141104758,0.066604614,0.278219134
2.97,0.141800344,0.066907883,0.282053322
2.98,0.082974553,0.050432205,0.247048318
2.99,0.00721699,-0.186288834,-0.034008205
3,-0.211827874,-0.183533669,-0.211930215
3.01,-0.145058632,-0.063408852,-0.052335739
3.02,-0.143690825,-0.063154221,-0.050040305
3.03,0.024617136,-0.120494843,0.448912859
3.04,0.023709655,-0.120556831,0.449149549
3.05,-0.271446407,-0.094199181,0.019172907
3.06,-0.261400461,-0.07003212,-0.365705431
3.07,-0.13392812,0.066776276,-0.316019952
3.08,-0.030376077,0.067032814,-0.262445211
3.09,0.122675717,0.067259789,-0.103132546
3.1,0.120705307,0.067297935,-0.100278914
3.11,0.067396581,0.090987206,0.68914026
3.12,0.088154495,0.066640854,0.670046687
3.13,0.084294021,0.066238403,0.668367326
3.14,0.076017678,0.065973282,0.527074456
3.15,-0.064752936,0.025206566,0.233676612
3.16,-0.065349996,0.025323868,0.236178696
3.17,-0.110038102,-0.055734634,0.084648311
3.18,-0.134800732,-0.122333527,-0.056429327
3.19,-0.133684576,-0.121897697,-0.051367641
3.2,0.029167295,-0.121602058,0.089479089
3.21,-0.045234323,-0.085391045,0.134552836
3.22,0.055279911,-0.099498749,0.090272367
3.23,0.054254055,-0.099346161,0.093585432
3.24,0.017061889,-0.049035072,0.16478616
3.25,0.015413225,0.137684822,0.048768103
3.26,0.118083656,0.084886551,0.203012943
3.27,-0.014810443,0.067912102,0.253957599
3.28,-0.017235041,0.067763329,0.25455907
3.29,-0.150809348,-0.040068626,0.173767448
3.3,-0.099595428,-0.078537941,0.170783699
3.31,-0.101237059,-0.078691483,0.170114696
3.32,-0.085970342,-0.133867264,0.107814431
3.33,-0.15420568,-0.109988213,0.163344562
3.34,-0.104416311,-0.074177742,0.190993011
3.35,-0.104683995,-0.074309349,0.189510942
3.36,-0.070751786,-0.045647621,0.173572362
3.37,-0.070755005,-0.045729637,0.172494531
3.38,0.04812783,-0.017086029,0.133518636
3.39,0.087539852,0.006731987,0.229154319
3.4,-0.010872304,0.033090591,0.3349545
3.41,-0.058512926,-0.01241684,0.332109541
3.42,-0.008267045,-0.033968925,0.039926171
3.43,-0.023475885,-0.081770897,-0.027248561
3.44,-0.024636745,-0.081645012,-0.02433151
3.45,-0.106617868,-0.076755524,0.051715016
3.46,0.026454687,-0.12710762,0.025646865
3.47,-0.038154721,-0.132108688,0.044072449
3.48,-0.100857258,-0.099066734,0.55032599
3.49,0.03956002,-0.121531487,0.885297418
3.5,0.171399653,-0.125181198,0.529387415
3.51,0.167231143,-0.126109123,0.519969881
3.52,-0.103389084,-0.107611656,-0.234180629
3.53,-0.269101322,-0.012399673,-0.151150048
3.54,-0.273299038,-0.013136864,-0.157941937
3.55,0.029679716,0.07924366,0.575352371
3.56,0.051670909,0.154771805,0.574773967
3.57,-0.094031572,0.058311462,0.312532663
3.58,-0.14871639,0.017298698,0.012793362
3.59,-0.150118113,0.017178535,0.012502849
3.6,-0.154125691,-0.0714674,0.03945452
3.61,-0.085683048,-0.071508408,0.257892013
3.62,0.10964036,-0.018838882,0.294617474
3.63,0.074745715,0.024333954,0.419556886
3.64,0.074231625,0.024548531,0.4234685
3.65,-0.002423704,-0.008606911,0.008014321
3.66,0.045082688,-0.08717823,-0.099774182
3.67,0.044064164,-0.086777687,-0.092644453
3.68,0.037468016,-0.069864273,-0.035645843
3.69,-0.079657018,0.059457779,0.211000919
3.7,-0.060338557,0.071346283,0.217011422
3.71,-0.062661707,0.071273804,0.218049258
3.72,-0.174561262,0.056761742,0.200899988
3.73,-0.094493866,-0.005565643,0.095618844
3.74,-0.196325958,-0.087075233,0.121647537
3.75,-0.094282508,-0.166230202,0.129995108
3.76,-0.095642149,-0.16645813,0.127987564
3.77,-0.075809479,-0.06139183,0.144445956
3.78,-0.076437533,-0.061610222,0.141642869
3.79,-0.070232987,-0.026050568,0.371932685
3.8,-0.001937032,0.057458878,0.155414313
3.81,-0.002881944,0.057276726,0.153475136
3.82,0.072825968,0.059458733,0.412162066
3.83,-0.000634551,0.056786537,0.318468064
3.84,-0.032308161,0.056717873,0.183879584
3.85,-0.032739818,-0.015101433,-0.081180036
3.86,-0.033393323,-0.014977455,-0.078547895
3.87,-0.099343121,-0.026865959,-0.011535764
3.88,-0.255719423,0.059329033,0.077833593
3.89,-0.121540368,0.076098442,0.142455936
3.9,-0.122271001,0.076086044,0.1431036
3.91,0.001062453,0.001846313,0.457514048
3.92,0.06577611,-0.091794014,0.577817321
3.93,0.063111246,-0.092133522,0.575234056
3.94,0.094202161,-0.135469437,0.367993742
3.95,-0.024141967,-0.032664299,0.036225677
3.96,0.001545668,0.055884361,-0.27267462
3.97,-0.033548951,0.065444946,-0.084667742
3.98,-0.036018848,0.065254211,-0.085236192
3.99,-0.046714067,0.117441177,0.777138948
4,-0.049798846,0.054607391,0.529258668
4.01,-0.050078511,-0.015175819,0.01634407
4.02,-0.20520246,-0.027238846,-0.095936358
4.03,-0.189126968,-0.079922676,0.091394007
4.04,-0.05794251,-0.044021606,0.25206089
4.05,0.049189925,-0.039215088,0.310438246
4.06,-0.00398916,-0.060713768,0.400327265
4.07,-0.003307283,-0.060509682,0.402805626
4.08,-0.007909119,-0.010015488,0.008589864
4.09,0.018679857,-0.014445305,0.023428261
4.1,0.018479347,-0.014125824,0.028905213
4.11,0.005877554,-0.011394501,0.154295892
4.12,-0.049418092,0.010511398,0.154981077
4.13,0.009753942,-0.029882431,0.069287419
4.14,-0.08957535,-0.07273674,0.009533823
4.15,-0.186148346,-0.058106422,-0.007375598
4.16,-0.380429447,-0.024334908,-0.058330953
4.17,-0.315174341,-0.064777374,-0.14343071
4.18,-0.334100902,-0.088451386,-0.008171797
4.19,-0.343598247,-0.095541954,-0.002087295
4.2,-0.15154326,-0.191246986,-0.183468342
4.21,-0.147739708,-0.107450485,-0.038892686
4.22,-0.067520022,0.002573967,0.115817845
4.23,0.093484789,0.057386398,0.216640174
4.24,0.018425286,0.109697342,0.341196001
4.25,-0.081828475,0.174086571,0.432525724
4.26,-0.083257377,0.173903465,0.431204408
4.27,-0.07247138,0.137972832,0.345647991
4.28,-0.090130866,0.061509132,0.171554416
4.29,-0.100524843,0.052213669,-0.036724567
4.3,0.062789738,-0.033737183,-0.100902796
4.31,-0.063857138,-0.124544144,-0.036803484
4.32,-0.175887346,-0.071710587,-0.269864023
4.33,-0.16941905,0.053108215,-0.319920838
4.34,-0.380451322,0.031902313,-0.149622142
4.35,-0.380248189,0.032160759,-0.146003068
4.36,0.109522849,-0.161959648,0.543652713
4.37,0.105006784,-0.162205696,0.543887675
4.38,-0.080273509,-0.174211502,-0.011699319
4.39,-0.184018135,0.038955688,0.128862917
4.4,-0.151600242,0.031903267,-0.023633301
4.41,-0.13161689,-0.006090164,-0.386372864
4.42,-0.10811162,0.056310654,-0.07734102
4.43,-0.107382715,0.041704178,0.37807247
4.44,-0.109948754,0.041183472,0.372679085
4.45,-0.124001861,0.057458878,0.441739142
4.46,-0.375585139,0.057207108,0.110316277
4.47,-0.241963208,-0.074482918,-0.058843911
4.48,-0.327912271,-0.050386429,-0.276432395
4.49,-0.531897187,-0.071504593,-0.190244734
4.5,-0.267150879,-0.099761963,-0.011406302
4.51,-0.071082294,-0.190504074,0.167743206
4.52,-0.067896068,-0.190382004,0.167079151
4.53,-0.180706561,-0.130167007,-0.109492362
4.54,-0.169187486,-0.072356224,-0.101081729
4.55,-0.158033967,-0.009740829,-0.164016902
4.56,-0.154914975,-0.009365082,-0.161395013
4.57,-0.083849013,-0.004376411,-0.06665194
4.58,-0.032482386,0.060316086,0.059980154
4.59,-0.125548363,0.045912743,0.190788448
4.6,-0.320414722,0.062747002,0.166714191
4.61,-0.379574001,0.060666084,0.005526423
4.62,-0.361124277,-0.039406776,-0.139499188
4.63,-0.517093003,-0.062749863,-0.139842391
4.64,-0.667598844,0.000103951,-0.114323854
4.65,-0.396069706,-0.013602257,-0.031630039
4.66,-0.217272878,-0.010771751,-0.148754597
4.67,-0.214195073,-0.010408401,-0.146233559
4.68,0.115898848,-0.213675499,0.085079849
4.69,0.185098022,-0.436226845,0.285840064
4.7,-0.070742249,-0.512582779,0.490798414
4.71,-0.062592566,-0.512104034,0.490061045
4.72,-0.352244616,-0.461181641,0.43496263
4.73,-0.457899571,-0.448584557,0.003815711
4.74,-0.449167073,-0.448105812,0.002409339
4.75,-0.415869892,-0.433394432,-0.119103491
4.76,-0.590848804,-0.605911255,-0.22585988
4.77,-0.498201072,-0.608672142,-0.239670813
4.78,-0.384979665,-0.527946472,-0.156362414
4.79,-0.333624363,-0.440348625,0.019803405
4.8,-0.234465957,-0.252655029,0.466924369
4.81,-0.239303768,-0.254707336,0.440937102
4.82,-0.338618338,-0.221063614,0.327742428
4.83,-0.538044095,-0.15634346,0.199531972
4.84,-0.520168543,-0.124938965,0.360310346
4.85,-0.573479295,-0.287353516,0.147222906
4.86,-0.481413186,-0.428762436,-0.162797302
4.87,-0.498556018,-0.431241989,-0.191670358
4.88,-0.198025763,-0.661188126,-0.22970891
4.89,-0.039470017,-0.598952293,-0.389866352
4.9,0.209457696,-0.43844986,-0.435033649
4.91,0.443252862,-0.127018929,-0.372662336
4.92,0.757910132,0.179715157,-0.221621573
4.93,1.085293293,0.546439171,-0.152759254
4.94,1.346254826,0.932405472,-0.09301731
4.95,1.327940822,1.217926979,0.258553416
4.96,1.201160789,1.438920021,0.451176584
4.97,1.174927473,1.437432289,0.431036025
4.98,0.764164805,1.321208954,0.008707687
4.99,0.78243804,0.834087372,-0.280917466
5,0.698406816,0.330332756,-0.533484578
5.01,0.608988106,-0.110992432,-0.806511641
5.02,0.4785586,-0.456401825,-1.198752999
5.03,0.324235678,-0.607703209,-1.486781597
5.04,0.136477321,-0.605654717,-1.545275807
5.05,0.024471954,-0.478970528,-1.503414512
5.06,-0.179825023,-0.337781906,-1.366028786
5.07,-0.661395967,-0.10541153,-1.228391171
5.08,-1.023715377,0.0218153,-1.338874221
5.09,-0.99714464,0.017641068,-1.535851002
5.1,-0.984367609,0.018468857,-1.513366818
5.11,-0.396147072,-0.639047623,-1.283221602
5.12,-0.028793186,-0.978179932,-1.274115562
5.13,0.169181004,-1.197672844,-1.208381891
5.14,0.2543751,-1.244991302,-0.923056126
5.15,0.568734288,-1.187278748,-0.618701816
5.16,0.769427538,-1.165950775,-0.455767304
5.17,0.711644411,-1.104129791,-0.295323938
5.18,0.59358561,-1.071138382,-0.435530275
5.19,0.39359504,-1.050156593,-0.8076244
5.2,0.265689403,-1.067420959,-1.059379339
5.21,0.231381685,-1.139719009,-1.504719496
5.22,0.1375871,-0.977236748,-1.792695761
5.23,0.293954462,-0.908018112,-1.604154348
5.24,0.320961982,-0.781227112,-1.016655684
5.25,0.399736911,-0.750165939,-0.655447483
5.26,0.401190639,-0.750150681,-0.656964004
5.27,0.207585871,-0.510406494,-1.229283571
5.28,0.055027992,-0.339998245,-1.322218299
5.29,-0.111078471,-0.198152542,-1.480828524
5.3,-0.116956502,-0.147176743,-1.748254657
5.31,-0.110443473,-0.10092926,-1.660868168
5.32,-0.087874264,-0.10264492,-1.191269279
5.33,0.023962975,-0.04710865,-0.852104068
5.34,0.275957674,-0.149679184,-0.767765045
5.35,0.505680263,-0.297821999,-0.776757598
5.36,0.689349055,-0.292772293,-0.71658355
5.37,0.616571426,-0.215939522,-0.698088527
5.38,0.627501428,-0.215726852,-0.714973033
5.39,0.599008918,0.090909958,-0.869024694
5.4,0.564156652,0.361568451,-0.709913433
5.41,0.571802795,0.361685753,-0.735386848
5.42,0.527100444,1.324378014,-0.91880089
5.43,0.580005765,1.841798782,-1.020762205
5.44,0.327944338,2.562875748,-0.913554311
5.45,0.346459925,2.563848495,-0.935039878
5.46,-0.329286337,3.367354393,-1.385345697
5.47,-1.047466278,3.558456421,-1.841038227
5.48,-1.005141735,3.561050415,-1.843885779
5.49,-2.32874918,3.980984688,-1.783002853
5.5,-1.426864862,4.733680725,-1.35143435
5.51,-0.161279798,4.353538513,-0.859360397
5.52,0.630716562,3.791104317,0.750772893
5.53,0.660378933,3.793563843,0.738945127
5.54,0.525610328,2.905558586,2.817858219
5.55,0.879007518,2.573094368,2.637543917
5.56,1.072591782,2.510436058,2.470442772
5.57,1.415793777,2.502122879,2.62284255
5.58,1.488839149,2.488213539,3.082310915
5.59,0.751013637,2.375606537,3.689455509
5.6,-0.964950085,2.143416405,4.081210613
5.61,-1.789828777,1.425891876,3.575325966
5.62,-2.012209415,0.636508942,3.051470757
5.63,-1.768232584,-0.299007416,2.586432219
5.64,-1.26478672,-1.079298019,2.446383476
5.65,-0.984159946,-1.572695732,2.585201979
5.66,-0.648985565,-1.498828888,2.608030558
5.67,-0.655190826,-1.499124527,2.589806557
5.68,-0.676913321,-0.890929222,2.430125952
5.69,-1.577255249,0.464682579,2.182158232
5.7,-1.557925224,0.784029007,1.885412931
5.71,-1.7931633,0.888108254,1.125883579
5.72,-1.825238585,0.642951012,0.370624393
5.73,-1.447488785,0.067648888,-0.390096843
5.74,-1.435288906,0.069215775,-0.401006043
5.75,-0.588058651,-1.825957775,-0.406450868
5.76,-0.327488422,-2.536426067,0.05518952
5.77,0.104497135,-3.244794846,0.316813648
5.78,0.467416078,-3.970365047,0.279797584
5.79,0.580269277,-4.559936523,0.380254298
5.8,0.572095633,-4.560744286,0.3809008
5.81,0.927177191,-5.414170265,0.489269882
5.82,1.051232934,-5.552221298,0.40166226
5.83,1.03621161,-5.554143906,0.415775806
5.84,1.035099745,-5.570464611,0.318447769
5.85,1.194150567,-5.266078472,0.085544199
5.86,0.948608637,-5.00494051,0.112727225
5.87,0.927217782,-5.007085323,0.122761726
5.88,0.612679899,-4.707548141,-0.048081681
5.89,0.590355635,-4.381810665,-0.48416847
5.9,0.191857815,-3.407184601,-1.137976527
5.91,-0.014286637,-2.676730156,-1.179691792
5.92,-0.041237175,-2.678863525,-1.173866391
5.93,-0.23993659,-1.854880333,-1.111768961
5.94,-0.471645892,0.041764259,-1.056117535
5.95,-0.495927215,0.039874077,-1.042986274
5.96,-1.292972326,1.764557838,-0.731249392
5.97,-1.814547181,2.323702812,-0.288032651
5.98,-1.890131474,2.423495293,-0.215679884
5.99,-1.910069942,2.307955742,-0.270146966
6,-1.694839597,2.293190956,-0.583409786
6.01,-1.442066312,2.474772453,-0.91060549
6.02,-1.330368996,2.792838097,-0.803557277
6.03,-1.205476522,3.158701897,-0.494690687
6.04,-1.351793766,3.514714241,-0.061950918
6.05,-1.368905067,3.513731956,-0.065111429
6.06,-1.678240657,3.606041908,-0.069767296
6.07,-2.722824097,3.605164528,-0.943334222
6.08,-2.42188549,4.018836975,-1.099742889
6.09,-1.391206622,4.411166191,-0.628462732
6.1,0.045537978,4.772294998,0.079077557
6.11,1.022310972,4.913020134,2.083449841
6.12,1.007392526,4.912502289,2.12412858
6.13,2.306191444,4.062277794,4.199957371
6.14,2.22372508,3.15494442,4.088247299
6.15,2.293717623,1.725822449,3.721904039
6.16,2.807735443,0.646050453,3.316046953
6.17,3.09815073,-0.414903641,2.701905012
6.18,2.859997749,-0.927977562,2.021015406
6.19,2.095583677,-0.70388794,1.484282374
6.2,1.309559941,-0.171097755,0.917419076
6.21,1.290565014,-0.172341347,0.891475618
6.22,1.190365791,0.429680824,0.895668685
6.23,1.059219837,0.950304031,1.361159801
6.24,0.991570711,1.114337921,1.518093467
6.25,0.97326088,1.11342907,1.471520782
6.26,0.525218725,0.68424511,1.299224973
6.27,0.040192306,0.128453255,1.109589219
6.28,0.032007247,0.128351212,1.076202989
6.29,-0.346360922,-0.678436279,0.640860438
6.3,-0.949683666,-2.612802982,-0.045594752
6.31,-0.499177784,-3.589395046,0.076333523
6.32,-0.395186573,-4.491725922,0.353408754
6.33,-0.183441192,-5.176067829,0.461092413
6.34,-0.025664106,-5.510747433,0.535514891
6.35,0.121019483,-5.625048161,0.461291671
6.36,0.148843318,-5.624297619,0.462373048
6.37,0.291835189,-5.345694065,0.050746359
6.38,0.317943156,-5.344785213,0.044302009
6.39,0.511164665,-4.848245144,-0.14781192
6.4,0.533126056,-4.847319126,-0.157661989
6.41,0.442514122,-3.955669403,-0.38712281
6.42,0.470110714,-3.605034351,-0.8339535
6.43,0.322005212,-3.072462082,-1.335254312
6.44,0.321495175,-2.420211315,-1.694091797
6.45,0.339889169,-2.419337749,-1.69194603
6.46,0.446506143,-1.14723587,-1.233841419
6.47,0.619434357,-0.579367638,-0.5656721
6.48,0.571741879,0.031522751,0.062430084
6.49,0.57670331,0.031894684,0.054339126
6.5,0.543919563,1.104916573,0.148992658
6.51,0.547802508,1.105145454,0.148102135
6.52,0.573235214,1.504998207,-0.357607305
6.53,-0.272694647,2.723722458,-1.536869287
6.54,-0.272884905,2.72369957,-1.535332561
6.55,-0.156248152,3.721978188,-0.851695061
6.56,0.080388069,3.853550911,-0.523838162
6.57,-0.377555132,3.750500679,-1.146426082
6.58,-0.376761913,3.750720978,-1.156757236
6.59,-0.983189583,4.170114517,-1.508594632
6.6,-0.501244366,4.888838768,-0.488754034
6.61,0.263317168,5.375157356,-0.132646129
6.62,0.72720474,5.535578728,0.571999073
6.63,0.527558625,5.614603043,2.305916071
6.64,-0.042742848,5.136024475,3.270369768
6.65,-0.29316318,4.097248077,4.145641327
6.66,-0.313356936,2.713511467,4.750943661
6.67,-0.130065441,1.090036392,5.052875996
6.68,-0.141395271,1.089344025,5.056647778
6.69,0.752181888,-1.219700813,4.393777847
6.7,0.586379051,-1.29746151,4.003663063
6.71,-0.534309149,-0.912964821,3.278456688
6.72,-1.577046633,-0.262307167,2.206898212
6.73,-2.224467993,0.376675606,1.080713153
6.74,-3.071995497,1.188349724,0.432648778
6.75,-3.883737564,1.808912277,0.273740351
6.76,-4.009439945,2.214418411,0.672922432
6.77,-3.404692888,2.19403553,1.140697002
6.78,-2.409950018,1.577558517,1.158343315
6.79,-1.359274149,0.82930851,0.605204642
6.8,-1.339100599,0.830233574,0.610440791
6.81,-0.298105955,-0.979103088,-0.403879494
6.82,0.123217613,-2.077671528,-0.2889359
6.83,0.608795047,-3.066466808,0.140333623
6.84,0.599707484,-3.066831112,0.134182125
6.85,1.438332558,-4.731491089,0.56539321
6.86,1.46213913,-5.376495838,0.73947084
6.87,1.428485632,-5.377506733,0.718515456
6.88,1.779801369,-5.886274815,0.213983387
6.89,1.739333153,-5.887495518,0.200353801
6.9,0.73045814,-5.467242718,-0.402942061
6.91,0.590638876,-5.307872772,-0.461288601
6.92,0.325673014,-5.177112579,-0.441059053
6.93,0.016871855,-4.806836128,-0.491758198
6.94,-0.009937823,-4.807645798,-0.487177581
6.95,-0.27578634,-4.573895931,-0.838500321
6.96,-0.810043573,-3.806223392,-1.828586578
6.97,-0.883423805,-3.395119667,-1.794015169
6.98,-0.752268612,-2.658380985,-1.225430012
6.99,-0.490146816,-1.921624184,-0.759348512
7,-0.501383066,-1.922273636,-0.742293358
7.01,-0.72266072,-0.048329353,-1.394258261
7.02,-0.998165786,0.880001068,-0.697057426
7.03,-1.158297896,1.607461929,-0.421407044
7.04,-1.348046422,2.11713028,-0.581671715
7.05,-1.395019054,2.428170204,-0.362110674
7.06,-0.760766745,2.420882225,-0.113105349
7.07,-0.756276131,2.42074585,-0.096240729
7.08,-0.376122356,2.339179039,-0.005497284
7.09,-0.437541664,2.480267525,0.02231127
7.1,-1.359473109,3.619807243,-0.85710007
7.11,-1.996189237,3.895030975,-1.49844861
7.12,-2.982357502,4.007514954,-1.934254169
7.13,-4.007296085,3.945315361,-2.021550894
7.14,-3.994226456,3.945508957,-2.020633698
7.15,-2.379114151,4.99198246,0.231060922
7.16,0.487497449,5.092638969,1.694766283
7.17,2.002945662,4.960888863,2.167755365
7.18,2.008688688,4.961043358,2.233942509
7.19,2.526512384,4.6961689,3.269155025
7.2,2.747907162,3.979775429,4.173800468
7.21,2.755896568,3.982053757,4.255182743
7.22,2.428869247,1.573108673,3.814324856
7.23,2.794681549,0.329868317,2.285854101
7.24,2.77801013,0.331270218,2.326257229
7.25,1.187719584,-1.245756149,0.298625439
7.26,1.122166872,-1.114728928,-0.501390934
7.27,0.551420689,-0.558029175,-0.560790658
7.28,0.403035402,0.027299881,0.108971596
7.29,0.314733625,0.657942772,0.85117054
7.3,0.136620224,1.159192085,1.234696388
7.31,0.074047521,1.313109398,1.62468791
7.32,0.057419121,1.208450317,1.542178392
7.33,0.047557354,1.206978798,1.481474042
7.34,-0.599485219,0.01838398,1.172413826
7.35,-0.798129559,-0.978274345,0.968413353
7.36,-1.084653139,-2.144512177,0.424612284
7.37,-1.190927744,-3.078181744,-0.049565047
7.38,-1.011181116,-4.121834755,-0.341913074
7.39,-0.665079534,-4.983406544,-0.560858071
7.4,-0.581219912,-5.492937088,-0.392950058
7.41,-0.410871267,-5.798764229,-0.451428771
7.42,0.056454375,-5.627941132,0.260289669
7.43,0.093021169,-5.626932144,0.25003919
7.44,0.090605855,-5.369587898,0.106357716
7.45,0.522854567,-5.02833271,-0.416080892
7.46,0.55852735,-5.027044296,-0.413940668
7.47,0.694573522,-4.331331253,-0.731189251
7.48,0.798356772,-3.872525692,-1.017019033
7.49,1.01537776,-3.351664066,-0.8436445
7.5,1.178024411,-2.852629662,-0.923383832
7.51,1.084949136,-2.294111729,-1.120803475
7.52,0.719906747,-1.515570641,-0.942490161
7.53,0.551584244,-0.780121803,-1.013446689
7.54,0.381058067,0.012695313,-0.852540493
7.55,0.376722962,0.013030052,-0.872412205
7.56,0.118831664,1.351800919,-0.498242021
7.57,0.212671936,1.821464539,-0.48140195
7.58,0.214549989,2.262295723,-0.834873796
7.59,0.217725128,2.262390137,-0.832732678
7.6,0.352634728,3.325439453,-1.026279807
7.61,0.35479337,3.325330734,-1.019510984
7.62,0.138885379,4.361927986,-1.133943677
7.63,0.141550213,4.361870766,-1.126946092
7.64,-0.469033539,4.268548965,-1.798573375
7.65,-0.843953967,4.247523308,-1.386750698
7.66,-0.906364918,4.7224617,-0.407439828
7.67,-0.883099198,4.723542213,-0.400859863
7.68,-0.419396937,5.349594116,0.408304453
7.69,-0.107128739,5.420305252,1.229089618
7.7,-0.450405061,4.976979256,2.563974142
7.71,-0.61902386,3.794203758,3.875090837
7.72,-0.581011534,3.796502113,3.900268793
7.73,-0.527877986,2.024240494,4.75920248
7.74,-0.341159105,0.359138489,5.098679543
7.75,0.820242822,-1.572498322,4.140442848
7.76,0.816126347,-1.572811127,4.139017582
7.77,0.45035705,-1.199917793,3.849198103
7.78,-0.300750673,-0.55199337,3.135205746
7.79,-0.601813257,0.234462738,1.839835167
7.8,-1.410398483,1.880338669,0.199384525
7.81,-2.177833796,2.722072601,0.724179745
7.82,-2.57028985,3.270023346,1.699125409
7.83,-3.378072023,3.296496391,1.80752933
7.84,-3.468020439,3.031373978,0.629559159
7.85,-2.422666073,1.877825737,-0.017113552
7.86,-1.219310045,0.771821976,0.214853019
7.87,-0.557198048,-0.492589951,0.166720346
7.88,-0.244474769,-1.764408112,-0.268750399
7.89,-0.251967192,-1.765096664,-0.261052519
7.9,0.036643028,-2.826640606,-0.022794962
7.91,1.491324902,-4.472678661,0.223736942
7.92,1.325988531,-5.125564575,0.132800475
7.93,1.302520275,-5.127105713,0.136647508
7.94,1.642086625,-5.265148163,0.274271369
7.95,0.787646592,-5.237883568,0.347289801
7.96,0.764283836,-5.239232063,0.350939274
7.97,0.543622673,-5.228761673,-0.167160407
7.98,0.599167943,-5.266238213,-0.318944275
7.99,0.617668688,-5.16718626,-0.334136188
8,0.447012246,-4.996193886,-0.66081804
8.01,0.153377309,-4.801083088,-0.913980365
8.02,-0.100925535,-4.605771065,-1.161104202
8.03,-0.119280696,-4.606658936,-1.143642783
8.04,-0.106830895,-4.380023003,-1.411529064
8.05,-0.505211115,-3.09739542,-1.266573906
8.06,-0.382346809,-2.451599121,-1.433357
8.07,-0.47066021,-1.482388496,-1.620458245
8.08,-0.476095974,-1.482579231,-1.585004568
8.09,-0.740860343,0.358815193,-1.192170739
8.1,-0.834898174,1.24996376,-0.959730506
8.11,-0.824054718,1.250601768,-0.927853882
8.12,-0.773493886,1.790041924,-1.017519712
8.13,-0.543612123,2.389347076,-0.637427211
8.14,-0.611968875,2.761062622,-0.567937911
8.15,-0.967743933,3.096632957,-0.548592269
8.16,-1.238938093,3.283473969,-0.844074547
8.17,-2.232115269,3.493894577,-1.259797812
8.18,-3.531409502,3.687468529,-1.917999268
8.19,-3.527801037,3.687414169,-1.925113678
8.2,-4.230642796,3.848434448,-2.271112204
8.21,-2.466013432,5.023141861,-1.250030398
8.22,-2.436099052,5.025510788,-1.2037009
8.23,1.778604507,5.126432419,0.072978795
8.24,3.226671934,5.002054214,2.36023283
8.25,3.829666376,4.570949554,4.092612267
8.26,3.774178743,3.955957413,5.105830193
8.27,3.286832094,2.715679169,4.926954269
8.28,2.658444405,1.773688316,3.894201756
8.29,2.017506599,0.649006844,2.34992981
8.3,2.002731562,0.648937225,2.357749462
8.31,1.487515926,-0.384232521,0.83364749
8.32,0.865718722,-0.002502441,-0.060934603
8.33,0.618322372,0.534991264,-0.006598771
8.34,0.951330662,0.964736939,0.045256078
8.35,0.990874171,1.212635994,0.296627164
8.36,1.08199501,1.436420441,1.016163588
8.37,1.097235084,1.685572624,2.169450521
8.38,0.838748455,1.661372185,2.263054848
8.39,0.280494094,1.330762863,1.992025495
8.4,-0.550160289,0.741929054,1.216735244
8.41,-0.659524024,-0.416173935,0.642825604
8.42,-0.742461979,-1.590517998,0.155218259
8.43,-0.965185762,-2.685237885,-0.342333615
8.44,-0.953555226,-2.685285568,-0.366423786
8.45,-0.635930061,-4.32508707,-0.566138625
8.46,-0.61627692,-4.324594975,-0.578036547
8.47,-0.38023001,-4.967969418,-0.249201059
8.48,0.007417858,-5.491439819,-0.030974254
8.49,0.300937235,-5.75616312,0.602480054
8.5,0.483201385,-5.702292919,0.405892253
8.51,0.478878409,-5.466328621,0.018849589
8.52,0.508782864,-5.464892387,0.016473219
8.53,0.294745684,-4.855195999,-0.617451191
8.54,0.321872711,-4.853778839,-0.627910078
8.55,0.23325491,-4.498106956,-1.283739924
8.56,0.11375919,-4.166628361,-1.700354576
8.57,0.153613895,-3.91681385,-1.701350451
8.58,0.490718365,-3.581186295,-1.448081493
8.59,0.381530017,-2.472380638,-0.735383809
8.6,0.209984422,-1.598181725,-0.646139026
8.61,0.104115725,-0.731107712,-0.565617681
8.62,0.109315336,-0.730700493,-0.574862778
8.63,-0.258239985,1.051067352,-0.765219688
8.64,-0.4097628,1.85363102,-1.211886168
8.65,-0.404893458,1.853998184,-1.21767962
8.66,-0.590468228,3.180755615,-1.762008429
8.67,-0.559937775,3.72687149,-1.908079267
8.68,-0.270858347,4.172302246,-1.807832479
8.69,-0.171800017,4.459568977,-1.393039942
8.7,-0.177145183,4.459529877,-1.413548827
8.71,-0.68259728,4.481383324,-0.773704231
8.72,-0.677211523,4.481984138,-0.786886931
8.73,-0.773128927,5.045406342,0.080469981
8.74,-0.195899725,5.716412544,0.830230713
8.75,0.869267881,5.242749214,1.491850019
8.76,0.39637664,4.781134605,2.85946846
8.77,0.121148229,3.788479805,4.29853487
8.78,0.171031535,2.546604156,4.642678261
8.79,0.174558818,2.546656609,4.659711838
8.8,0.485072821,1.128432274,4.799510956
8.81,1.1190449,-0.374388695,5.072666168
8.82,0.0088135,-0.129758835,4.350409508
8.83,-1.27480793,0.447983742,2.835963488
8.84,-2.159259796,1.284627914,1.384318948
8.85,-3.353536606,2.325175285,0.655021012
8.86,-4.458865166,3.363918304,0.537362337
8.87,-4.663889408,3.823753357,0.735958815
8.88,-3.934478521,3.48402977,0.936485946
8.89,-2.326794147,2.471439362,1.175544262
8.9,-1.12861824,1.406017303,0.864771485
8.91,-1.130973339,1.405934334,0.862803102
8.92,0.014928639,-0.162461281,0.729020357
8.93,0.334525079,-1.019885063,0.534322023
8.94,0.324441522,-1.020343781,0.53087008
8.95,0.686367393,-1.993240833,0.331448883
8.96,1.040269136,-3.567324638,-0.027363658
8.97,1.15459013,-4.389755726,-0.169297338
8.98,0.90700382,-4.84367466,-0.190928966
8.99,0.801717818,-5.276018143,-0.146895751
9,0.766706705,-5.277507782,-0.143853322
9.01,0.72213167,-6.01648283,-0.295179844
9.02,0.355746388,-6.168755531,-0.302450419
9.03,0.302544594,-6.158050537,-0.316098332
9.04,0.276499897,-6.132868767,-0.592433214
9.05,0.098703325,-5.980660439,-0.948913813
9.06,-0.118776023,-5.713371277,-1.354284883
9.07,-0.290266812,-5.089173794,-1.267658591
9.08,-0.380463958,-4.50553751,-1.399245024
9.09,-0.396511972,-4.505999088,-1.384744287
9.1,-0.580670595,-3.752222061,-1.514905453
9.11,-0.766642928,-2.148433685,-1.884454966
9.12,-0.76208806,-2.14870739,-1.841933608
9.13,-0.329812348,-0.434485436,-1.267202973
9.14,-0.406253338,0.075613022,-0.64334172
9.15,-0.205124155,0.633684158,-0.467967928
9.16,-0.202520698,0.633910179,-0.441956699
9.17,-0.095903888,1.910297394,-0.319755554
9.18,-0.098561138,1.910427094,-0.30433616
9.19,-0.194258243,2.853824615,-0.863227189
9.2,-0.424739659,3.416448593,-1.103202105
9.21,-0.438797712,3.416254044,-1.104205728
9.22,-1.427917957,4.474281311,-0.949621141
9.23,-2.753043652,4.749451637,-2.05160737
9.24,-3.768517494,4.565070152,-2.638653278
9.25,-4.305464745,4.184484482,-2.395291328
9.26,-4.290237427,4.184785843,-2.385191917
9.27,-1.583612204,4.326556206,-0.255612016
9.28,0.177838668,4.073497772,0.799680591
9.29,0.177405834,4.074269295,0.835010827
9.3,1.813035369,3.33996582,2.907069445
9.31,2.116700649,3.139547348,3.914380074
9.32,2.11045599,3.140280724,3.940077305
9.33,2.084280014,1.898330688,3.174967289
9.34,2.240465403,1.288033485,2.898110867
9.35,2.538190126,0.729858398,2.59107852
9.36,2.520616531,0.729237557,2.576877117
9.37,1.512449503,1.758234024,1.125646114
9.38,0.795527339,2.471471786,-0.081556886
9.39,0.733364523,2.866570473,-0.409429908
9.4,0.740722477,2.866524696,-0.412034541
9.41,0.994952798,2.808642387,0.249103725
9.42,1.583486915,2.396033287,1.251848578
9.43,1.921300411,1.030238152,2.822530985
9.44,1.647040606,0.578978539,2.732354403
9.45,0.67846936,0.13038826,1.955050826
9.46,-0.132610112,-0.475872994,0.88221556
9.47,-1.251478076,-1.122528076,0.108977675
9.48,-1.244255781,-1.122591972,0.080575176
9.49,-1.857224464,-2.796191692,-1.106848359
9.5,-1.555084705,-3.72751379,-1.021846771
9.51,-1.523569822,-4.634803772,-0.528647661
9.52,-1.491379023,-4.634547234,-0.535028338
9.53,-0.727367699,-5.730704784,0.303410649
9.54,-0.690511227,-5.730102062,0.289976001
9.55,-0.268250763,-6.05013752,0.723187685
9.56,0.371927559,-5.826556206,0.23560977
9.57,0.437549472,-5.499891758,-0.104055718
9.58,0.420239598,-5.328751564,-0.540581226
9.59,0.527252615,-5.100071907,-1.011877418
9.6,0.555723846,-5.098808289,-1.029603362
9.61,0.593327999,-4.795850277,-1.354326129
9.62,1.619230509,-4.186484337,-0.393808633
9.63,1.459108233,-3.814251423,-0.570685327
9.64,1.461680412,-3.813326359,-0.602115393
9.65,0.973584771,-3.075311661,-1.218351126
9.66,0.693631291,-1.413388252,-0.527062416
9.67,0.681032419,-0.462603569,-0.665444851
9.68,0.456985295,0.322880745,-0.365351379
9.69,0.147017181,1.039047241,-0.182359651
9.7,0.14654386,1.491905212,-0.476906449
9.71,-0.063644946,2.11220932,-1.044460773
9.72,-0.254408777,2.873641014,-1.489188671
9.73,-0.260531336,2.873604774,-1.495421648
9.74,-0.291034788,3.642003059,-1.800240159
9.75,-0.658727765,4.594834328,-1.684946895
9.76,-0.724506497,4.647591591,-1.532822371
9.77,-0.717671156,4.647954941,-1.534677625
9.78,-1.108267426,3.812818527,-0.945145965
9.79,-0.880720735,4.18698597,-0.215971783
9.8,-0.856240988,4.187588692,-0.200619325
9.81,0.534739852,5.289402962,0.607163966
9.82,0.064869285,5.311434746,0.919979751
9.83,-0.802871168,5.001483917,2.165506124
9.84,-1.311865449,3.942638397,3.474425554
9.85,-1.592520714,2.328373909,4.623530388
9.86,-1.10368371,0.637350082,4.638216496
9.87,-0.18701148,-0.785993576,4.283608437
9.88,0.703603804,-1.841211796,4.320355415
9.89,0.727807939,-1.58749485,4.103417397
9.9,0.046459019,-0.730531693,3.653936148
9.91,-0.436103106,0.428175926,2.557213306
9.92,-1.108859539,2.061017036,0.873787463
9.93,-1.927670836,3.626959801,-0.216164023
9.94,-2.633821964,5.054382324,-0.172370166
9.95,-2.60562706,5.727991104,1.086346388
9.96,-2.137909889,5.489396095,2.371273041
9.97,-1.225660801,4.407791138,3.094357252
9.98,-0.495745182,2.803688049,2.454107761
9.99,0.092125535,1.273131371,1.276331425
10,0.431916595,0.04338932,0.228591844
10.01,0.534261048,-1.165126801,-0.439421058
10.02,0.521458924,-2.24697113,-0.67586267
10.03,0.284118533,-3.221138954,-0.689150512
10.04,0.252457917,-3.223201752,-0.680387676
10.05,0.093930006,-4.82459259,-0.584647775
10.06,0.185558379,-5.348537445,-0.073782593
10.07,1.012997508,-6.109452248,0.968417525
10.08,1.388591051,-6.726700306,0.23134844
10.09,0.735977173,-6.836227417,-0.002278835
10.1,0.343446136,-6.710688591,0.167417452
10.11,0.362369597,-6.556166649,0.139715776
10.12,0.35152176,-6.346443176,-0.516321361
10.13,0.133377597,-6.126982689,-0.975062251
10.14,-0.30188489,-5.777975559,-1.639770985
10.15,-0.437732995,-5.325824738,-2.24118948
10.16,-0.453535259,-5.326134682,-2.209743738
10.17,-0.463834882,-3.882667542,-1.502683163
10.18,-0.479332894,-3.882850647,-1.484193563
10.19,-0.68769598,-1.905003071,-1.771051049
10.2,-0.907026172,-1.025466919,-2.043373346
10.21,-0.851733089,-0.056792259,-1.721228719
10.22,-0.821181059,0.861879349,-1.552933693
10.23,-0.68648243,1.51031971,-1.183482885
10.24,-0.675857544,1.512324333,-1.136392117
10.25,-0.827817977,2.119787216,-0.470245272
10.26,-1.420152187,2.714984894,0.030852288
10.27,-1.639921904,3.008234978,-0.101854712
10.28,-1.480869532,2.997027397,-0.724900365
10.29,-1.859032273,3.128925323,-1.41961503
10.3,-2.559891224,3.289317131,-2.212856054
10.31,-3.386226892,3.427946091,-2.713110924
10.32,-3.383564472,3.42773819,-2.718497276
10.33,-4.354354382,3.403822899,-2.434986591
10.34,-4.326066017,3.404905319,-2.429045916
10.35,-2.628943443,4.535113335,-0.494569242
10.36,0.125704348,4.500813484,-0.091614664
10.37,2.417318583,4.314107895,0.982482731
10.38,2.420627117,4.318361282,1.043405056
10.39,4.244841576,3.843449593,4.928186417
10.4,4.364879608,3.181886673,5.638491154
10.41,4.349577427,3.184918404,5.681428909
10.42,3.095542192,2.109645844,3.604993343
10.43,2.458928108,1.528717041,1.584483385
10.44,2.427120447,1.527026176,1.57694006
10.45,1.935225964,0.846094132,0.1807338
10.46,1.029875517,1.06461525,-0.166261852
10.47,0.717041433,1.29765892,-0.098761499
10.48,0.603058219,1.4211483,0.12725544
10.49,0.667615533,1.377310753,0.504127502
10.5,0.667458057,1.261443138,1.229073763
10.51,0.720954001,0.929923058,2.579407692
10.52,0.699957669,0.926242828,2.520941496
10.53,0.32249409,-0.211958885,1.939559579
10.54,-0.173073858,-1.031001091,1.094458103
10.55,-0.530059218,-1.703476906,0.739908218
10.56,-0.523675382,-1.705052376,0.698698878
10.57,-0.657460928,-3.331698895,-0.261416733
10.58,-0.728329122,-3.772768974,-0.117042393
10.59,-0.700222671,-4.273436546,0.06737338
10.6,-0.587412715,-4.694857597,0.229941338
10.61,-0.237216234,-4.989229202,0.540368021
10.62,-0.205965355,-4.988935471,0.529646695
10.63,0.58935231,-5.417039394,0.3655608
10.64,0.515064001,-5.380476952,0.118712738
10.65,0.54906708,-5.379613876,0.114865422
10.66,0.408889294,-5.232576847,-0.121874213
10.67,0.37766251,-4.932444096,-1.188336849
10.68,0.404094875,-4.931830883,-1.205741525
10.69,0.242313266,-4.213191509,-1.390284657
10.7,0.464242429,-3.612123489,-1.329417467
10.71,0.506500363,-2.992082596,-1.426340461
10.72,0.399026871,-2.070418358,-1.400056243
10.73,0.15126878,-1.093529701,-1.452876329
10.74,-0.014362752,-0.209792137,-1.092840433
10.75,-0.28242588,0.444278717,-0.366533011
10.76,-0.143208414,0.887711525,0.078468204
10.77,0.111911982,1.048563004,-0.113689944
10.78,0.094432652,1.374379158,-0.502384961
10.79,0.096373856,1.374453545,-0.503646374
10.8,-0.248384208,2.502110481,-1.142252922
10.81,-0.792056203,3.155638695,-1.390996575
10.82,-1.145074368,3.505156517,-1.593320131
10.83,-1.031919479,3.572167397,-1.759628296
10.84,-0.899525881,3.521985054,-1.857396007
10.85,-1.382886291,3.678069115,-1.521138906
10.86,-1.753610611,4.411761284,-0.95443815
10.87,-1.217087746,5.497859955,-0.269133329
10.88,-0.189664483,5.75088501,-0.02266111
10.89,-0.164824903,5.752358437,-0.020618498
10.9,0.65501678,5.801795959,0.851325154
10.91,0.835878372,4.97758007,3.652760983
10.92,0.598852754,3.665174484,4.126132488
10.93,0.624031365,3.667186737,4.158567429
10.94,0.651747942,0.625559807,3.601296902
10.95,1.004168034,-0.059171677,4.10412693
10.96,1.069157958,-0.94124794,4.036889076
10.97,0.285316348,-0.607678413,3.139388084
10.98,-0.565967619,0.075195313,2.737381697
10.99,-1.458582878,0.801047325,2.305612326
11,-2.232838392,1.584423065,1.412361383
11.01,-2.919583082,2.267518997,1.02944243
11.02,-3.019902468,2.524907112,1.345848083
11.03,-3.151971579,2.188965797,1.798838496
11.04,-3.089840651,1.561404228,1.774157882
11.05,-2.164255857,0.764276505,1.038393736
11.06,-0.834075213,-0.190813065,0.196250677
11.07,-0.831434608,-0.190610886,0.177189708
11.08,-0.019730449,-0.944594383,-0.181455836
11.09,0.200520575,-1.262911797,-0.392380655
11.1,0.24012214,-1.887876987,-0.227825746
11.11,0.231517673,-1.888159275,-0.247956693
11.12,0.436210752,-2.67164135,0.546187699
11.13,0.524168909,-3.472107887,1.176007509
11.14,1.029582977,-4.143433094,0.644614756
11.15,0.98309195,-4.891577721,-0.011781171
11.16,0.454118788,-5.306916237,-0.246875614
11.17,0.428042084,-5.307917595,-0.250136644
11.18,0.394355089,-5.86679554,-0.869000197
11.19,0.648226857,-5.910867214,-0.548016965
11.2,0.616887748,-5.911741734,-0.552904725
11.21,0.620729327,-5.414497375,-0.500527024
11.22,0.599825323,-5.415192604,-0.493218184
11.23,-0.099224716,-4.29049015,-1.329966784
11.24,-0.254528761,-3.836094856,-1.632190108
11.25,-0.262755036,-3.836574554,-1.613956213
11.26,-0.501274467,-2.017440796,-1.916550159
11.27,-0.505059004,-2.017930031,-1.880805492
11.28,-0.537840843,-0.234537125,-1.508632898
11.29,-0.717110694,0.56262207,-0.954723597
11.3,-0.923396945,1.187638283,-0.58823359
11.31,-1.032274008,1.4752388,-0.24656421
11.32,-0.856230259,1.746213913,-0.238517374
11.33,-0.689505577,1.864060402,-0.483824164
11.34,-0.647179663,2.108894348,-0.599724352
11.35,-0.47000277,2.327450752,-0.636223495
11.36,-0.559087038,2.632053375,-0.607703507
11.37,-0.784903228,2.902953148,-0.771234274
11.38,-1.695129871,3.259773254,-1.208402634
11.39,-2.579882383,3.451096535,-1.24592185
11.4,-3.229762793,3.328523636,-1.520620584
11.41,-3.749219418,3.225132942,-2.180215359
11.42,-3.561353683,3.591518402,-2.045043707
11.43,-3.540349245,3.59205246,-2.04098773
11.44,-1.688133478,4.189145088,-0.069123521
11.45,1.496632576,4.750804901,0.629641175
11.46,2.116183043,5.013711929,1.873008728
11.47,2.12566781,5.016218185,1.932589769
11.48,2.358527184,4.937547684,3.393447876
11.49,2.220830441,4.461131096,4.349765301
11.5,2.305201054,1.728275299,4.259088039
11.51,2.439408779,0.696887016,2.821233273
11.52,2.240728855,-0.157608032,0.846855104
11.53,1.684523582,-0.195718765,-0.272634625
11.54,1.677179098,-0.195689201,-0.269108772
11.55,1.166560411,0.666171074,-0.55661118
11.56,1.449626923,0.986721993,0.267819762
11.57,1.504061699,1.237358093,1.076602697
11.58,1.49768424,1.235821724,1.051895022
11.59,1.370024085,1.212376595,1.470297337
11.6,0.922196388,1.028021812,1.465842009
11.61,0.162683263,0.702168465,1.515443563
11.62,-0.511017203,0.04360199,1.47599256
11.63,-0.517425299,0.041489601,1.413787723
11.64,-1.555443525,-2.009318352,0.151502013
11.65,-1.970389962,-3.106480122,-0.498853982
11.66,-1.955100536,-4.145700932,-0.768506646
11.67,-1.926606655,-4.1454072,-0.786153376
11.68,-1.201496601,-5.875886917,-0.160020918
11.69,-0.602248371,-6.339485645,0.207980558
11.7,0.019788325,-6.505906105,0.429657728
11.71,0.183748901,-6.260257721,0.780994535
11.72,0.443203926,-5.841915131,0.8774966
11.73,0.848994732,-5.325252533,0.745751679
11.74,1.225485325,-4.988086224,0.395552486
11.75,1.527746916,-4.619734764,-0.166761041
11.76,1.723831773,-4.165251255,-0.644210935
11.77,1.476810813,-3.607975483,-0.817923963
11.78,1.115128517,-2.921745777,-0.818035424
11.79,1.054847002,-2.317443848,-0.797011077
11.8,0.9945575,-1.728061676,-0.782302022
11.81,0.728611291,-1.174987793,-0.831400871
11.82,0.505063236,-0.502221108,-1.17683506
11.83,0.502564967,-0.502202034,-1.193757534
11.84,-0.167918742,0.522675514,-1.2224015
11.85,-0.142516732,1.00899601,-0.306815982
11.86,-0.129884303,1.272655487,-1.132237673
11.87,-0.208130479,1.804144859,-1.352451086
11.88,-0.27122879,2.611027718,-1.063574433
11.89,-0.270890951,2.611071587,-1.065312266
11.9,-0.327088416,3.50176239,-1.626257062
11.91,-0.751601696,4.69170475,-2.236719131
11.92,-0.63917774,4.842510223,-1.832636118
11.93,-0.646199286,4.842218399,-1.843825698
11.94,-0.602543235,4.451660156,-1.060341477
11.95,-0.796314418,4.43956852,-0.271046221
11.96,-0.466041505,4.98798275,0.637248874
11.97,-0.464474976,4.988162994,0.633451819
11.98,-0.329581916,5.515140533,0.892697692
11.99,-0.41053158,4.962692261,0.997442126
12,-0.459393323,4.017989159,2.260230303
12.01,-0.15461123,2.563461304,3.572287798
12.02,0.184030473,1.051299095,4.365179062
12.03,0.195929885,1.052018166,4.391357899
12.04,1.472946167,-1.526817322,4.124053478
12.05,1.632174492,-2.099848747,3.713409424
12.06,1.066511869,-1.406606674,3.25896287
12.07,0.172848105,-0.505177498,2.295097351
12.08,-0.88275367,0.623781204,1.231364012
12.09,-0.89818269,0.622739792,1.234079123
12.1,-1.780283451,1.802117348,0.574418545
12.11,-3.231054306,3.611434937,1.027314305
12.12,-2.968895435,3.40501976,1.735859156
12.13,-2.93308115,2.779847145,2.074771166
12.14,-2.176513433,1.956271172,1.34911406
12.15,-1.154415011,0.888431549,-0.036495864
12.16,-1.157299638,0.888249397,-0.033349968
12.17,0.062483132,-0.737994194,-0.223162949
12.18,0.470638424,-1.545643806,0.335189641
12.19,0.944613636,-2.320011139,0.913507998
12.2,1.324438334,-3.044291496,1.194547772
12.21,1.42828536,-3.658416271,1.393495679
12.22,1.27212286,-4.200458527,1.254103065
12.23,0.89693445,-4.48857832,1.082300067
12.24,0.172045708,-4.345616341,0.701235116
12.25,0.152010053,-4.346304893,0.69255203
12.26,0.027474403,-4.735106468,-0.893814206
12.27,0.004068702,-4.736474037,-0.86988914
12.28,-0.14751783,-5.132819653,-1.253789425
12.29,-0.138360679,-5.291971684,-1.178554177
12.3,0.230122775,-5.379161358,-0.43316856
12.31,0.480149508,-5.521317959,-0.855923653
12.32,0.456921816,-5.522115231,-0.828234851
12.33,0.28464368,-5.003183365,-1.377062201
12.34,0.018496618,-4.381129742,-0.488779098
12.35,-0.120542005,-3.720730305,-0.308228344
12.36,-0.180919096,-3.108175755,-0.662513316
12.37,-0.200155422,-3.10852766,-0.658063352
12.38,-0.666584313,-1.449524879,-1.32010448
12.39,-0.921905398,-0.59971714,-1.353529215
12.4,-0.92756331,-0.599776268,-1.348033547
12.41,-1.372199655,1.133696556,-1.080270052
12.42,-1.479848981,2.366884232,-1.083374977
12.43,-1.472579002,3.217122078,-1.310958385
12.44,-1.456798673,3.217648506,-1.276439548
12.45,-1.711189747,4.511287689,-1.366410732
12.46,-1.631911516,4.77314949,-1.181513309
12.47,-1.454933643,4.714159966,-1.139292955
12.48,-1.449739456,4.370087624,-1.318268895
12.49,-1.452036619,4.37049675,-1.300533295
12.5,-2.997716904,3.623811722,-1.64346838
12.51,-3.658428907,3.174181938,-2.312452793
12.52,-3.550311804,3.67578125,-2.119325399
12.53,-1.837817192,4.18532753,-0.918481827
12.54,0.46038419,4.267017365,-0.203006178
12.55,1.91841042,4.368452072,0.501412451
12.56,2.626567841,4.414587021,1.959789991
12.57,2.868278742,4.208773613,4.035502434
12.58,2.67538023,3.669605255,5.598744869
12.59,2.273805618,2.763204575,5.85423851
12.6,2.003260851,1.547362328,4.853690147
12.61,1.955194116,0.257360458,2.778791666
12.62,1.653562307,-0.254230499,0.503072739
12.63,1.040756941,-0.391998291,-1.083210945
12.64,1.041562438,-0.390854836,-1.067241788
12.65,0.096097216,0.524770737,-1.103713751
12.66,0.102169827,0.524521828,-1.10936439
12.67,0.148694396,1.102955818,-0.243537247
12.68,0.604538441,1.340571404,0.913513184
12.69,0.597891808,1.338074684,0.878265321
12.7,0.949628174,1.402053833,1.393942952
12.71,0.956920147,1.090004921,1.542424083
12.72,0.073455334,-0.091012001,1.289951324
12.73,-0.532798708,-1.058505058,0.763056934
12.74,-1.314279199,-1.97503376,-0.03300643
12.75,-1.380918145,-2.869267464,-0.543465734
12.76,-1.193175793,-3.597758293,-0.037311941
12.77,-1.194711924,-4.524567604,-0.298342735
12.78,-1.156571984,-5.074897289,-0.403743178
12.79,-1.015016913,-5.433435917,0.200574756
12.8,-0.534010351,-5.755905628,0.873556256
12.81,-0.108472645,-5.970425129,0.84715122
12.82,-0.072507322,-5.969222546,0.838259459
12.83,0.799273074,-5.93206501,0.185621142
12.84,0.907012224,-5.495258808,0.168505028
12.85,0.975937128,-5.04668045,0.131314889
12.86,1.158968091,-4.571975231,0.050264642
12.87,1.141002893,-3.874806404,-0.218761727
12.88,0.970289111,-3.125097275,-0.81225729
12.89,0.979721844,-3.124826431,-0.843701005
12.9,0.359874576,-1.482213974,-1.722930551
12.91,0.36323002,-1.482070923,-1.740697622
12.92,0.029795051,0.033594131,-1.512054563
12.93,0.140195876,0.567509651,-1.086914539
12.94,0.148988873,1.005616188,-0.501624823
12.95,0.128090382,1.206778526,-0.433519065
12.96,0.103518307,1.357748032,-0.660153031
12.97,0.153437346,1.460857391,-1.1462363
12.98,0.133606195,1.805838585,-1.464424014
12.99,-0.20762068,2.476417542,-1.23056078
13,-0.272992969,3.30267334,-1.070278645
13.01,-0.304585636,3.784058571,-1.264749169
13.02,-0.519249857,4.069067955,-1.299251556
13.03,-0.525449693,3.915935516,-1.523116589
13.04,-0.525714517,3.916109085,-1.509947896
13.05,-0.688912988,3.662786484,-1.393460035
13.06,-0.969234109,4.430070877,0.132668719
13.07,-0.940463007,4.951196671,0.138641506
13.08,-0.584292531,4.800028801,0.17231077
13.09,-0.470773995,4.515289307,0.672574163
13.1,-0.437657297,4.518489838,0.705551088
13.11,-0.4464252,3.777901649,1.413092613
13.12,-0.533116937,2.91095829,2.294665575
13.13,-0.165942729,1.119365692,3.906329393
13.14,0.717290998,0.061537743,4.610813141
13.15,0.90795815,-0.04774189,5.177764416
13.16,0.142379344,0.384890556,4.714241505
13.17,-0.599650919,0.905460358,3.753065109
13.18,-1.451249719,1.494608879,2.517605066
13.19,-1.467963576,1.492174149,2.490476608
13.2,-2.499542713,2.028622627,1.497374296
13.21,-3.373438597,2.670791626,0.977999568
13.22,-3.751149416,2.990215302,1.385367632
13.23,-2.876683474,2.364440918,0.434552521
13.24,-2.078987598,1.451859474,-0.095347494
13.25,-1.149947286,0.625452042,0.280642986
13.26,-1.152352929,0.624763489,0.257047027
13.27,0.109356463,-0.717069626,0.475860298
13.28,0.875210285,-1.463262558,0.835460067
13.29,0.851251125,-1.465476036,0.800092995
13.3,1.218585253,-2.22675848,1.258031964
13.31,1.502367496,-3.414160728,1.646418333
13.32,1.474942565,-3.81134367,0.76545006
13.33,1.225841045,-4.414336205,0.338133514
13.34,0.695997715,-4.686687946,0.120346047
13.35,0.497083068,-4.956165314,-0.229768843
13.36,0.329874039,-5.20152998,-0.678842604
13.37,0.194568574,-5.413126945,-0.666219831
13.38,0.17929998,-5.413729668,-0.62946856
13.39,0.19208312,-5.576859951,-0.107108161
13.4,0.179925919,-5.576905727,-0.063991487
13.41,0.352395594,-5.531178951,-0.290960908
13.42,0.13281855,-5.032727242,-0.792974293
13.43,-0.156634063,-4.603646755,-0.760641098
13.44,-0.188618213,-4.105202675,-0.911944449
13.45,-0.220798135,-3.650001526,-1.121252537
13.46,-0.237908274,-3.649953842,-1.100984216
13.47,-0.600417972,-2.079198837,-1.049538374
13.48,-0.809875965,-1.149999619,-1.077070713
13.49,-1.043959975,-0.309124947,-1.21320653
13.5,-1.100253344,0.632748604,-1.428235412
13.51,-1.009960055,1.354854584,-1.280669928
13.52,-1.133710027,2.214083672,-1.00432992
13.53,-1.426253557,2.812783241,-0.760514915
13.54,-1.509911537,3.122105598,-0.778079867
13.55,-1.113402009,3.050768852,-0.817403674
13.56,-1.112325311,3.053322792,-0.778974295
13.57,-0.792356312,3.067169189,-0.626627207
13.58,-1.719011903,3.012666702,-0.781590819
13.59,-1.722217441,3.012832642,-0.777461767
13.6,-4.311493874,2.817206383,-2.509053469
13.61,-4.349206924,3.11869812,-2.647586823
13.62,-4.308659554,3.12252903,-2.619333982
13.63,-2.868381739,3.549192429,-1.584609985
13.64,1.465593815,4.269510269,-0.327463329
13.65,2.464783192,4.584827423,0.758290529
13.66,2.920278311,4.652688026,2.58687067
13.67,3.092870474,4.420834541,4.351179123
13.68,2.478652,3.333514214,4.529914379
13.69,1.533420086,2.346304893,3.351787329
13.7,1.102214575,1.279007912,2.072773933
13.71,1.010457516,0.198987961,0.753453076
13.72,1.082881808,-0.294796944,-0.745926976
13.73,1.473493218,-0.264006615,-1.295516968
13.74,1.924681187,0.273615837,-0.380579948
13.75,2.303095341,1.000097275,0.593757868
13.76,2.559880018,1.79450798,1.450786591
13.77,2.589972734,2.391358376,2.024133205
13.78,2.387569666,2.707057953,2.290138245
13.79,2.359286547,2.701233864,2.249090195
13.8,1.800779939,3.041918755,2.062369347
13.81,0.794941783,2.731132507,1.782720923
13.82,-0.401314944,0.96971035,0.866189003
13.83,-0.778947234,-0.285486221,0.283169508
13.84,-0.934231758,-1.488982201,-0.241348922
13.85,-0.933954656,-1.491135597,-0.267804384
13.86,-0.617258906,-3.297298431,-0.610210419
13.87,-0.361555874,-4.051495075,-0.221090913
13.88,-0.150327802,-4.627985954,0.428099006
13.89,0.222501487,-5.070213318,0.854727745
13.9,0.447633505,-5.265611172,0.968276382
13.91,0.649839521,-5.405493736,0.890661776
13.92,0.681436122,-5.40396595,0.891604006
13.93,0.336450875,-5.330626965,0.815682888
13.94,0.508098543,-5.357979298,0.619783878
13.95,0.676997423,-5.433393478,0.311897039
13.96,0.70476836,-5.432227135,0.305741966
13.97,0.854905725,-5.282733917,-0.77379632
13.98,0.690219998,-5.008958817,-1.037566662
13.99,0.706243277,-4.560645103,-1.347702622
14,0.63417387,-3.758400917,-1.499877691
14.01,0.706375003,-2.841593742,-1.16300869
14.02,0.62840426,-1.633080482,-0.571796656
14.03,0.448519886,-0.31264019,-0.227772892
14.04,0.446807802,-0.314069748,-0.247579992
14.05,0.371345192,0.941473961,-0.192588806
14.06,0.095684767,2.762200356,-0.20163101
14.07,0.094933927,2.761131287,-0.218734682
14.08,0.22561872,3.414256096,-0.936904132
14.09,-0.120568097,3.404556274,-1.051836967
14.1,-0.408714235,3.318419456,-1.207331777
14.11,-0.735212624,3.237108231,-1.625566006
14.12,-0.65945065,3.06244278,-1.979265928
14.13,-0.257383883,2.918711662,-1.213391066
14.14,-0.400888979,2.657375336,-1.501304388
14.15,-0.645787954,2.796553612,-1.648288846
14.16,-0.531142056,3.84148407,-0.788887322
14.17,-0.526830614,3.842849731,-0.771884739
14.18,-0.058016658,5.010687828,-0.099952936
14.19,0.004159153,6.198637009,-0.258108139
14.2,0.222013027,6.120434761,1.196956873
14.21,0.151123107,5.271729469,2.145103216
14.22,0.166850269,5.276350975,2.188632011
14.23,0.172411442,2.250374794,2.734639645
14.24,0.780937553,0.794421196,2.800559998
14.25,1.137855411,-0.816548348,2.921943665
14.26,1.481227875,-2.02506876,3.349626303
14.27,1.264190912,-2.216323853,3.409700394
14.28,0.235233873,-1.741064072,3.228055477
14.29,-0.96841073,-1.017286301,2.856211662
14.3,-2.076835394,0.075173378,2.122926712
14.31,-3.082498312,0.962028503,1.375930786
14.32,-3.090154648,0.958779335,1.342811346
14.33,-3.807432175,1.954389572,1.316114068
14.34,-3.394453764,1.923211098,1.831836462
14.35,-2.718178272,1.543030739,1.890205383
14.36,-1.902622938,1.149354935,1.344153166
14.37,-1.055318952,0.576908112,0.800831676
14.38,-1.04085207,0.576581955,0.781374097
14.39,0.090481043,-0.420218468,0.841360331
14.4,0.386153072,-0.919548988,1.023850441
14.41,0.510486722,-1.266113281,1.275421381
14.42,0.711295843,-1.569965363,1.402414918
14.43,0.716539562,-1.984322548,1.48293817
14.44,0.7009179,-1.986982346,1.448686838
14.45,0.776705265,-2.332076073,1.308464885
14.46,1.118884444,-3.067451477,0.509906232
14.47,0.830175877,-3.350224495,0.329396963
14.48,0.497341633,-3.526997566,0.17767179
14.49,0.471052468,-3.528450966,0.176538378
14.5,-0.08758536,-3.608297825,-0.404012144
14.51,-0.333327353,-3.560648918,-0.532675743
14.52,-0.29601717,-3.476640224,-0.523770988
14.53,-0.121644706,-3.327785969,-0.431017548
14.54,0.089381069,-3.169391155,-0.396912158
14.55,0.162526533,-2.917645931,-0.208625615
14.56,0.010148972,-2.754584312,-0.059050083
14.57,-0.007398933,-2.754416466,-0.042723775
14.58,-0.189754963,-2.663419724,-0.154983282
14.59,-0.279449403,-2.100927353,0.04764542
14.6,-0.052576065,-1.826216221,0.352116942
14.61,-0.090779483,-1.489214897,-0.21398294
14.62,-0.38339451,-0.797492027,-0.413439214
14.63,-0.684079766,-0.196432114,-0.330085874
14.64,-0.88843137,0.311678886,-0.627388537
14.65,-0.957852006,1.206012726,-1.125609875
14.66,-1.021773577,1.905317307,-1.370238185
14.67,-1.014665842,1.908672333,-1.322541714
14.68,-1.048669338,2.910969734,-1.173480988
14.69,-0.693590581,3.146956444,-0.377072215
14.7,-0.337481052,2.95144558,0.115306675
14.71,-0.488993228,2.460697174,0.331306577
14.72,-1.18984437,1.559871674,0.400203228
14.73,-1.196275592,1.56092453,0.413763523
14.74,-2.022669554,-0.236666679,-1.366094828
14.75,-2.314239979,-0.664987564,-2.115736008
14.76,-2.300197124,-0.029947281,-1.818400025
14.77,-1.590418816,0.819186211,-0.988677204
14.78,-0.92184782,2.01908493,-0.518401086
14.79,-0.900277495,2.023047447,-0.484226406
14.8,-0.002658546,3.802111626,-0.350834608
14.81,0.396877736,3.979678154,0.330540538
14.82,0.815292239,3.883839607,0.907665193
14.83,1.114639044,3.701352119,1.397123814
14.84,1.209585905,3.367796898,1.503576159
14.85,1.030960917,2.696316719,1.123643637
14.86,0.67904067,1.878123283,0.539062858
14.87,0.674635649,1.879495621,0.551264167
14.88,0.220780134,-0.028687477,0.978926837
14.89,0.095013812,-0.908373833,1.373701811
14.9,0.463350952,-1.508316994,1.283061028
14.91,1.288936615,-1.753668308,1.19361043
14.92,1.877979398,-1.452522278,1.402784109
14.93,1.974111199,-0.837846756,1.428577781
14.94,2.006899357,0.027729034,1.680467844
14.95,2.199884892,0.870500565,1.875459909
14.96,2.019675255,1.675889015,1.879891157
14.97,1.766459227,2.231181145,2.009005547
14.98,1.751106143,2.225491524,1.96185863
14.99,0.997431874,1.534630775,1.976016521
15,0.472530425,0.721488953,1.540806293
15.01,0.023854196,-0.103475571,1.071785092
15.02,-0.197623134,-0.865706444,0.785826504
15.03,-0.112563506,-1.524142265,0.765562117
15.04,-0.123045221,-1.947167397,0.523248494
15.05,-0.071296409,-1.902351379,0.533399701
15.06,-0.079071999,-1.904770851,0.499288172
15.07,-0.174714252,-1.626778603,1.553912878
15.08,-0.14644444,-1.412815094,1.013909936
15.09,0.110594317,-1.268122673,1.116860986
15.1,0.470941722,-1.190568924,1.357795715
15.11,0.524597764,-1.127295494,0.730098963
15.12,0.426316381,-1.142589569,0.329949379
15.13,0.405368418,-0.997262955,0.512078464
15.14,0.499045581,-1.01968956,0.890509486
15.15,0.780732751,-1.020711899,1.278035998
15.16,0.82620436,-0.985993385,1.60687089
15.17,0.929305434,-0.948966026,1.707699537
15.18,1.013488054,-0.813742638,1.565964103
15.19,0.895180166,-0.61132431,1.295108557
15.2,0.805297971,-0.391986847,0.896815598
15.21,0.729894757,0.021414757,0.692640066
15.22,0.444348663,0.322443008,0.469673812
15.23,0.399990171,0.320623398,0.404961944
15.24,-0.210182026,1.090784073,-0.133388564
15.25,-0.281220138,1.176662445,-0.610787988
15.26,-0.370458424,1.222072601,-0.6421718
15.27,-0.093220867,1.10956955,-0.323996902
15.28,-0.015561286,0.860631943,-0.136175126
15.29,-0.026361354,0.575863838,0.046223193
15.3,-0.019753918,0.57606411,0.060246453
15.31,0.159745157,-0.194562912,0.05911658
15.32,0.272010207,-0.431231499,0.066684589
15.33,0.24235338,-0.421235085,0.078911409
15.34,0.110240176,-0.322605133,-0.036158755
15.35,-0.01847484,-0.04440403,-0.087046996
15.36,-0.010706544,-0.043899536,-0.070240825
15.37,0.005858518,0.674856186,-0.217640013
15.38,0.02547434,0.905150414,-0.265841007
15.39,-0.140226156,0.989367485,-0.226725727
15.4,-0.153163284,0.850856781,-0.213831723
15.41,-0.032979615,0.506286621,-0.162191331
15.42,-0.07090389,0.05384922,-0.065472901
15.43,-0.282186568,-0.413013458,0.223482013
15.44,-0.108726628,-0.908641815,0.283980101
15.45,-0.216956914,-1.23426342,0.266179651
15.46,-0.220876724,-1.234184265,0.269488633
15.47,-0.395402134,-1.437547684,-0.014842749
15.48,-0.425867111,-1.413378716,-0.182743281
15.49,-0.453725934,-1.228774071,-0.503345966
15.5,-0.504483402,-0.919579506,-0.719814837
15.51,-0.497875392,-0.919140816,-0.709475219
15.52,-0.52278316,-0.458942413,-0.514256775
15.53,-0.450534016,-0.025072098,0.114540488
15.54,-0.246404111,0.236515999,0.348812491
15.55,-0.506327212,0.34519577,-0.667343855
15.56,-0.413942665,0.439434052,-0.371358037
15.57,-0.428478837,0.504785538,-0.802565873
15.58,-0.423171103,0.505702019,-0.784432292
15.59,-0.651652157,0.406322479,-0.564333201
15.6,-0.705286622,0.405033112,0.023782194
15.61,-0.693817139,0.405925751,0.037514985
15.62,-0.535225391,0.03319931,0.189716518
15.63,-0.615369082,-0.174553871,0.291986257
15.64,-0.602003098,-0.174207687,0.293325931
15.65,-0.560802519,-0.398982048,0.163902998
15.66,-0.401826024,-0.595056534,-0.031717241
15.67,-0.379389793,-0.601992607,-0.098572791
15.68,-0.407182515,-0.594568253,-0.149211943
15.69,-0.293129921,-0.500958443,-0.066689432
15.7,-0.252408117,-0.323659897,0.15067479
15.71,-0.215628356,-0.211068153,-0.001513481
15.72,-0.194535613,-0.071998596,-0.244126022
15.73,-0.184428334,-0.071695328,-0.244351625
15.74,-0.318422109,0.184986115,-0.485406637
15.75,-0.417793602,0.329380989,-0.512169421
15.76,-0.372356266,0.354250908,-0.505238712
15.77,-0.360260159,0.355335236,-0.493752897
15.78,-0.390877873,0.208087921,-0.258380771
15.79,-0.210506529,0.103960991,-0.233896554
15.8,-0.199404687,0.105169296,-0.221336365
15.81,-0.25528729,0.041693687,-0.178635478
15.82,-0.225825638,-0.036267281,-0.182911098
15.83,-0.108383149,-0.123886108,-0.174473524
15.84,-0.068900973,-0.194972038,-0.151778936
15.85,0.060413599,-0.192006111,-0.105064988
15.86,0.139940977,-0.174931526,-0.055854976
15.87,0.035829663,-0.143634796,-0.04627496
15.88,0.013528466,-0.11712265,-0.072972655
15.89,0.017233729,-0.116980553,-0.073376536
15.9,-0.044017345,-0.155165672,-0.280067384
15.91,-0.0170497,-0.198148727,-0.273023725
15.92,-0.0847947,-0.126189232,-0.066721499
15.93,-0.014179409,-0.018382072,0.161117464
15.94,0.021908611,0.048740387,0.068851888
15.95,-0.081272304,0.06811142,-0.112104118
15.96,-0.29413569,0.046909332,-0.291263402
15.97,-0.345483124,0.011427879,-0.556232452
15.98,-0.46817106,-0.007317543,-0.697456896
15.99,-0.292673647,0.050696373,-0.052072585
16,-0.113615125,0.015040398,0.079650998
16.01,-0.113357335,0.015226364,0.082315862
16.02,-0.149623334,-0.015669823,0.083602905
16.03,-0.149855703,-0.015692711,0.083287835
16.04,-0.211873621,0.051337242,-0.259438872
16.05,-0.210082948,0.051769257,-0.254363477
16.06,-0.091068357,0.040228844,-0.167609751
16.07,-0.091433406,0.040389061,-0.165335417
16.08,-0.186744034,0.052410126,0.057083666
16.09,-0.129849494,-0.026621819,0.094961166
16.1,-0.054678142,-0.091433525,-0.024438083
16.11,-0.125398904,-0.03408432,-0.040357471
16.12,-0.127673864,-0.034100533,-0.039025366
16.13,-0.143048078,0.033069611,-0.041066051
16.14,-0.143290639,0.033297539,-0.037721395
16.15,-0.338754058,0.052742958,0.008958697
16.16,-0.243145078,0.041178703,-0.003687978
16.17,-0.10757193,-0.061356544,-0.092092752
16.18,-0.092638403,-0.101585388,-0.330030382
16.19,-0.092878044,-0.101094246,-0.323277414
16.2,-0.012329608,-0.110313416,-0.102296472
16.21,0.065241188,-0.052584648,-0.071406007
16.22,0.017980039,-0.009262085,-0.189255774
16.23,-0.014397293,0.055655479,-0.117705941
16.24,-0.031743795,0.036743164,-0.106983244
16.25,-0.07987681,0.029803276,-0.022081852
16.26,-0.079783589,0.030021667,-0.019322932
16.27,-0.165711254,-0.012896538,-0.012186944
16.28,-0.234888285,-0.098881722,-0.110283315
16.29,-0.26809895,-0.113006592,-0.064240932
16.3,-0.157658368,-0.177457809,-0.126562893
16.31,-0.112652868,-0.122217178,-0.193485737
16.32,-0.04903242,-0.071818352,-0.236730635
16.33,0.052302867,-0.021569252,-0.231473863
16.34,0.095262527,0.069207191,-0.04323101
16.35,0.05612272,0.123877525,0.142569125
16.36,0.117328525,0.116249085,0.033577144
16.37,0.113669395,0.115887642,0.031333148
16.38,-0.008636981,0.07978344,-0.022483051
16.39,-0.130824745,0.053285599,0.010500193
16.4,-0.13287583,0.038846016,-0.020346582
16.41,-0.010639668,0.055623055,-0.064441979
16.42,0.091700435,0.03174305,-0.076093614
16.43,0.076370984,-0.032842636,-0.010964274
16.44,-0.027050942,-0.099720001,-0.172503173
16.45,-0.153514862,-0.030041695,-0.496250689
16.46,-0.068414956,0.020467758,-0.016113877
16.47,0.240645602,-0.029881477,0.589801312
16.48,0.18852526,-0.068489075,0.279702395
16.49,-0.028603941,-0.087605476,-0.067210317
16.5,-0.062337935,-0.137796402,0.282500476
16.51,-0.064528137,-0.137952805,0.281880289
16.52,-0.021083623,-0.123586655,-0.423612535
16.53,0.113456726,-0.039469719,-0.346490264
16.54,0.073986948,0.030003548,0.074889183
16.55,0.069140077,0.055954933,0.30969128
16.56,0.029041171,0.055317879,0.319329351
16.57,-0.028114945,0.054591179,0.306481332
16.58,-0.118457377,0.075433731,0.063489497
16.59,-0.123447448,0.074912071,0.059294403
16.6,-0.270651996,0.05309391,-0.049990535
16.61,-0.27200079,0.053100586,-0.049306035
16.62,-0.06202063,0.015001297,0.061527252
16.63,0.066636562,-0.001422882,0.047139823
16.64,0.189640462,0.013347626,0.148819208
16.65,0.235303894,0.023314476,0.05168134
16.66,0.244300917,-0.026607513,0.033704281
16.67,0.209808514,0.004767418,0.153537631
16.68,0.193984568,0.055194855,0.375050634
16.69,0.184822619,0.045654297,0.279350936
16.7,0.094239563,0.031378746,-0.004778743
16.71,0.090485454,0.031698227,0.000632167
16.72,-0.182970941,0.000986099,-0.129400075
16.73,-0.181058794,-0.022529602,-0.075276554
16.74,-0.059596926,-0.041327477,0.138602257
16.75,-0.063061088,-0.041059494,0.143418133
16.76,-0.010878235,-0.021585464,0.179502845
16.77,-0.173214823,0.021997452,0.126071572
16.78,-0.173837334,0.022409439,0.131175637
16.79,-0.049726963,0.008357048,-0.022925556
16.8,-0.095270813,0.001505852,-0.050162852
16.81,-0.095465153,0.001773834,-0.047153175
16.82,-0.086205721,0.033096313,0.084489167
16.83,0.063181043,-0.012214661,0.156652868
16.84,-0.112358868,0.081455231,0.280093491
16.85,-0.028603375,0.017172813,0.095002949
16.86,-0.040755063,-0.092494965,0.02143085
16.87,0.100421503,-0.111176491,-0.018667579
16.88,0.037703931,-0.113166809,0.045868993
16.89,-0.048874587,-0.057797432,0.149926305
16.9,-0.090183675,-0.019351959,0.178063691
16.91,-0.086252332,0.055013657,0.131958664
16.92,-0.168943346,0.079115868,0.004907727
16.93,-0.169209003,0.079410553,0.008352339
16.94,-0.051288664,0.067867279,0.05344528
16.95,0.109369725,-0.017899513,0.642366052
16.96,-0.077757478,-0.065451622,0.12878108
16.97,-0.08407405,-0.024134636,-0.025310755
16.98,-0.094746917,-0.143321037,0.073352337
16.99,0.021502495,-0.102236748,0.141569197
17,-0.182909042,-0.056373596,-0.089529216
17.01,-0.22358492,0.006400108,-0.024997354
17.02,-0.222296923,0.006650925,-0.022803664
17.03,-0.060562611,0.066500664,0.06110698
17.04,-0.083713263,0.083071709,0.129128754
17.05,-0.137817949,0.116326332,0.248962939
17.06,-0.020147383,0.06579113,0.144020617
17.07,-0.049796671,0.068162918,0.064997256
17.08,-0.050095648,0.068234444,0.065971673
17.09,-0.159975976,0.073250771,0.077926576
17.1,-0.064719081,0.073531151,0.145641327
17.11,0.042077243,0.066672325,0.159078598
17.12,0.077511474,0.043022156,0.404026985
17.13,-0.093601763,0.067419052,0.255176127
17.14,-0.144725382,0.010550499,0.191364765
17.15,-0.118658155,-0.132382393,0.114294648
17.16,-0.051900864,-0.172307968,0.04721272
17.17,-0.049899757,-0.171545029,0.054172575
17.18,-0.1122334,-0.154144287,-0.004645705
17.19,-0.024079889,-0.14888382,-0.010219991
17.2,-0.018220514,-0.035951614,0.175429106
17.21,-0.187284023,-0.016512871,0.237728715
17.22,-0.228480697,-0.018559456,0.080119729
17.23,-0.22583136,-0.018099785,0.083780587
17.24,-0.271164566,0.044668198,-0.204008341
17.25,-0.227881789,0.025939941,0.055354774
17.26,-0.000925809,0.03810215,0.245731175
17.27,-0.03608796,0.071743965,0.244247019
17.28,-0.020527542,0.074302673,0.219109416
17.29,-0.018924505,0.074552536,0.221005023
17.3,-0.08903569,0.074893951,0.096776247
17.31,-0.078091115,0.075317383,0.028460383
17.32,-0.031820744,0.075732231,0.135298848
17.33,0.078846097,0.052322388,0.283868909
17.34,-0.102201134,0.004973412,0.434913814
17.35,-0.02081278,-0.083079338,0.283358872
17.36,-0.073661387,-0.135106087,-0.005850434
17.37,-0.09992075,-0.134422302,-0.124684095
17.38,-0.090594471,-0.071472168,-0.185933471
17.39,-0.206351221,0.039209366,-0.109651804
17.4,-0.214399785,0.051589966,-0.221139908
17.41,-0.258170188,0.078413963,-0.111878634
17.42,-0.258131057,0.081126213,0.265981317
17.43,0.047970682,0.04301548,0.597590089
17.44,0.115070611,-0.043066978,0.553006649
17.45,-0.005208671,-0.114738464,0.212328017
17.46,-0.096189946,-0.164704323,0.124237835
17.47,-0.018142819,-0.092660904,0.23815006
17.48,-0.016696721,-0.092540741,0.238873065
17.49,0.005502045,-0.101664543,-0.087684274
17.5,0.050655097,0.0111866,0.250627935
17.51,-0.029610664,0.080626488,0.30381459
17.52,-0.089081675,0.08278656,0.24239701
17.53,-0.165456086,0.079931259,0.334730506
17.54,-0.202679843,0.081765175,0.262993634
17.55,-0.157660037,0.078905106,0.089065015
17.56,-0.272142768,0.081172943,-0.017630458
17.57,-0.270107746,0.081454277,-0.015771627
17.58,-0.164024085,-0.025790215,0.049872756
17.59,-0.0670546,-0.049105644,0.1692186
17.6,0.046554983,-0.091474533,0.148355067
17.61,0.033194333,-0.018706322,0.253665507
17.62,-0.055889964,-0.046385765,0.197055459
17.63,-0.032162756,-0.054788589,0.043044806
17.64,-0.118787587,0.070912361,0.083296537
17.65,-0.141306222,0.055128098,0.119145036
17.66,-0.138545811,0.055850983,0.124436021
17.67,-0.033998579,0.037199974,0.063695908
17.68,-0.061906278,0.040048599,0.210900426
17.69,-0.104353219,-0.050662994,0.191553831
17.7,-0.258599907,-0.050465584,0.209374607
17.71,-0.25629133,-0.050424576,0.208935678
17.72,-0.141612858,-0.098250389,0.036231041
17.73,-0.132573575,-0.052605629,0.020157456
17.74,-0.111276239,-0.052488327,0.168877125
17.75,-0.094316512,0.021842003,0.187867641
17.76,-0.081834912,0.058084488,0.101053596
17.77,-0.107547164,0.022680283,-0.060916662
17.78,-0.104584813,0.023331642,-0.056400061
17.79,-0.06866926,0.074205399,-0.059450984
17.8,0.038316041,-0.030677795,0.164017916
17.81,0.139764667,-0.016043663,0.256971955
17.82,0.017537385,0.06790638,0.411589086
17.83,0.012925655,0.092007637,0.336291611
17.84,-0.046664953,0.058732986,0.204036474
17.85,-0.022184461,0.037472725,0.129771829
17.86,-0.017453462,0.004167557,0.136469364
17.87,0.051300108,-0.017260551,0.183171749
17.88,0.04926452,-0.017266274,0.183896542
17.89,-0.128318965,-0.096047401,0.106951714
17.9,-0.15138635,0.047913551,-0.072800159
17.91,-0.091389805,0.050667763,0.167235255
17.92,-0.11607194,-0.0090065,0.441972971
17.93,-0.11714074,-0.009153366,0.441058755
17.94,-0.064984322,-0.062015533,0.219418228
17.95,0.007219493,-0.033370018,0.295147181
17.96,0.03951031,-0.033449173,0.057078719
17.97,0.009708971,-0.040287972,0.073862553
17.98,-0.117963046,0.041596413,0.386080921
17.99,-0.063964754,0.02968502,0.505774796
18,0.019977778,-0.078297615,0.395959139
18.01,0.019444674,-0.078658104,0.39310956
18.02,0.07882899,-0.151023865,0.338595569
18.03,-0.015599877,-0.127710342,0.350531459
18.04,-0.1162588,-0.149658203,0.210709572
18.05,-0.102848887,-0.171170235,0.167189419
18.06,-0.00564611,-0.173485756,0.212964714
18.07,0.069407284,-0.199752808,0.220327675
18.08,0.069240421,-0.199663162,0.221127212
18.09,-0.012356669,-0.010335922,-0.01897943
18.1,-0.041891366,0.044760704,0.101201177
18.11,-0.043202758,0.044696808,0.101108313
18.12,-0.130286276,0.114017487,0.143698573
18.13,-0.204952151,0.140240669,0.1764099
18.14,-0.197746575,0.099379539,0.124764681
18.15,-0.214698523,0.094463348,-0.034207344
18.16,-0.21450153,0.094569206,-0.033415318
18.17,-0.13006708,0.018057823,0.134909391
18.18,-0.171914637,-0.087128639,0.169236481
18.19,-0.179222614,-0.115662575,0.088606238
18.2,-0.176193893,-0.115449905,0.089247465
18.21,-0.161286205,-0.100948334,0.062957168
18.22,-0.051646471,-0.089081764,0.135479927
18.23,-0.045662552,0.078297615,0.425264955
18.24,-0.03688547,0.061185837,0.373837233
18.25,0.00740099,0.013032913,0.129179955
18.26,0.026756555,0.000940323,0.041943312
18.27,-0.016657501,-0.05183506,0.103478432
18.28,-0.031768113,-0.035282135,0.178583622
18.29,-0.032837808,-0.035491943,0.177202344
18.3,0.046981454,-0.071572304,0.159671545
18.31,-0.006621957,0.000211716,0.245729744
18.32,-0.078854442,0.031388283,0.184092999
18.33,-0.036493391,0.091326714,0.022382975
18.34,-0.051479846,0.093658447,0.134709835
18.35,-0.038238198,0.079133034,0.171901822
18.36,-0.154285401,0.002361298,-0.006153107
18.37,-0.257426232,0.050284386,-0.032109618
18.38,-0.256353617,0.050409317,-0.031432748
18.39,-0.131785572,0.074549675,0.101948142
18.4,0.039534569,0.017086983,0.430429041
18.41,0.036966473,0.016882896,0.429672062
18.42,0.120787799,-0.08156395,0.55988127
18.43,0.002223879,-0.187125206,0.175379276
18.44,-0.06913209,-0.196706772,-0.342015505
18.45,-0.071028352,-0.146256447,-0.249723196
18.46,0.006799072,-0.038748741,0.234805942
18.47,0.003524303,-0.039455414,0.230001211
18.48,-0.055377603,0.096096992,0.426981926
18.49,-0.178231955,0.090576172,0.206356883
18.5,-0.100868702,0.058913231,-0.058770299
18.51,-0.102510035,0.058629036,-0.060569525
18.52,-0.127530307,0.05609417,-0.157169342
18.53,-0.140259266,0.075091362,0.141111314
18.54,-0.140766054,0.075031281,0.140723765
18.55,-0.010009438,0.070199966,0.298853576
18.56,0.072964519,-0.008514404,0.327964127
18.57,-0.030780107,-0.113394737,0.011711597
18.58,-0.100121468,-0.148763657,0.054658771
18.59,-0.099512964,-0.148244858,0.058798909
18.6,-0.046453416,-0.090434074,0.109656692
18.61,0.039689034,0.053435326,0.113841415
18.62,0.04361394,0.096553802,0.222026289
18.63,0.002096444,0.127674103,0.232033491
18.64,-0.130097777,0.091889381,0.020046115
18.65,-0.130188078,0.092191696,0.022748351
18.66,-0.170857161,0.030274391,-0.070165515
18.67,-0.166495591,-0.024669647,0.017228961
18.68,-0.07627216,-0.07265377,0.165211141
18.69,-0.020505548,-0.068079948,0.185361981
18.7,-0.019721925,-0.075514793,0.236607432
18.71,-0.054367542,-0.030233383,0.19210583
18.72,-0.088392168,-0.001719475,0.118607163
18.73,-0.147825509,-0.021060944,0.092948079
18.74,-0.146982342,-0.021198273,0.091341257
18.75,-0.019901961,-0.06198597,0.016291142
18.76,0.03535226,-0.05975914,0.105865479
18.77,0.047483772,-0.019302368,0.280808866
18.78,0.059697151,0.102604866,0.322176218
18.79,0.06001395,0.102773666,0.323427677
18.8,0.053481996,0.112669945,0.227857113
18.81,0.05170995,0.091535568,0.156847179
18.82,-0.052959532,0.02485466,0.11419487
18.83,-0.154781431,-0.049048424,0.21957165
18.84,-0.02484408,-0.123185158,0.088286281
18.85,-0.025671184,-0.123238564,0.088140845
18.86,-0.155219823,0.082560539,-0.061059475
18.87,0.002593964,0.087122917,0.511582673
18.88,0.142712563,0.019444466,0.760378659
18.89,0.140757322,0.018811226,0.755611837
18.9,-0.066038787,-0.024703979,0.227993608
18.91,-0.119244427,-0.087513924,0.089148045
18.92,-0.064261168,-0.059679985,0.399901211
18.93,0.026635915,-0.019539833,0.124421239
18.94,0.179922998,0.037480354,0.386323869
18.95,0.120460153,0.086941719,0.485031784
18.96,0.117518544,0.085930824,0.477118552
18.97,-0.242248327,0.103972435,0.410881639
18.98,-0.312998951,0.083754539,0.296339512
18.99,-0.279698283,0.039680481,0.059977651
19,-0.279148519,0.039006233,0.053444505
19.01,-0.1797584,0.06018734,0.090312123
19.02,-0.044121236,0.071998596,0.207934439
19.03,0.150832087,0.028862,0.379460692
19.04,0.065033317,0.071936607,0.276351333
19.05,-0.003497273,0.081690788,0.167515278
19.06,0.009784907,0.079638481,0.215555668
19.07,0.110793918,-0.013495445,0.244011462
19.08,0.127033919,-0.001355171,0.339135349
19.09,0.068734884,0.008277893,0.442828
19.1,-0.023394972,0.039334297,0.330301166
19.11,-0.129220933,0.03233242,0.116584063
19.12,-0.272132158,0.030333519,0.019403577
19.13,-0.26831454,-0.050608635,-0.015249729
19.14,-0.168702632,-0.095669746,0.031267285
19.15,-0.193904162,-0.083360672,0.1248402
19.16,-0.136980295,-0.097581863,0.171082556
19.17,-0.161392182,-0.080816269,0.131979287
19.18,-0.159490436,-0.080922127,0.130183637
19.19,-0.095884949,0.014627457,0.187565625
19.2,-0.056212306,0.122214317,0.199898839
19.21,-0.064352363,0.088623047,0.141171336
19.22,-0.127291262,0.081448555,0.205346823
19.23,0.040014744,-0.01184082,0.159770846
19.24,0.007622153,-0.021276474,0.301923335
19.25,0.037149876,-0.066642761,0.240484119
19.26,0.001064777,-0.020983696,0.091163278
19.27,-0.159523189,0.036705971,0.246647894
19.28,-0.106288344,-0.00387001,0.22352469
19.29,-0.106271684,-0.003774643,0.224357009
19.3,-0.010795832,0.013120651,0.118044972
19.31,0.000167519,0.084993362,0.214661241
19.32,-0.015038073,-0.008295059,0.227750182
19.33,-0.164333612,-0.075267792,-0.005938411
19.34,-0.170723796,-0.019927979,-0.207419992
19.35,-0.136078179,0.018661499,0.000634074
19.36,-0.135703504,0.018795013,0.001658797
19.37,0.054660678,-0.034135818,0.689441681
19.38,0.034985453,-0.046412468,0.007847309
19.39,-0.151171714,-0.089217186,-0.036694646
19.4,-0.158647686,-0.04604435,0.270558178
19.41,-0.158314496,-0.046201706,0.26894778
19.42,0.009011775,-0.189897537,-0.231572032
19.43,0.047860056,-0.12753582,-0.023919463
19.44,0.104309171,0.030176163,0.35522002
19.45,0.09896633,0.029308319,0.349497497
19.46,0.038918465,0.133800507,0.362745702
19.47,-0.105341077,0.125909805,0.197750688
19.48,-0.149494797,0.077542305,0.144377112
19.49,-0.086976707,0.036534309,0.180681229
19.5,-0.016971588,-0.0210886,0.144090235
19.51,0.065336883,-0.009015083,0.210179389
19.52,-0.003543168,0.03655529,0.360022068
19.53,-0.005146235,0.036595345,0.360927463
19.54,-0.001877725,0.065497398,0.090066254
19.55,-0.005537778,0.044273376,0.115117729
19.56,0.012329906,0.001472473,0.173432589
19.57,0.03502965,-0.003109932,0.218778789
19.58,-0.050146788,0.021036148,0.18047899
19.59,-0.010983467,0.030810356,0.125417054
19.6,-0.108402789,0.028698921,0.07585907
19.61,-0.121493578,0.045747757,-0.004978776
19.62,-0.122247309,0.046041489,-0.002064347
19.63,-0.125148058,0.03180027,0.111729145
19.64,-0.113246828,0.060600281,0.148346484
19.65,-0.112947255,0.06070137,0.149195731
19.66,-0.116893798,0.020218849,0.102928281
19.67,-0.1158095,0.020533562,0.10541594
19.68,-0.09975636,0.025620461,0.13139689
19.69,-0.080849171,0.013920784,0.147405028
19.7,-0.057713419,-0.045680046,0.151482165
19.71,0.027166963,-0.033514023,0.267766357
19.72,0.087350875,0.026465416,0.386038661
19.73,0.035258144,0.017076492,0.246285617
19.74,-0.01216647,0.031558037,0.144101083
19.75,-0.114707619,-0.004308701,0.070201755
19.76,-0.158190966,0.014725685,0.134037018
19.77,-0.057623506,0.016963959,0.118196011
19.78,-0.115401447,-0.002404213,0.011145234
19.79,-0.115105093,-0.002457619,0.010496378
19.8,-0.102599472,0.0645504,-0.033127189
19.81,-0.228551179,0.021437645,0.08617568
19.82,-0.09064132,-0.01680088,0.055172801
19.83,-0.099503249,0.04565239,-0.082238436
19.84,-0.098183393,0.046023369,-0.079362512
19.85,0.129846156,0.08700943,0.588555753
19.86,0.129150271,0.087012291,0.588743389
19.87,0.103448391,-0.085484505,0.2196697
19.88,-0.067929834,-0.039857864,0.23339349
19.89,-0.120770812,-0.032691002,0.12560153
19.9,-0.122070253,-0.001479149,-0.214031339
19.91,-0.080276281,-0.024990082,-0.344677806
19.92,-0.010836154,0.011198044,0.122177661
19.93,0.040712357,0.092391014,0.420133412
19.94,0.026302695,0.120581627,0.459192991
19.95,0.023802966,0.119988442,0.454874039
19.96,-0.118648768,0.117206574,0.190903544
19.97,-0.119119018,0.117056847,0.189678431
19.98,-0.097033054,-0.069559097,0.037519693
19.99,-0.096040547,-0.069173813,0.040646315
20,-0.030452281,-0.078299522,0.082568169
20.01,0.006405562,-0.104249001,0.325076163
20.02,0.029176235,-0.151773453,0.298994422
20.03,-0.13707915,-0.129616737,-0.043170691
20.04,-0.235283703,-0.114384651,-0.180107594
20.05,-0.232914031,-0.113483429,-0.17318213
20.06,-0.193228453,-0.079181671,-0.245852828
20.07,-0.104685634,0.100834847,0.02120924
20.08,-0.10531196,0.101086617,0.023727894
20.09,-0.139536709,0.199577332,0.136718154
20.1,-0.139706224,0.199959755,0.140093803
20.11,-0.105903506,0.092634201,0.126781464
20.12,-0.01514256,-0.048325539,0.225199699
20.13,-0.046808809,-0.119987488,0.260319352
20.14,-0.046819061,-0.119849205,0.261498928
20.15,-0.127137184,-0.172317505,0.076063037
20.16,-0.011089414,-0.174500465,0.019972801
20.17,0.001524061,-0.097744942,0.186200142
20.18,0.081551313,-0.035628319,0.321186185
20.19,0.003104895,-0.030975342,0.21698451
20.2,0.013613999,-0.006990433,0.121124625
20.21,-0.000121802,0.038549423,0.092576861
20.22,-0.018977314,0.040927887,0.022876382
20.23,0.038023233,0.012196541,0.001443624
20.24,0.120559365,0.055250168,0.181181967
20.25,0.118703216,0.055131912,0.180790961
20.26,0.138250321,0.093378067,0.293563247
20.27,-0.121375322,0.09352684,0.151353955
20.28,-0.121465921,0.093754768,0.153434873
20.29,-0.064087182,0.034257889,0.0080055
20.3,-0.097443104,-0.080359459,0.017722726
20.31,-0.183444381,-0.005878448,0.086780906
20.32,-0.132296592,0.094862938,0.305924058
20.33,-0.126288176,0.095019341,0.404947519
20.34,-0.038945973,0.013861656,0.277410269
20.35,0.061463654,-0.09600544,0.40421021
20.36,0.091530353,-0.199046135,0.255335033
20.37,0.089949816,-0.199226379,0.254415572
20.38,0.067785829,-0.029673576,0.284466207
20.39,-0.013427496,-0.032644272,0.06408155
20.4,-0.027684152,0.055720329,0.143610477
20.41,-0.090427727,0.093749046,0.390374064
20.42,-0.045656919,0.093306541,0.501909494
20.43,-0.008764565,0.092618942,0.242725372
20.44,-0.106368899,0.091991425,0.113531113
20.45,-0.133400321,0.091345787,0.20887506
20.46,-0.133007824,0.09077549,0.203772783
20.47,-0.141152859,0.016300201,0.177254617
20.48,-0.049826175,-0.02193737,0.200894594
20.49,0.06081599,-0.079184532,0.297409058
20.5,0.102042317,-0.122091293,0.537474811
20.51,0.104835451,-0.122050285,0.536813676
20.52,0.069177002,-0.102833748,0.220381379
20.53,0.035239726,-0.112366676,0.097956538
20.54,0.036662459,-0.112326622,0.097801685
20.55,-0.110564768,0.016907692,0.096883893
20.56,-0.142877221,0.090909958,0.123419762
20.57,-0.208493054,0.093186378,0.052263737
20.58,-0.146928489,0.090845108,0.042511821
20.59,-0.102087021,0.088624001,0.091302872
20.6,-0.10469681,0.052947044,0.272117317
20.61,-0.025422186,-0.001926422,0.284773171
20.62,-0.024687797,-0.030344963,0.248028934
20.63,-0.071485847,-0.089898109,0.194145441
20.64,-0.02720502,-0.104065895,0.158737481
20.65,-0.019322902,-0.132638931,0.233064652
20.66,0.045276523,-0.149467468,0.329710126
20.67,0.039943457,-0.171222687,0.272114337
20.68,0.024676681,-0.08516407,0.237001717
20.69,-0.024075449,-0.034956932,0.199831963
20.7,-0.02279681,-0.035033226,0.198638439
20.71,-0.021468192,-0.042500496,0.327344775
20.72,0.010275513,-0.00932312,0.213899851
20.73,-0.001552939,0.023773193,0.198255241
20.74,-0.008709162,0.071212769,0.127267718
20.75,-0.059299052,0.089914322,0.109194398
20.76,-0.064470708,0.089567184,0.132517099
20.77,-0.112372309,0.089289665,0.213817239
20.78,-0.112138212,0.08915329,0.212563992
20.79,-0.252598733,0.017418861,-0.15810132
20.8,-0.351225823,0.041631699,-0.096628308
20.81,-0.283798665,0.001093864,-0.060323119
20.82,-0.028039217,-0.092189789,0.155160487
20.83,-0.028421491,-0.092359543,0.153888524
20.84,0.185137242,-0.066562653,0.860911071
20.85,0.006987929,-0.050457954,0.505961776
20.86,-0.037762672,-0.077212334,0.102144301
20.87,0.004540116,-0.096429825,-0.282188773
20.88,-0.014067829,-0.079410553,-0.165262222
20.89,0.006296396,0.028385162,0.367303729
20.9,-0.007192314,0.111521721,0.690982282
20.91,0.007464558,0.101078987,0.498228073
20.92,0.003777981,0.10030365,0.49278152
20.93,-0.254137248,0.085473061,0.127715528
20.94,-0.196801812,0.00366497,0.126456559
20.95,-0.093395591,-0.027697563,0.143327653
20.96,-0.131523371,-0.066023827,0.217286468
20.97,-0.037553042,-0.02278614,0.199238181
20.98,-0.037279785,-0.02249527,0.201663971
20.99,0.039496571,-0.03652668,0.288460493
21,0.025460601,0.06199646,0.179219186
21.01,0.013871789,-0.006988525,0.185398221
21.02,-0.004962087,0.029335022,0.246342897
21.03,-0.084047675,0.010508537,0.165520191
21.04,-0.084060252,0.010814667,0.168297887
21.05,-0.091778815,0.046937943,0.127331436
21.06,-0.087990046,0.008785248,0.119561195
21.07,-0.117817313,0.064066887,0.186501384
21.08,-0.185457647,0.088195801,0.226704299
21.09,-0.232903838,0.047737122,0.068326116
21.1,-0.24764514,0.021854401,0.071588278
21.11,-0.220843464,-0.044688225,0.067525029
21.12,-0.07641992,-0.130460739,0.038888454
21.13,0.033509195,-0.082240105,0.170127392
21.14,0.087268949,-0.019849777,0.185363352
21.15,0.063763738,0.01139164,0.088083744
21.16,-0.057896823,0.088213921,0.156701028
21.17,-0.057119697,0.088371277,0.157790601
21.18,-0.130750954,0.067095757,0.128895581
21.19,-0.050928622,0.086504936,0.176164925
21.2,-0.074519455,0.038901329,0.125856459
21.21,-0.074149758,0.039326668,0.129465878
21.22,-0.03067112,0.051795006,0.131076098
21.23,0.00979948,0.059407234,0.163694441
21.24,-0.000249028,0.062270164,0.196577072
21.25,-0.000959516,0.062673569,0.200222731
21.26,0.026549846,-0.011183739,0.067457199
21.27,-0.123006046,-0.085078239,-0.022726893
21.28,-0.199833304,-0.053777695,-0.131273031
21.29,-0.168596923,0.013339043,-0.058753848
21.3,-0.058346331,0.018186569,0.307884097
21.31,-0.058588028,0.018159866,0.307785392
21.32,-0.076449484,-0.058534622,0.20704633
21.33,-0.060144603,-0.130066872,0.145076275
21.34,-0.095764726,-0.165727615,0.190210283
21.35,-0.063435942,-0.136799812,-0.172542334
21.36,0.040203273,-0.00951004,-0.246078014
21.37,0.044052213,0.076984406,0.307378709
21.38,0.097502261,0.10314846,0.646670759
21.39,-0.037305653,0.095533371,0.443131745
21.4,-0.143267453,0.066498756,0.197468996
21.41,-0.253660262,-0.036776543,0.059169889
21.42,-0.255825043,-0.037091255,0.057447314
21.43,-0.274147987,-0.037323952,0.04180038
21.44,-0.124239296,-0.006206512,0.151975632
21.45,-0.117452741,0.049008369,0.172681689
21.46,-0.116559595,0.049492836,0.176408649
21.47,0.016858637,0.086011887,0.27657932
21.48,-0.000867873,0.036400795,-0.008078814
21.49,-0.040081501,0.0134058,-0.163519263
21.5,0.016351402,-0.038243294,-0.031019568
21.51,0.057007611,0.00551033,0.223346174
21.52,0.053911895,0.05153656,0.359639108
21.53,-0.035642475,0.020882607,0.205729067
21.54,-0.057748556,0.038105965,0.073310971
21.55,-0.094049096,-0.023721695,-0.004569292
21.56,-0.094334334,-0.023414612,-0.001936555
21.57,-0.161809772,-0.080815315,-0.017968655
21.58,-0.088730872,-0.059243202,0.032762289
21.59,-0.090469837,-0.059272766,0.033326387
21.6,-0.113339305,-0.037773132,0.16752553
21.61,-0.173385292,0.034061432,0.191598654
21.62,-0.148560762,-0.018613815,0.126479268
21.63,-0.164268255,-0.059327126,0.138003469
21.64,-0.115177214,-0.085729599,0.149012685
21.65,-0.021089703,-0.03316021,0.07605803
21.66,-0.018647492,0.091234207,0.154241443
21.67,-0.018884808,0.091089249,0.153233767
21.68,0.04301092,0.10294342,0.252880871
21.69,-0.089161098,0.095805168,0.205547094
21.7,-0.07220915,0.031321526,0.098970294
21.71,-0.036480606,-0.033100128,0.014644504
21.72,-0.125555098,-0.052012444,0.074297309
21.73,-0.008669943,-0.006429672,0.233181655
21.74,-0.026587486,0.034077644,0.330224574
21.75,-0.027198613,0.033872604,0.328706086
21.76,0.019884318,0.079252243,0.323301315
21.77,-0.099657297,-0.011590004,0.128053904
21.78,-0.258683652,-0.001729012,-0.274830818
21.79,-0.032038391,0.01276207,0.0274055
21.8,0.100877821,0.007743835,0.782613397
21.81,0.182639197,-0.011842728,0.66959393
21.82,0.084886104,-0.014408112,0.017815709
21.83,0.083922803,-0.014177322,0.019895434
21.84,-0.135751039,-0.064443588,0.087000489
21.85,-0.007452518,-0.014324188,-0.048989058
21.86,-0.001933903,0.012156487,-0.012126207
21.87,0.033423454,0.052776337,0.226795673
21.88,-0.071972758,0.095456123,0.339214921
21.89,-0.118088484,0.097233772,0.462115705
21.9,-0.154428959,0.098732948,0.407919169
21.91,-0.101059556,0.076313972,0.123716831
21.92,-0.092355728,0.027904511,-0.059867859
21.93,-0.042521626,0.032554626,0.099520564
21.94,0.08401835,-0.010601997,0.180579782
21.95,0.106983781,-0.024860382,0.248903036
21.96,0.132024646,-0.031874657,0.327359319
21.97,0.068558276,-0.012608528,0.177862048
21.98,0.067671865,-0.01228714,0.180793405
21.99,-0.052671999,-0.004723549,0.133942485
22,-0.067902148,-0.028425217,0.200778723
22.01,-0.02204293,-0.023557663,0.101433754
22.02,-0.024651945,-0.02354908,0.10241282
22.03,0.034538358,0.014643669,0.157730222
22.04,-0.004865348,0.021678925,0.16009295
22.05,-0.161237836,0.093300819,0.17853117
22.06,-0.26822114,0.035665512,0.144102335
22.07,-0.187514007,-0.014771461,0.183813691
22.08,-0.171286851,-0.038908958,0.328515291
22.09,-0.125685453,-0.005663872,0.383611739
22.1,-0.124955684,-0.005952835,0.381079614
22.11,-0.057332307,0.037018776,0.149919391
22.12,-0.057036251,0.036831856,0.148350477
22.13,0.022087604,-0.008835793,0.120491386
22.14,-0.018919587,-0.001799583,0.107405186
22.15,0.023818165,0.081840515,0.22107029
22.16,0.0230425,0.081604958,0.219355226
22.17,-0.044957846,0.095663071,0.372989893
22.18,-0.040280372,0.054898262,0.22638911
22.19,-0.030102372,0.01422596,0.147458792
22.2,-0.02944538,0.014245987,0.147340059
22.21,-0.033724517,-0.043268204,0.170601845
22.22,0.021781892,-0.076769829,0.134814501
22.23,0.07678622,0.033247948,0.234241247
22.24,-0.002824843,0.061715126,0.311395407
22.25,-0.002966881,0.061532021,0.309924722
22.26,-0.051215678,0.027908325,0.074546337
22.27,-0.144559681,0.090179443,-0.112096071
22.28,-0.131691903,0.099834442,-0.157185197
22.29,0.017673731,0.09265995,0.113106608
22.3,0.132686615,0.066260338,0.675147533
22.31,0.132227182,0.066023827,0.673402667
22.32,0.035959035,-0.020108223,0.049245119
22.33,0.036297172,-0.019745827,0.051915169
22.34,-0.03637898,0.011479378,0.38281858
22.35,-0.070237905,-0.012413025,0.111941576
22.36,-0.084730774,-0.057632446,-0.075724363
22.37,-0.078423649,0.007235527,0.126677752
22.38,-0.0780738,0.006968498,0.12428999
22.39,-0.036180943,0.068644524,0.244522989
22.4,-0.147670776,0.103835106,0.315633595
22.41,-0.174655169,0.112823486,0.241375506
22.42,-0.209690183,0.069397926,-0.111201167
22.43,-0.208162814,0.069387436,-0.111983299
22.44,-0.129108548,-0.026306152,0.132151365
22.45,0.036181986,-0.05008316,0.252362013
22.46,0.062016517,-0.071273804,0.434240997
22.47,0.064422995,-0.070948601,0.436153472
22.48,0.069053978,-0.044135094,0.156839848
22.49,0.0715563,-0.043498039,0.161260009
22.5,0.061497182,-0.014191628,0.124615073
22.51,0.041398019,-0.016096115,0.130688429
22.52,0.020269513,0.048853874,-0.046502709
22.53,-0.039790154,0.096889496,0.110292435
22.54,-0.040619612,0.096821785,0.11003232
22.55,-0.116398394,0.096653938,0.183550477
22.56,-0.176786333,0.091826439,0.109121084
22.57,-0.217026919,0.012903214,0.025960326
22.58,-0.215510368,0.013139725,0.027263165
22.59,-0.198882937,-0.022592545,0.219590306
22.6,-0.069369733,0.025465965,0.212988496
22.61,-0.066757232,0.025643349,0.213358998
22.62,-0.125031591,0.059403419,0.204292834
22.63,-0.094087094,0.045334816,0.001554608
22.64,-0.109089404,0.084040642,0.005744934
22.65,-0.105113804,0.08434391,0.006814718
22.66,0.10850969,0.077332497,0.186624408
22.67,0.045348376,0.046352386,0.227944315
22.68,-0.06049636,0.017745972,0.125428796
22.69,-0.137128383,0.00844574,0.074055314
22.7,-0.13465324,0.008724213,0.075345993
22.71,-0.063531786,-0.014955521,0.103131414
22.72,0.004816979,-0.098628044,0.216373801
22.73,0.008083344,-0.124775887,0.291682303
22.74,-0.103626877,-0.012064934,0.158857346
22.75,-0.09816733,0.007200241,0.171479821
22.76,-0.098003358,0.007177353,0.1711303
22.77,-0.038516194,-0.074295998,-0.032816768
22.78,-0.151859045,0.035651207,0.061784029
22.79,-0.099034756,0.071172714,0.240484357
22.8,-0.060244441,0.065962791,0.330232322
22.81,-0.045911193,0.08242321,0.37087369
22.82,-0.127477884,0.03421402,0.411302865
22.83,-0.07931155,-0.035632133,0.233012021
22.84,0.066998482,-0.023976326,0.302244365
22.85,-0.085954577,0.049886703,0.311074555
22.86,-0.000399023,0.042479515,0.116897464
22.87,0.081716239,0.013940811,0.163682222
22.88,0.038652301,0.050023079,0.397265434
22.89,0.013520062,0.052116394,0.428826571
22.9,0.011624157,0.051592827,0.425248742
22.91,-0.110103548,-0.013721466,0.324553728
22.92,-0.183230609,-0.011898994,0.102407694
22.93,-0.183613747,-0.012143135,0.100622535
22.94,-0.224047244,-0.079228401,0.04743588
22.95,-0.131760716,-0.062397957,0.145665407
22.96,-0.044022262,-0.02159214,0.198496699
22.97,0.129260451,0.033653259,0.374480665
22.98,0.129351348,0.033864975,0.376306713
22.99,0.09124428,0.084527016,0.082432747
23,-0.070964038,0.096823692,0.077640533
23.01,-0.029569864,0.077933311,0.022234917
23.02,-0.101268053,0.087779045,0.029173851
23.03,-0.101029843,0.088029861,0.031178236
23.04,-0.098502904,0.102535248,0.168785214
23.05,-0.185010403,0.097877502,0.215468884
23.06,-0.184433192,0.098108292,0.217267513
23.07,-0.116907746,-0.143465042,0.135285735
23.08,-0.080241054,-0.188737869,0.22778213
23.09,-0.057818145,-0.215097427,0.224914968
23.1,-0.05742389,-0.215229034,0.223539054
23.11,0.10069412,-0.091015816,0.3313784
23.12,0.126695931,-0.03393364,0.361852348
23.13,0.0755952,-0.005570412,0.215416491
23.14,0.075137496,-0.005764961,0.213882744
23.15,-0.129838109,0.056419373,0.18904388
23.16,-0.092981756,-0.015387535,-0.093701005
23.17,-0.102070749,0.001452446,-0.004546285
23.18,0.010271937,0.013360977,0.246329963
23.19,0.009328812,0.013186455,0.245204151
23.2,0.067977756,-0.015707016,0.304082513
23.21,0.035978019,-0.001374245,0.201273084
23.22,-0.086547613,-0.05648613,0.208330274
23.23,0.052058458,-0.082957268,0.149834871
23.24,0.029176384,-0.073576927,0.172744751
23.25,0.030017018,-0.033094406,0.293569684
23.26,0.023455024,-0.062149048,0.231671631
23.27,0.021412134,-0.062439919,0.2300753
23.28,-0.159601659,-0.062642097,-0.115928412
23.29,-0.198757619,0.047276497,-0.028899074
23.3,-0.146945149,0.046881676,0.145336509
23.31,0.01193893,-0.001536369,0.296985567
23.32,0.183204502,0.028821945,0.715656459
23.33,0.179442823,0.027861595,0.708940327
23.34,-0.09608376,-0.049585342,0.269398212
23.35,-0.148974598,-0.033334732,0.001701236
23.36,-0.14789325,-0.033597946,-0.001071692
23.37,-0.00673449,-0.019276619,0.015358567
23.38,-0.009354025,-0.019750595,0.01227057
23.39,0.00849849,0.118335724,0.68442595
23.4,-0.110221684,0.088716507,0.402718306
23.41,-0.337561399,0.088031769,0.179758012
23.42,-0.260906607,-0.044221878,-0.083869219
23.43,-0.196209163,-0.104502678,-0.061447859
23.44,-0.095548213,-0.114533424,0.138039827
23.45,-0.033648968,-0.083842278,0.287509143
23.46,-0.033995003,-0.084141731,0.284953654
23.47,-0.00779739,0.028330803,0.373137832
23.48,0.081320643,-0.019572258,0.296125948
23.49,0.050429463,-0.033900261,-0.019851089
23.5,-0.035532653,-0.050461769,0.037024617
23.51,-0.035707414,-0.050356865,0.03806448
23.52,0.087925971,-0.009669304,0.203491509
23.53,0.086215675,-0.009676933,0.204053819
23.54,-0.211702019,0.086203575,0.092930377
23.55,-0.27402857,0.09832859,-0.013431907
23.56,-0.273944706,0.098499298,-0.011842608
23.57,-0.206510425,0.022092819,0.030476332
23.58,-0.189202786,0.005422592,0.148374438
23.59,-0.116221279,-0.039978027,0.177471101
23.6,-0.110338241,-0.068658829,0.172793567
23.61,-0.109085321,-0.068638802,0.17245692
23.62,-0.143973321,-0.068629265,0.162514985
23.63,-0.068924606,-0.092640877,0.142413914
23.64,-0.064006537,-0.028148651,0.19612205
23.65,-0.063165993,-0.028331757,0.194129944
23.66,-0.071882397,0.026612282,-0.018107533
23.67,-0.08846435,0.02170372,0.011937857
23.68,-0.057481974,0.014334679,0.177832604
23.69,-0.08443886,0.042778015,0.247354865
23.7,-0.142296612,0.018549919,0.216200769
23.71,-0.09707281,-0.019965172,0.051661015
23.72,-0.097598612,-0.020003319,0.051451683
23.73,-0.07273224,-0.017611504,0.011239529
23.74,-0.08145237,0.03975296,0.188280284
23.75,-0.080549151,0.027632713,0.292909443
23.76,-0.08149901,0.027554512,0.292506039
23.77,-0.103607178,-0.029807091,0.011161804
23.78,-0.116588593,-0.079949379,-0.164378405
23.79,-0.222762048,-0.046351433,-0.278250456
23.8,-0.223340452,-0.046373367,-0.278265595
23.81,-0.052145928,0.077917099,0.349951029
23.82,-0.05496186,0.077373505,0.346103787
23.83,0.082492173,9.05991E-05,0.679208517
23.84,0.019116193,-0.028877258,0.371831179
23.85,-0.003055871,-0.103303909,0.179615915
23.86,-0.129537106,-0.053232193,-0.221393466
23.87,-0.128285229,-0.012516975,-0.199211955
23.88,-0.060673237,0.075972557,0.322462857
23.89,0.015110374,0.087373734,0.557980955
23.9,0.010462254,0.081985474,0.37455672
23.91,-0.063331068,0.081437111,0.287307143
23.92,-0.066666037,0.052136421,0.194692195
23.93,-0.069519967,0.051654816,0.191274464
23.94,-0.093118966,-0.053883553,-0.025304437
23.95,-0.24193427,-0.061090469,-0.082865715
23.96,-0.103510886,0.039480209,0.137634873
23.97,0.008566171,0.044402123,0.179768503
23.98,0.067529589,-0.01044178,0.220629394
23.99,0.087696552,0.064029694,0.113224328
24,0.007084489,0.042740822,-0.00347209
24.01,0.005884469,0.043000221,-0.00068748
24.02,-0.009980798,0.08154583,0.088222086
24.03,-0.011160672,0.055533409,0.141869903
24.04,-0.023849815,0.075013161,0.109290421
24.05,-0.024081588,0.075350761,0.112404764
24.06,-0.079463482,0.035100937,0.09266293
24.07,-0.200918019,0.040351868,0.142185092
24.08,-0.211123556,0.007277489,0.059410572
24.09,-0.209077716,0.00775528,0.062997222
24.1,-0.037326545,-0.082808495,0.228961408
24.11,-0.035583496,-0.082612038,0.230138719
24.12,-0.082136303,-0.015511513,0.299667358
24.13,-0.053466737,0.00377655,0.141956806
24.14,-0.051345199,0.00390625,0.142415643
24.15,-0.042467594,-0.027130127,0.092324018
24.16,0.075767547,-0.072660446,0.115447283
24.17,0.100211531,-0.087135315,0.19102186
24.18,0.016434699,-0.104059219,0.127332807
24.19,0.016747713,-0.10418129,0.126190066
24.2,-0.028501809,-0.125835419,0.029193401
24.21,-0.126277477,-0.104355812,0.095434606
24.22,-0.087120354,-0.104458809,0.079892278
24.23,-0.071727127,-0.118843079,0.077039719
24.24,-0.070465446,-0.11868763,0.077928185
24.25,-0.107226044,-0.154396057,0.131904006
24.26,-0.088940203,-0.146910667,-0.019262791
24.27,-0.079633504,-0.144207954,-0.148847699
24.28,-0.078308105,-0.143985748,-0.14738059
24.29,-0.120636702,-0.069716454,-0.094581962
24.3,-0.239984244,-0.010044098,-0.342926025
24.31,-0.224490196,0.064100266,-0.286557674
24.32,-0.223176777,0.064025879,-0.287745357
24.33,-0.23419857,0.044693947,0.026261926
24.34,-0.107935935,-0.187833786,-0.157928824
24.35,-0.187084675,-0.182705879,-0.636046767
24.36,-0.185695261,-0.182283402,-0.632813811
24.37,-0.295994163,-0.184409142,-0.207513213
24.38,-0.055571526,-0.124191284,0.063467622
24.39,0.031030059,-0.221652985,-0.298984051
24.4,-0.021150649,-0.163468361,-0.194642782
24.41,-0.122544289,-0.115124703,-0.214185119
24.42,-0.124008805,-0.11464119,-0.209524155
24.43,-0.18070063,-0.051985741,-0.212548733
24.44,-0.220422983,-0.042022705,-0.227860928
24.45,-0.32378453,0.028208733,-0.297303319
24.46,-0.327253491,-0.008897781,-0.452708721
24.47,-0.324541032,-0.007156372,-0.438846827
24.48,-0.230351895,-0.096237183,-0.41686213
24.49,-0.192436129,-0.170783043,-0.190662742
24.5,-0.099166572,-0.317200661,-0.012779593
24.51,-0.149867356,-0.3748703,-0.437188029
24.52,-0.144249499,-0.372029305,-0.416615725
24.53,-0.194472492,-0.649056435,-0.533778667
24.54,-0.156454563,-0.751292229,-0.531442285
24.55,-0.150072157,-0.748287201,-0.510881186
24.56,0.053478211,-0.676410675,-0.417859197
24.57,0.054966092,-0.674448967,-0.403933048
24.58,0.091381222,-0.421809197,-0.078138828
24.59,0.057926714,-0.244161606,-0.219196081
24.6,-0.092536867,-0.121705055,-0.468194366
24.61,-0.099187851,-0.12137413,-0.463722825
24.62,-0.418351024,0.036884308,-0.551159501
24.63,-0.443579376,0.032583237,-0.711814642
24.64,-0.505074918,0.081510544,-0.761324644
24.65,-0.537433624,0.190844536,-0.786274314
24.66,-0.591173649,0.427615166,-0.873138428
24.67,-0.723199546,0.720020294,-1.081706285
24.68,-0.78368777,1.118618965,-1.13042593
24.69,-0.725684643,1.304710388,-1.054675579
24.7,-0.530070305,1.363664627,-0.751621008
24.71,-0.324566484,1.218058586,-0.237219572
24.72,-0.284835637,0.864676476,-0.09812367
24.73,-0.404665709,0.385373116,-0.324577689
24.74,-0.684199989,0.204557419,-0.719355702
24.75,-1.142164469,0.267618179,-1.206540942
24.76,-1.122241855,0.265377998,-1.229145646
24.77,-1.207509279,1.42318821,-2.142273903
24.78,-1.370201111,2.309324265,-2.22429657
24.79,-1.466389656,2.929256439,-2.126331568
24.8,-1.389823556,3.108613968,-1.868114233
24.81,-1.020028114,2.663387299,-1.35709691
24.82,-0.628932655,1.661035538,-0.740853548
24.83,-0.035881758,0.235816002,-0.485722244
24.84,0.24383235,-1.162089348,-0.542506635
24.85,0.596592188,-2.626119137,-0.056791544
24.86,0.606913686,-2.631644726,-0.139006913
24.87,0.827285409,-3.93721056,0.020314038
24.88,0.801244974,-5.74514389,0.28154397
24.89,0.810634136,-5.749854088,0.159523249
24.9,0.463951886,-6.840650558,1.194177985
24.91,0.566131473,-7.228339195,1.806690216
24.92,0.861550927,-7.427286148,2.295502901
24.93,0.997957707,-7.286453724,2.461176395
24.94,0.729691386,-7.037942886,2.323570728
24.95,0.270133197,-6.856851578,1.868953705
24.96,0.259917259,-6.848736763,1.728467345
24.97,-0.082058609,-6.645277023,1.030404687
24.98,0.535877109,-6.167770386,0.150993764
24.99,0.950554967,-5.710642338,-0.0461303
25,1.32370615,-5.254666805,0.147870421
25.01,1.352033138,-4.246875763,0.395522595
25.02,1.451542616,-3.187636852,0.492110133
25.03,1.274690628,-2.467151165,0.534390569
25.04,1.16462183,-1.948077679,0.722885013
25.05,1.052479863,-1.668828964,-0.069211006
25.06,0.45615083,-1.67453289,-1.007032394
25.07,0.403893381,-1.653767586,-1.115089417
25.08,0.167976096,-1.787366867,-1.877645254
25.09,0.154880405,-1.608976364,-1.514052391
25.1,0.106198497,-1.584231377,-1.619593143
25.11,1.971705317,-0.272438049,-1.245648861
25.12,3.355714798,1.377025604,-1.517243624
25.13,3.272930861,1.402899742,-1.608871937
25.14,3.199593306,7.758882523,-3.522031784
25.15,1.718888998,12.66509533,-5.499411583
25.16,1.63155973,12.68727875,-5.561923504
25.17,0.825227439,20.25559235,-0.906271219
25.18,-1.220876932,19.5004921,2.627760887
25.19,0.405448496,14.17378044,2.210691214
25.2,0.819580495,9.338833809,-0.848782778
25.21,0.76542306,9.371447563,-0.928389311
25.22,-0.487201989,2.493376732,-2.732804298
25.23,-0.66199863,1.119269371,-2.906916142
25.24,-0.512783885,0.300771713,-2.575671673
25.25,-0.769233227,0.403132439,-2.036710262
25.26,-1.117093444,0.394779205,-1.014983177
25.27,-2.09766674,1.029208183,0.108010054
25.28,-2.096654415,1.046068192,0.067740679
25.29,-2.400763512,1.514500618,0.508008957
25.3,-2.12924242,1.790269852,0.653353691
25.31,-1.580025315,0.736897469,1.7971735
25.32,-1.564342022,0.750687599,1.762502432
25.33,-1.550164342,-1.807956219,2.146798849
25.34,-1.806686521,-3.138183594,1.17297411
25.35,-1.81006074,-3.853077888,0.655087471
25.36,-2.14192152,-4.447716236,0.621408463
25.37,-2.327037096,-4.484519482,1.212144375
25.38,-2.412641287,-3.759568691,2.036539555
25.39,-2.577212811,-1.918839455,1.171912193
25.4,-2.497641563,-1.916604996,1.154421806
25.41,-1.944510102,3.479182243,-0.443503618
25.42,-1.804745913,3.472744942,-0.445745707
25.43,-4.988398075,6.829491615,3.223525047
25.44,-4.993698597,8.12107563,4.304374218
25.45,-4.794733524,8.145438194,4.258590698
25.46,-2.899097443,9.038215637,3.869718552
25.47,-0.394649446,9.219781876,1.763271809
25.48,1.089694262,9.504685402,1.013845921
25.49,0.484979928,9.417360306,1.818557262
25.5,-0.805062354,9.968938828,0.353708744
25.51,-2.312754869,10.15982628,-2.013897657
25.52,-3.565366745,9.163787842,-3.424163818
25.53,-4.21106863,7.398720741,-3.06844759
25.54,-1.161656618,4.096253395,-1.108988523
25.55,2.269078255,0.248552322,2.753768444
25.56,5.236471653,-2.79263401,5.061302185
25.57,6.883446217,-5.441961765,4.207262993
25.58,6.888593674,-7.494443893,1.353771448
25.59,4.852993488,-8.440436363,-1.840129495
25.6,2.767393827,-8.718736649,-6.049793243
25.61,2.626906633,-8.75086689,-5.958117008
25.62,0.631312192,-8.459673882,-8.562008858
25.63,-1.188288689,-7.694763184,-3.746382952
25.64,-2.367076397,-8.424098969,-1.264311075
25.65,-3.159769535,-8.733181,-0.480533123
25.66,-2.144682407,-8.953425407,-1.850284338
25.67,-1.399966359,-9.152443886,-3.451011181
25.68,0.609190345,-8.777105331,-5.01360321
25.69,3.948611259,-7.169827461,-7.351116657
25.7,6.550512314,-4.103936672,-6.800239563
25.71,9.268234253,1.007135391,-3.955320835
25.72,9.560455322,6.109862328,0.112603664
25.73,6.59078598,9.861438751,5.545337677
25.74,2.369048357,11.16579151,9.413165092
25.75,0.811725855,9.936249733,7.494924545
25.76,0.92442137,9.921146393,7.501759529
25.77,2.27055645,8.347618103,1.149778843
25.78,0.849549413,8.214409828,-2.614935637
25.79,0.523280323,8.573800087,1.254931927
25.8,1.377631187,8.87557888,4.823130608
25.81,1.330323339,7.77508831,5.955241203
25.82,-1.433386803,6.043424606,6.988391399
25.83,-4.451520443,2.679496765,9.476425171
25.84,-4.403539658,2.639059067,9.564053535
25.85,-8.607174873,-7.02862072,3.009598017
25.86,-8.598299026,-10.71028996,-2.50443387
25.87,-7.808345318,-13.32345104,-6.095960617
25.88,-5.480908394,-13.64282513,-7.358381271
25.89,-5.435776711,-13.65826988,-7.320338249
25.9,-3.585807562,-12.91455936,-6.652924538
25.91,-2.74347496,-11.74328327,-3.623838425
25.92,-5.495047092,-10.76190376,-0.433560848
25.93,-7.497918606,-11.10135937,1.713378906
25.94,-5.079572678,-10.14128304,-0.208216667
25.95,-2.85607934,-7.567128658,-1.274721146
25.96,-0.80491823,-4.81743145,-1.368439436
25.97,2.249811888,-1.573496342,-0.594938517
25.98,5.74746418,2.678519249,2.568820477
25.99,5.767557144,2.690128326,2.543503284
26,7.399445534,9.960343361,6.835790157
26.01,3.116111994,11.50835419,10.42211533
26.02,2.433858156,11.43132496,12.63209152
26.03,2.41638422,11.44948196,12.59460258
26.04,-1.003981948,12.45588684,11.09186077
26.05,-4.05725193,12.91976929,4.237919331
26.06,-3.968257904,12.86993599,4.345538139
26.07,-5.354136944,13.33206749,-5.140702724
26.08,-5.281778336,13.28629017,-5.031088829
26.09,-0.817589819,10.12597179,-0.872819662
26.1,1.567831635,7.985275269,0.589991093
26.11,3.33092165,5.157435417,1.424665689
26.12,3.690473795,2.879876137,5.024068832
26.13,3.340248108,1.062636375,7.480302334
26.14,2.914418221,-1.326042175,7.842335701
26.15,2.702872753,-4.383116245,5.383045197
26.16,2.405908585,-7.462657928,1.859679461
26.17,1.73255682,-10.3452282,-1.81096673
26.18,0.846811712,-12.41029644,-5.390460968
26.19,0.803899646,-12.45302868,-5.261884689
26.2,0.863966763,-13.98766327,-8.040922165
26.21,0.833093464,-14.02265549,-7.924617767
26.22,1.747351527,-14.72790527,-3.856213331
26.23,2.496284962,-15.24564648,-1.423774123
26.24,3.217128992,-15.04389572,-0.486736059
26.25,3.154235363,-15.02693558,-0.546872377
26.26,1.683222175,-12.73041534,-0.838265777
26.27,0.496969611,-10.38979244,-4.83347702
26.28,0.489444166,-10.38408756,-4.851988792
26.29,0.219011068,-7.306384087,-8.553688049
26.3,1.224990845,-2.574612617,-8.207061768
26.31,13.89336872,7.581267357,4.568720818
26.32,15.50932121,11.31218338,5.115569115
26.33,11.89115524,13.87123775,5.988103867
26.34,6.509296894,15.43740082,7.401019096
26.35,-3.191733122,17.367836,4.295381546
26.36,-3.081146955,17.34850121,4.352283955
26.37,0.87606138,11.8457098,0.279010296
26.38,-0.067274302,9.014967918,-0.844837546
26.39,-0.053348076,7.754934311,1.325912952
26.4,0.332453191,8.63127327,4.41873455
26.41,1.450942993,9.302227974,5.904671669
26.42,1.18585372,8.035038948,7.256580353
26.43,0.18515937,4.549604416,11.91444778
26.44,-0.402395546,1.424049377,16.98550797
26.45,-2.663226843,-3.829924107,17.09931564
26.46,-2.55527997,-3.863036633,17.21600914
26.47,-4.165370464,-8.658759117,12.67161942
26.48,-6.537145615,-14.89726639,-9.840723991
26.49,-7.723506451,-14.5551815,-15.60813141
26.5,-7.631570816,-14.58296585,-15.47136974
26.51,-4.134840488,-12.73214817,-6.318946838
26.52,-3.720659256,-13.61203575,-1.324696422
26.53,-3.667701483,-13.90533161,1.670866489
26.54,-3.821025848,-14.02059174,2.33962965
26.55,-4.184885025,-13.01483345,1.560780287
26.56,-4.041877747,-11.55724907,0.564549923
26.57,-4.0200243,-11.54340649,0.518701792
26.58,-2.707781076,-10.21731472,-1.349541903
26.59,-0.308288336,-8.50567627,-3.987673283
26.6,0.069934189,-6.178099155,-4.104961872
26.61,0.055424094,-3.452419281,-3.043847322
26.62,0.351641953,0.448373795,0.423060894
26.63,0.350216031,0.447605133,0.425694227
26.64,5.332073212,4.276824951,6.238584995
26.65,5.193984985,15.92008305,3.402976751
26.66,5.164766312,15.93207264,3.34980154
26.67,4.439086437,19.18987846,5.514266014
26.68,2.207036257,21.29474449,14.47855854
26.69,-8.723656654,23.83742142,12.39767361
26.7,-10.1824131,20.98989105,-2.706504822
26.71,-6.665067196,15.26335239,-8.452960968
26.72,-1.322419763,8.828698158,-4.610269547
26.73,1.796051502,3.93552494,0.973303318
26.74,2.661509037,0.825725555,2.367050886
26.75,2.617401123,0.812526703,2.408750057
26.76,3.705471277,-1.949848175,4.460161209
26.77,6.197740555,-6.319723129,7.2227211
26.78,4.813232899,-7.651498318,4.609548569
26.79,2.711877584,-9.069256783,0.170036078
26.8,0.491701663,-10.94112587,-4.410545349
26.81,-0.928160667,-12.38648319,-6.097252369
26.82,-0.260486305,-13.96388149,-5.229561329
26.83,1.624255776,-15.60454559,-2.858259678
26.84,2.932052374,-16.83482361,-1.759909749
26.85,2.879890442,-16.84117699,-1.7290411
26.86,3.987724304,-18.07869911,-1.534849167
26.87,2.77852726,-18.17588425,-3.771882772
26.88,2.689097166,-18.1596756,-3.864126682
26.89,0.081776805,-15.50245476,-5.843111038
26.9,-0.88386184,-7.421940327,-4.921906471
26.91,0.674175203,-3.565415382,-4.218487263
26.92,2.977767229,-0.401508331,-4.879249573
26.93,6.191137314,5.602264404,-2.2361691
26.94,6.177154064,5.613028526,-2.283640862
26.95,11.91332054,12.89269161,6.170204163
26.96,6.0969491,13.96436119,9.052740097
26.97,0.881356537,13.44966125,12.18678665
26.98,0.923861146,13.46641922,12.10844231
26.99,1.278145075,12.85233879,3.482750177
27,0.266039848,14.02107716,-2.477357626
27.01,-2.638337374,15.16831398,-2.547371149
27.02,-2.545619011,15.17844868,-2.59355998
27.03,-1.970625162,17.03417206,1.016461134
27.04,0.506081522,16.51370049,5.679650307
27.05,0.267989129,10.7354517,14.72163582
27.06,0.319898605,6.470581055,12.14856529
27.07,-0.291549802,1.04235363,7.86288929
27.08,-0.196426183,0.99051857,8.06798172
27.09,-2.186036825,-9.394922256,3.886850834
27.1,-3.195276737,-13.89832115,-0.809242964
27.11,-4.235037327,-17.18405151,-5.378919125
27.12,-4.177923679,-18.27140808,-8.485689163
27.13,-3.585268497,-19.35801315,-7.258956909
27.14,-2.505431175,-18.22288895,-3.982402802
27.15,-1.908287048,-17.49816895,-1.010461569
27.16,-1.863901138,-16.02631378,0.759545088
27.17,-3.835472584,-14.60494423,1.517638326
27.18,-5.783450603,-13.54079533,1.435043812
27.19,-5.041298866,-11.97294807,0.36851716
27.2,-3.143881559,-10.38995934,0.180397272
27.21,-2.071260691,-8.875294685,-0.612628102
27.22,-2.16095376,-6.921489716,-1.66651237
27.23,-1.076247692,-3.213832378,-0.553930044
27.24,4.893833637,1.529836655,2.960479736
27.25,6.936540604,4.61793232,3.21414566
27.26,5.097198009,10.98124027,1.25081706
27.27,0.577938914,15.86393642,1.871157408
27.28,0.552506089,15.89707661,1.731127024
27.29,-6.581731796,20.79647827,18.8834095
27.3,-12.23829842,21.01618195,20.94945717
27.31,-13.04408932,19.18319321,9.517477036
27.32,-12.97297668,19.17222595,9.55947876
27.33,-9.965632439,13.6048851,-6.72234869
27.34,-9.932707787,13.57511616,-6.605669022
27.35,-2.053464651,7.412238121,-0.153311014
27.36,0.783248544,4.1340065,1.905339718
27.37,3.684550762,1.283269882,3.901514053
27.38,6.192503452,-0.939950943,5.335305214
27.39,6.134797096,-0.947659493,5.364813328
27.4,7.594247341,-3.175114632,7.169695854
27.41,6.556159496,-4.938176155,6.347175598
27.42,2.223403931,-8.841867447,-0.311740041
27.43,1.159050703,-10.43512821,-3.415515661
27.44,1.809917808,-11.86189651,-4.720576286
27.45,1.924758792,-13.21033764,-5.381773949
27.46,2.519565821,-14.18031693,-5.172784805
27.47,3.740225315,-14.66669559,-3.535780668
27.48,3.673090935,-14.66480064,-3.535587311
27.49,4.018739223,-15.40391159,-0.984460771
27.5,1.557447076,-14.36200905,-0.55392766
27.51,-1.291232586,-12.61978531,-1.781303048
27.52,-2.252700806,-10.2023716,-4.936001778
27.53,-2.075123072,-7.005819321,-7.122034073
27.54,-1.089928627,-3.222280979,-5.730597496
27.55,5.640826225,2.980569839,-0.150964856
27.56,16.40335083,6.01831913,7.557415009
27.57,16.17131042,9.834986687,6.460097313
27.58,9.761948586,13.27589607,2.521155834
27.59,1.75567925,16.98608398,4.792951584
27.6,-4.269814491,18.84089661,11.54190063
27.61,0.849491358,15.66147423,9.103927612
27.62,-0.435091972,11.78236103,1.034130096
27.63,-3.059612513,9.263215065,-1.976729751
27.64,-2.961779356,9.25803566,-1.992912173
27.65,-2.003946304,8.784058571,-1.267694116
27.66,-0.200615674,10.08291531,1.249713659
27.67,-2.412568569,9.419528961,3.076343298
27.68,-2.235773802,6.839112282,8.839655876
27.69,-1.134768963,2.073424339,14.26920033
27.7,-1.682765961,-3.47009182,9.690980911
27.71,-3.653028488,-8.327649117,3.492352724
27.72,-3.552680731,-8.365916252,3.665928125
27.73,-4.465015888,-15.49002075,-4.30348444
27.74,-4.762269974,-16.21476936,-4.637000084
27.75,-5.320816994,-15.2475071,-4.25517416
27.76,-4.657586575,-13.76946259,-4.05815506
27.77,-4.737295628,-12.98348141,-2.945245743
27.78,-5.296284199,-12.53997993,-0.804458857
27.79,-5.351601124,-12.52858162,-0.880412817
27.8,-5.100428581,-13.34322548,1.951136708
27.81,-5.217915535,-12.54822922,1.363621235
27.82,-5.195036411,-10.49056816,0.772972703
27.83,-3.278467178,-8.491661072,-0.564561367
27.84,-3.281356573,-8.485343933,-0.593973875
27.85,-1.670609117,-3.893716335,-0.677929044
27.86,-1.672792315,-3.8890872,-0.699002862
27.87,1.251953483,1.58925724,1.36116457
27.88,6.302310467,9.836003304,3.210454941
27.89,4.498281956,16.01704025,0.321314573
27.9,4.406573296,16.05239105,0.186104059
27.91,0.438178361,18.82427216,18.90464783
27.92,-5.224354267,18.59155846,29.05109596
27.93,-12.05137825,18.39869308,19.51089287
27.94,-14.75391579,17.33110809,-1.003571987
27.95,-11.59732151,14.0939064,-13.98223114
27.96,-6.184434891,9.947434425,-10.27151394
27.97,-6.172231674,9.920631409,-10.17278767
27.98,-0.438124389,3.764541626,0.515835524
27.99,0.29776606,2.556714058,2.146681547
28,2.128466606,0.281204224,4.54097271
28.01,4.127816677,-1.906948566,7.295353889
28.02,5.709246159,-4.264793873,8.059579849
28.03,5.011759758,-6.274983406,4.739497185
28.04,3.693907261,-8.402580261,0.504058361
28.05,2.983496666,-10.57016468,-3.17955637
28.06,2.665367365,-12.74448681,-5.807682037
28.07,2.931408644,-14.18349648,-6.458181381
