Time (s),Linear Acceleration x (m/s^2),Linear Acceleration y (m/s^2),Linear Acceleration z (m/s^2)
0,-0.01522994,-0.007066727,0.034225345
0.01,-0.007741928,-0.056922913,0.020196736
0.02,-0.00758785,-0.049343109,-0.018146932
0.03,-0.031104982,0.022880554,0.082008481
0.04,-0.144860774,0.01127243,0.133495688
0.05,-0.150148183,-0.038675308,0.059444368
0.06,-0.126650542,-0.033596039,0.02793926
0.07,-0.084418118,-0.062157631,0.109764755
0.08,-0.058836877,-0.033358574,0.204502285
0.09,-0.043068588,-0.035769463,0.185632765
0.1,-0.068012357,0.016900063,0.257936209
0.11,0.012629926,0.031264305,0.263085425
0.12,0.13356711,0.031238556,0.167461753
0.13,0.132322386,0.031251907,0.168340266
0.14,-0.000443816,-0.038190842,0.092056036
0.15,-0.001389563,-0.038234711,0.091942072
0.16,-0.005422235,-0.028770447,0.143716514
0.17,0.007335365,-0.057695389,0.257040709
0.18,-0.098722309,0.035608292,0.133993387
0.19,-0.13912952,0.047599792,0.175105214
0.2,-0.138596714,0.047654152,0.175436676
0.21,0.021266729,0.026052475,0.447981834
0.22,0.020530224,-0.045635223,0.141262054
0.23,-0.132674128,-0.114928246,0.279728949
0.24,-0.050865173,-0.086208344,0.437472254
0.25,-0.096106529,-0.050260544,-0.00511086
0.26,-0.007318139,-0.01893425,-0.095910966
0.27,0.049031526,0.002656937,0.14738375
0.28,0.070376366,0.019264221,0.266207874
0.29,0.067281902,0.01900959,0.264038086
0.3,-0.03147921,0.052266121,0.202004463
0.31,-0.119710147,0.049726486,0.105202436
0.32,-0.178288043,0.047361374,0.105897963
0.33,-0.032720387,-0.019573212,0.021564603
0.34,-0.033646256,-0.019323349,0.02542305
0.35,0.051475912,-0.076515198,0.152062893
0.36,0.112425029,-0.04753685,0.043216169
0.37,0.103890225,-0.032920837,0.143090546
0.38,0.131265134,0.024721146,0.244370073
0.39,0.048118502,0.048800468,0.261234015
0.4,-0.003279746,0.048958778,0.192276895
0.41,-0.01627171,0.006069183,-0.022449732
0.42,-0.09398362,-0.015236855,0.026842594
0.43,-0.054811805,0.018457413,0.08993715
0.44,-0.078106523,-0.012487412,0.150374949
0.45,-0.086863458,-0.005125999,0.150985718
0.46,-0.140707135,-0.026451111,0.14247179
0.47,-0.195402563,-0.011842728,0.17192024
0.48,-0.120263785,0.005111694,0.147640765
0.49,-0.083219796,0.019633293,0.096515119
0.5,-0.127899975,0.050885201,0.169790626
0.51,-0.126986086,0.048530579,0.188891053
0.52,-0.077881247,0.048583031,0.21060431
0.53,-0.042784095,0.029514313,0.180053353
0.54,-0.019302607,0.029678345,0.174089253
0.55,-0.017200083,0.029873848,0.175817668
0.56,0.061121762,0.051650047,0.194815159
0.57,0.04809761,0.049550056,0.238647342
0.58,0.080417931,0.033061981,0.222421587
0.59,0.066677749,0.021363258,0.20642674
0.6,-0.014292717,0.052710533,0.044033945
0.61,0.015920341,0.141600609,0.104574621
0.62,0.064722329,0.053245544,0.454504579
0.63,0.155560717,0.05325985,0.701205492
0.64,0.113234535,0.017134666,0.383366108
0.65,0.112298414,0.017081261,0.383091986
0.66,-0.269855022,-0.088247299,0.265507758
0.67,-0.169084817,-0.076292038,0.249757946
0.68,-0.184626967,-0.083405495,-0.193876743
0.69,-0.082552105,-0.047157288,-0.236914635
0.7,-0.018042058,-0.032684326,0.1298787
0.71,0.083445966,-0.011266708,0.333648175
0.72,0.056637228,0.048340797,0.323435783
0.73,0.063376725,0.052939415,0.218398094
0.74,0.046385884,0.0528965,0.162843466
0.75,-0.029992998,0.052918434,0.076936007
0.76,-0.133732468,0.069806099,0.087288201
0.77,-0.130962998,0.070012093,0.088746548
0.78,-0.201446623,0.082259178,0.320451647
0.79,-0.013679147,0.053952217,0.182875454
0.8,0.071202934,0.028224945,0.064551532
0.81,-0.004507601,-0.03572464,-0.005025327
0.82,0.063263536,-0.037325859,0.032205582
0.83,0.01729992,-0.034212112,0.080705702
0.84,0.039851457,-0.016928673,0.161024809
0.85,0.087816745,0.038541794,0.156186998
0.86,-0.039729804,0.058033943,0.294529319
0.87,-0.039793223,0.05820179,0.296584487
0.88,-0.092178226,0.017634392,0.28368187
0.89,-0.091223419,0.017824173,0.28561312
0.9,-0.144527644,-0.092024803,0.010422349
0.91,-0.238346368,-0.110803604,0.026042819
0.92,-0.235892832,-0.110412598,0.029450595
0.93,-0.183715075,0.0119133,0.040837407
0.94,-0.086597085,0.059945107,0.096966028
0.95,0.057849109,0.060030937,0.207678378
0.96,0.062863588,0.072088242,0.266104341
0.97,0.006230116,0.117712975,0.200212598
0.98,-0.125878245,0.077216148,0.156226516
0.99,-0.060665071,0.06080246,0.098953843
1,-0.020038128,0.051612854,0.028189898
1.01,-0.008862972,-0.010234833,0.120637715
1.02,-0.05336225,-0.060153961,0.03813976
1.03,-0.138615072,-0.007105827,0.089915216
1.04,-0.148838997,0.017192841,0.205743432
1.05,-0.047181755,-0.078264236,0.101162791
1.06,-0.047504693,-0.077989578,0.104244351
1.07,0.003675044,-0.164191246,0.327750683
1.08,0.028010666,-0.32248497,0.236872375
1.09,-0.028603733,-0.20057106,0.204133511
1.1,-0.031002969,-0.119496346,0.032855868
1.11,-0.0860295,0.009614944,0.049964786
1.12,-0.002706856,0.05971241,0.196511328
1.13,0.057669729,0.076229095,0.275964975
1.14,0.028058499,0.121380806,0.35721609
1.15,-0.090170413,0.166460991,0.15300256
1.16,-0.092833191,0.166296005,0.152139187
1.17,-0.169000983,0.096712112,0.14675206
1.18,-0.143515319,0.053584099,0.182624698
1.19,-0.09760648,-0.030211449,0.244715095
1.2,-0.04787156,-0.106698036,0.297949731
1.21,-0.002434462,-0.104146957,0.167063117
1.22,0.000329465,-0.103833199,0.169530332
1.23,-0.042601883,-0.136998177,0.08863461
1.24,0.006618083,-0.18691349,0.092206597
1.25,-0.007448554,-0.15071106,0.140925586
1.26,-0.007388055,-0.081063271,0.260534585
1.27,-0.007432193,-0.080975533,0.261446476
1.28,-0.126603216,0.062759399,0.025112927
1.29,-0.126092047,0.062849998,0.025996149
1.3,-0.144726038,0.062915802,0.040914774
1.31,-0.127173483,0.010255814,0.095606685
1.32,-0.200850934,0.000659943,0.169496596
1.33,-0.180849761,-0.025791168,0.153402448
1.34,-0.108245254,-0.023521423,0.084620357
1.35,-0.05047524,-0.023682594,0.233655274
1.36,-0.019200027,0.004838943,0.276502073
1.37,-0.032817781,0.040534973,0.209037542
1.38,-0.031296849,0.040309906,0.205890477
1.39,-0.029711634,0.028229713,0.222923994
1.4,0.045788348,0.004178047,0.170831621
1.41,0.03686738,0.004134178,0.124644816
1.42,-0.017757863,-0.014979362,0.16302979
1.43,-0.08182928,-0.022157669,0.105426908
1.44,-0.215332031,-0.098754883,0.076608539
1.45,-0.231559455,-0.079658508,0.003983617
1.46,-0.146993846,-0.010297775,0.017126381
1.47,-0.046163946,0.001536369,0.013091385
1.48,-0.130938858,-0.017721176,-0.004598558
1.49,-0.132085979,-0.017841339,-0.005504549
1.5,0.002205402,-0.023182869,0.645284772
1.51,-0.013897747,-0.09780407,0.15521729
1.52,-0.076697171,-0.066961288,0.123438895
1.53,-0.081156909,-0.031311035,-0.052246749
1.54,-0.009612173,-0.005121231,0.147251427
1.55,-0.016148716,0.004187584,0.393952996
1.56,-0.038111568,0.056365967,0.461183935
1.57,-0.040621519,0.058204651,0.29757148
1.58,-0.135621458,0.057675362,0.20116055
1.59,-0.135872513,0.05725956,0.196270466
1.6,-0.14876923,0.056941986,0.237191856
1.61,-0.091202378,0.004117012,0.133386493
1.62,-0.037106842,-0.053195,0.114148736
1.63,-0.033427864,-0.053001404,0.114719212
1.64,0.061039776,-0.12706852,0.256141543
1.65,0.06382972,-0.126917839,0.256842971
1.66,-0.06784907,-0.109871864,-0.085775673
1.67,-0.130284697,-0.066507339,0.093606651
1.68,-0.129007816,-0.035344124,0.193982661
1.69,-0.108653545,0.034100533,0.059295356
1.7,-0.220027149,0.058101654,0.073905349
1.71,-0.210685968,0.060572624,0.080928028
1.72,-0.208009422,0.060671806,0.080716431
1.73,-0.161354482,0.058443069,0.145448327
1.74,-0.126626819,-0.006089211,0.281557858
1.75,-0.103394121,-0.037116051,0.251765072
1.76,-0.185718447,-0.087337494,0.250389695
1.77,-0.181242764,-0.08732605,0.248050988
1.78,-0.043226361,-0.072989464,0.291236877
1.79,-0.039782643,-0.073059082,0.288420618
1.8,-0.060146362,-0.056355476,0.292807668
1.81,-0.033068836,-0.080386162,0.270793974
1.82,0.067551434,-0.099668503,0.19594729
1.83,0.066370308,-0.061473846,0.220145524
1.84,0.016681492,-0.068809509,0.265679538
1.85,0.002475291,-0.03071785,0.222034335
1.86,0.002656043,-0.030927658,0.219323337
1.87,-0.296046674,0.014502525,0.050569117
1.88,-0.22751224,0.05760479,0.128802121
1.89,-0.226185978,0.057593346,0.127962172
1.9,-0.134699673,0.055275917,0.059111595
1.91,-0.142960012,-0.002203941,-0.043375194
1.92,0.145180255,-0.060049057,0.716457069
1.93,0.11225757,-0.079685211,0.474409193
1.94,0.035242736,-0.032049179,0.296584755
1.95,-0.203035891,0.056371689,0.042347431
1.96,-0.201095432,0.056354523,0.040812433
1.97,-0.138343215,0.039433479,0.184466124
1.98,-0.000346184,0.046320915,0.564257443
1.99,-0.016022623,0.024258614,0.558286548
2,-0.016515672,0.023799896,0.552606165
2.01,-0.228153169,-0.07219696,0.107958615
2.02,-0.12495482,-0.086672783,0.119172573
2.03,0.009334654,-0.060373306,0.162532032
2.04,0.090254337,-0.038769722,0.219698846
2.05,0.204108626,-0.029055595,0.390410721
2.06,0.235335752,-0.06733799,0.472250342
2.07,0.069645196,-0.103255272,0.314462036
2.08,-0.04206565,-0.158175468,0.148353934
2.09,-0.095998526,-0.20585537,0.126421332
2.1,-0.171553701,-0.093137741,-0.01528579
2.11,-0.096711844,-0.011514664,0.070848465
2.12,-0.090136081,0.062782288,0.160952866
2.13,-0.091343552,0.062787056,0.161691725
2.14,-0.192318112,0.187299728,0.243679196
2.15,-0.20359841,0.137164116,0.24021399
2.16,-0.151914507,0.063088417,0.169440806
2.17,-0.070765108,0.056131363,0.092183888
2.18,-0.025976241,0.001311302,0.206904471
2.19,-0.105824262,-0.010575294,0.293183714
2.2,-0.041560024,0.054121971,0.350040108
2.21,-0.051594257,0.054093361,0.355573446
2.22,-0.018648535,0.042060852,0.288955241
2.23,-0.01944834,0.020418167,0.315531403
2.24,-0.032539636,-0.070679665,0.293829888
2.25,-0.062601179,-0.022902489,0.234120369
2.26,0.003053993,0.051234245,0.318598718
2.27,0.00355798,0.051100731,0.316560477
2.28,-0.012786359,0.02231884,0.088101864
2.29,-0.217683077,0.022452354,0.038974822
2.3,-0.280710965,0.056150436,-0.148964107
2.31,-0.218831629,0.056353569,-0.015841067
2.32,-0.128630966,0.056523323,-0.002602994
2.33,0.013064861,-0.036673546,0.181341052
2.34,0.117462963,-0.118026733,0.668833137
2.35,0.060872972,-0.149338722,0.55474031
2.36,0.033888757,-0.132731438,0.37122649
2.37,-0.094050705,-0.049016953,-0.004263043
2.38,-0.091788471,-0.048924446,-0.004631877
2.39,-0.098084807,0.044608116,-0.386236489
2.4,0.011162907,0.056506157,0.314908445
2.41,0.02053225,0.094433784,0.572370291
2.42,-0.106235653,0.048575401,0.413552076
2.43,-0.188436806,-0.042552948,0.067342043
2.44,-0.188233107,-0.042478561,0.068163931
2.45,-0.070786059,-0.10939312,0.213417888
2.46,-0.070471019,-0.109333038,0.213993073
2.47,-0.01075983,0.029618263,0.241656989
2.48,0.032326043,0.056131363,0.236826867
2.49,-0.001900375,0.015634537,0.093952954
2.5,0.04986155,0.00153923,0.047798157
2.51,0.036602467,-0.055667877,0.040134132
2.52,0.035158694,-0.055369377,0.045069814
2.53,-0.047687024,-0.043131828,0.173774242
2.54,-0.075471789,-0.028604507,0.014160872
2.55,-0.146871507,0.072114944,0.091670156
2.56,-0.079954624,0.120022774,0.249192536
2.57,-0.108478934,0.067313194,0.111345708
2.58,-0.177163065,0.057847023,0.046703756
2.59,-0.229956657,0.053300858,0.176792979
2.6,-0.145546317,-0.030281067,0.102490842
2.61,-0.159232199,-0.111419678,0.10798198
2.62,-0.15836066,-0.120687485,0.230936289
2.63,-0.118988007,-0.06301403,0.309575528
2.64,-0.063080609,0.020973206,0.275426626
2.65,-0.06725058,0.061882973,0.397363901
2.66,0.048731565,0.064486504,0.437751412
2.67,0.003917366,0.059926033,0.234292388
2.68,-0.03527227,0.050784111,0.028057873
2.69,-0.055252135,-0.022912979,-0.03345871
2.7,0.020275444,-0.024768829,0.127981067
2.71,0.027294606,-0.072340012,0.242098868
2.72,-0.035589874,-0.08880806,0.159842908
2.73,-0.13664186,-0.019052505,0.020401359
2.74,-0.07876119,0.062793732,0.123577178
2.75,-0.078881323,0.063195229,0.1283077
2.76,0.190357864,0.030016899,0.643254399
2.77,0.117745131,-0.051398277,0.482150495
2.78,0.114703149,-0.130405426,0.170289695
2.79,-0.02453953,-0.123141289,0.203824639
2.8,-0.253673971,-0.144701004,-0.118499339
2.81,-0.25181514,-0.122942925,-0.534754276
2.82,-0.173284173,-0.139513969,-0.363429308
2.83,-0.178314149,-0.139695168,-0.362682879
2.84,-0.00570032,-0.027609825,0.294343412
2.85,-0.053260744,0.058192253,0.432288945
2.86,-0.058713913,0.05798912,0.432745457
2.87,-0.242118835,-0.004172325,-0.107656956
2.88,-0.194197208,-0.013347626,-0.121048927
2.89,-0.162324369,-0.003334999,-0.038486421
2.9,-0.143922746,0.06415844,0.153813005
2.91,-0.134709388,0.062198639,0.324054778
2.92,-0.134616882,0.062634468,0.328910351
2.93,-0.041121364,-0.018115997,-0.176047444
2.94,-0.000743538,-0.012529373,-0.198155582
2.95,0.000744164,-0.023731232,-0.062395334
2.96,-0.000657797,-0.039877892,0.088543713
2.97,0.062502623,-0.051357269,-0.034680307
2.98,0.077232063,-0.024559021,-0.016764402
2.99,-0.087580204,-0.036177635,0.126579762
3,-0.098689318,-0.062335968,0.004906058
3.01,-0.108001351,-0.105251312,-0.061783016
3.02,-0.086165428,-0.030923843,-0.026095152
3.03,-0.126822561,-0.047679901,-0.001111448
3.04,-0.076644838,-0.019043922,0.018104732
3.05,-0.025129408,0.00706768,0.098742604
3.06,-0.048553675,0.011483192,0.223675132
3.07,-0.052400112,0.011090279,0.221123159
3.08,-0.000999838,-0.003666878,0.058213174
3.09,-0.004297107,-0.003993988,0.056013644
3.1,-0.075886667,-0.011502266,0.003336728
3.11,-0.041660219,-0.016572952,-0.118717432
3.12,-0.043133497,-0.016815186,-0.120757401
3.13,-0.010556608,0.066625595,0.359456062
3.14,-0.01902467,0.039894104,0.25746578
3.15,-0.089755237,-0.001119614,0.07284534
3.16,-0.090474188,-0.001246452,0.071697354
3.17,-0.069500297,0.04652977,-0.202223718
3.18,0.027401626,0.024745941,0.202778161
3.19,0.262550205,-0.049972534,0.715364695
3.2,0.108445734,-0.117707253,0.321361184
3.21,-0.162169367,-0.060704231,-0.046684265
3.22,-0.203516275,-0.032173157,0.039897859
3.23,-0.100491583,0.056125641,0.118081272
3.24,-0.100997925,0.055948257,0.116283894
3.25,0.046076387,0.055894852,0.101921141
3.26,0.096075356,0.081914902,0.556773841
3.27,0.018402129,0.119549751,0.62503016
3.28,-0.058501035,0.061592102,0.345163763
3.29,-0.060541719,0.061250687,0.342082143
3.3,-0.238636464,-0.080153465,-0.075754404
3.31,-0.239137679,-0.11137104,-0.121991456
3.32,-0.18931973,-0.056419373,0.037285686
3.33,-0.190117151,-0.056584358,0.035563052
3.34,0.025855601,0.053368568,0.43409884
3.35,0.036064774,0.045965195,0.441949844
3.36,0.034756035,0.045834541,0.440898299
3.37,0.007296294,0.005046844,0.323171973
3.38,0.032775819,-0.02142334,0.185504198
3.39,0.048208743,0.011995316,0.120232165
3.4,0.046742886,0.011881828,0.119593859
3.41,0.007143021,-0.012212753,0.025034606
3.42,-0.092588782,0.054774284,0.108806133
3.43,-0.093707114,0.054639816,0.107554674
3.44,-0.10416013,0.020931244,0.228002131
3.45,-0.104942203,0.020773888,0.226547241
3.46,-0.169301808,-0.00806427,0.153167665
3.47,0.039061189,-0.063195229,0.054341316
3.48,0.037961572,-0.029747009,0.36993432
3.49,0.103950724,-0.029990196,0.379493982
3.5,0.071436584,0.036746025,0.283229113
3.51,0.092044458,-0.030572891,0.206139505
3.52,0.049984217,-0.011698723,0.191271842
3.53,0.053617895,-0.03595829,0.183360755
3.54,0.111767516,-0.043402672,0.190423846
3.55,0.013712794,-0.000523567,0.17683512
3.56,0.01169312,-0.000694275,0.175616384
3.57,-0.050656438,0.039948463,0.05612129
3.58,-0.09189868,-0.000904083,0.103536189
3.59,-0.128398418,0.05637455,0.044891119
3.6,-0.097073168,0.05862999,0.008225262
3.61,-0.053576618,0.041818619,0.166426897
3.62,-0.056163281,0.041730881,0.166440904
3.63,0.052839041,-0.121487618,0.404598892
3.64,-0.117754728,-0.064210892,0.113834858
3.65,-0.204864144,-0.033086777,0.339263707
3.66,-0.103918344,0.007559776,0.295305193
3.67,-0.103553444,0.007491112,0.294469953
3.68,0.039043844,-0.071482658,-0.231473208
3.69,0.007918954,-0.018954277,0.23682791
3.7,0.002164871,0.035611153,0.246432602
3.71,-0.080994427,0.054213524,0.253302217
3.72,-0.079606771,0.07525444,0.212418497
3.73,-0.082351536,0.074769974,0.207512021
3.74,-0.186796039,0.067316055,0.130307317
3.75,-0.136861444,0.057610512,0.092929542
3.76,-0.137291789,0.057567596,0.092726111
3.77,-0.018167824,0.045671463,0.160685301
3.78,0.021272421,0.052934647,0.164674103
3.79,0.017597318,0.08413887,0.242679715
3.8,0.016993791,0.084292412,0.244847119
3.81,0.111808509,0.060583115,0.188075423
3.82,0.005777836,0.053648949,0.047933638
3.83,-0.104495287,0.068292618,0.321840107
3.84,0.015487313,0.05400753,0.174306274
3.85,0.01768887,0.006358147,-0.011959732
3.86,0.017614186,0.006709099,-0.0076015
3.87,-0.110951841,0.030906677,0.169900358
3.88,-0.155605018,-0.024028778,0.230989933
3.89,-0.192242235,-0.038232803,0.117586315
3.9,-0.188998729,-0.037878037,0.120570898
3.91,-0.19519335,0.032004356,-0.021228135
3.92,-0.160187423,0.056360245,0.183368325
3.93,-0.156515151,0.056661606,0.185667217
3.94,0.01717177,0.006736755,0.161981046
3.95,0.067913413,0.023649216,0.313741565
3.96,0.070042968,0.023722649,0.313615322
3.97,0.183718532,0.006962776,0.287118673
3.98,0.057496786,-0.067240715,0.32293582
3.99,0.010528117,-0.086400032,0.154695332
4,0.024888486,-0.091225624,-0.027671695
4.01,0.024399698,-0.0912714,-0.027849436
4.02,-0.224671125,0.035611153,-0.150219321
4.03,-0.224102229,0.035507202,-0.151553214
4.04,-0.200012028,0.056948662,0.031337678
4.05,0.045645088,0.075889587,0.663732588
4.06,-0.039468408,0.051826477,0.404220909
4.07,-0.152287483,-0.077394485,0.17301321
4.08,-0.150878787,-0.077199936,0.17469722
4.09,0.038552076,-0.026825905,0.119799018
4.1,0.217228413,-0.074587822,-0.054096341
4.11,0.235991433,-0.028950691,0.263809621
4.12,0.004301548,0.056946754,0.622473955
4.13,0.001605302,0.056322098,0.615962386
4.14,-0.039928764,0.081936836,0.630130112
4.15,-0.198767573,0.028787613,0.189947784
4.16,-0.200311452,0.028536797,0.187344372
4.17,-0.232249916,0.023639679,0.088236272
4.18,-0.170462161,-0.048156738,0.021743655
4.19,-0.148529649,0.011768341,0.202061892
4.2,-0.101788878,0.004704475,0.150442302
4.21,-0.186326534,0.055332184,0.010280669
4.22,-0.171450645,0.003200531,-0.092014551
4.23,-0.168390393,0.003821373,-0.085673034
4.24,-0.076888382,-0.079342842,-0.062583923
4.25,-0.058188587,-0.066818237,0.094071984
4.26,-0.183178306,0.000655174,0.189385176
4.27,-0.180576026,0.001045227,0.192872405
4.28,-0.164153695,-0.0632658,0.184041679
4.29,-0.101859093,-0.072593689,0.121368468
4.3,-0.099491775,-0.098771095,0.206084609
4.31,-0.132855922,-0.168126106,0.093401074
4.32,-0.1181373,-0.122530937,-0.088362157
4.33,-0.235628367,-0.036290169,0.042892814
4.34,-0.097021788,-0.03877449,0.053112924
4.35,-0.002303004,-0.005436897,0.177369177
4.36,-0.001750648,-0.005604744,0.175159693
4.37,-0.094078302,-0.027148247,0.021682978
4.38,-0.083237886,-0.034266472,0.050568581
4.39,-0.082845837,-0.034254074,0.050501347
4.4,0.086881727,-0.098936081,0.215444505
4.41,-0.057301134,-0.120546341,0.253102303
4.42,-0.148377806,-0.13498497,0.185309112
4.43,-0.248711139,-0.178203583,-0.031633973
4.44,-0.413418561,-0.185441971,-0.169020712
4.45,-0.376537353,-0.104232788,-0.119124293
4.46,-0.213093042,-0.083011627,0.037291646
4.47,-0.077330291,-0.169686317,0.137383759
4.48,0.001532823,-0.131997109,0.487765819
4.49,0.021987289,-0.101813316,0.848973751
4.5,-0.12966767,-0.114973068,0.474355429
4.51,-0.35053277,-0.110931397,-0.092482984
4.52,-0.282764882,-0.142560959,-0.400876641
4.53,-0.283162653,-0.142948151,-0.405584335
4.54,-0.229382902,-0.049983025,0.090333462
4.55,-0.119529843,0.023550987,0.429737926
4.56,-0.063269973,0.056290627,0.469244331
4.57,-0.290859282,0.046174049,0.120716751
4.58,-0.410345614,0.005220413,-0.330224574
4.59,-0.466416955,-0.068987846,-0.424027443
4.6,-0.464060009,-0.068948746,-0.424549997
4.61,-0.413721234,-0.080918312,-0.327339828
4.62,-0.248072982,-0.02581501,-0.002729118
4.63,-0.204530299,-0.03533268,0.260122687
4.64,-0.261604965,-0.092775345,-0.001704872
4.65,-0.258309573,-0.092538834,-0.000140727
4.66,-0.33815217,-0.142458916,-0.227189541
4.67,-0.310241789,-0.202037811,-0.160690606
4.68,-0.313241661,-0.237689018,-0.180711091
4.69,-0.318003029,-0.196775436,-0.098705471
4.7,-0.421906889,-0.139106751,-0.084790468
4.71,-0.520738125,-0.083804131,-0.168795884
4.72,-0.572820544,-0.035587311,-0.129915774
4.73,-0.575376391,-0.102210045,-0.32077682
4.74,-0.557106853,-0.077671051,-0.201586306
4.75,-0.463875651,-0.120250702,-0.172395587
4.76,-0.452524811,-0.119791985,-0.172656834
4.77,-0.377455205,-0.164914131,-0.209929407
4.78,-0.351266772,-0.078559875,0.026211917
4.79,-0.342940986,-0.07856369,0.021074533
4.8,-0.233929604,-0.047580719,0.261996299
4.81,-0.313707203,-0.08373642,0.346062094
4.82,-0.306838363,-0.083920479,0.338970691
4.83,-0.290518493,-0.182137489,-0.132975459
4.84,-0.250226378,-0.232361794,-0.055229187
4.85,-0.217660964,-0.201292992,-0.060325086
4.86,-0.235758066,-0.244441986,0.123894513
4.87,-0.346868455,-0.227848053,-0.024076819
4.88,-0.308061302,-0.244683266,-0.344409049
4.89,-0.285906434,-0.34044075,-0.373832345
4.9,0.002942979,-0.500980377,0.048065901
4.91,0.258673221,-0.774706841,0.418450534
4.92,0.336855412,-0.960143089,0.355137199
4.93,0.182409555,-1.049821854,0.140914351
4.94,0.363972157,-1.110666275,-0.142508626
4.95,0.362735421,-1.111644745,-0.156890214
4.96,1.026575565,-0.741526604,-0.291722119
4.97,1.430636644,-0.35277462,0.007434666
4.98,1.563678026,0.045012474,0.420285046
4.99,1.353223801,0.26501751,0.310294509
5,0.894242048,0.432229042,-0.48926878
5.01,0.413971782,0.528128624,-1.017247438
5.02,0.377146602,0.526371002,-1.025488138
5.03,0.22399053,0.575447083,-1.340178013
5.04,0.184152663,0.808773041,-1.056672215
5.05,0.165436268,0.807634354,-1.069321275
5.06,0.164617151,0.758946419,-0.959255695
5.07,0.148660719,0.758503914,-0.960728645
5.08,-0.043310091,0.507056236,-1.125751853
5.09,-0.234895319,0.3347826,-0.908489227
5.1,-0.339927435,0.107521057,-0.774831474
5.11,-0.222952962,-0.184405327,-0.726013899
5.12,-0.241805241,-0.469195366,-0.729159415
5.13,-0.244946167,-0.469161034,-0.72713697
5.14,-0.125982881,-0.675268173,-0.677163363
5.15,0.177208766,-1.130630493,-0.43847099
5.16,0.393497825,-1.392311096,-0.434835911
5.17,0.539057851,-1.362124443,-0.414517939
5.18,0.532500863,-1.36327076,-0.437608331
5.19,0.502600908,-1.086918831,-0.261241257
5.2,0.493502945,-1.088366508,-0.294653088
5.21,0.413062692,-0.946137428,-0.361878187
5.22,0.254584581,-0.624279976,-0.766003847
5.23,0.152085215,-0.505806923,-0.814286768
5.24,0.141968459,-0.415885925,-0.95536834
5.25,0.129537076,-0.399960518,-0.961159587
5.26,0.055844415,-0.335935593,-0.985153973
5.27,0.04393376,-0.336374283,-1.012527704
5.28,-0.01384506,-0.312753677,-0.964175642
5.29,0.058658164,-0.394351006,-1.186293125
5.3,-0.032801032,-0.461528778,-1.20544517
5.31,-0.068982869,-0.361046791,-1.27850461
5.32,-0.159031391,-0.32039547,-1.225444555
5.33,-0.035284664,-0.418601036,-0.676904559
5.34,0.020229355,-0.411458969,-0.542619646
5.35,0.049514633,-0.552762032,-1.148176789
5.36,-0.015627267,-0.459379196,-0.955574155
5.37,0.04736929,-0.382772446,-0.791385889
5.38,0.049117595,-0.382741928,-0.806036353
5.39,0.175887525,-0.124126434,-1.539858341
5.4,0.053729184,0.115379334,-1.216526151
5.41,0.057756171,0.421965599,-0.921655774
5.42,0.11551293,0.671145439,-1.049956799
5.43,0.053035423,0.992237091,-1.07580626
5.44,0.055893373,1.229575157,-1.228958368
5.45,0.055784654,1.375981331,-1.246540189
5.46,0.115733735,1.584625244,-1.259830236
5.47,0.285786569,1.798072815,-1.279778123
5.48,0.285608739,1.7983284,-1.292327881
5.49,0.193433642,2.318131447,-0.633042693
5.5,0.19650501,2.318396568,-0.643871546
5.51,0.220454335,3.410335541,-0.716769338
5.52,0.227098733,3.41037941,-0.718211353
5.53,0.329809785,3.874904633,-0.682732105
5.54,0.706874907,3.98034668,-0.546482265
5.55,0.157213226,3.532884598,0.147044599
5.56,-0.074188694,2.103894234,1.395416737
5.57,-0.059276521,2.104251862,1.386478186
5.58,0.635495663,1.948863983,1.724691868
5.59,1.21951282,2.066250801,2.296791315
5.6,1.382818103,2.236282349,3.084958076
5.61,0.894419968,2.360920906,3.499399662
5.62,-0.563305736,2.593481064,3.955396175
5.63,-1.93594408,2.407196999,4.308875561
5.64,-2.001179695,1.656002998,3.772287607
5.65,-1.989316821,1.656276703,3.768511534
5.66,-1.704858184,0.114552498,3.020981073
5.67,-1.376750946,-0.301830292,2.96556735
5.68,-0.817972064,-0.521744728,2.838248968
5.69,-0.506074071,-0.370417595,2.640049458
5.7,-0.780712605,0.370189667,2.426997662
5.71,-1.178952098,1.075469971,2.17002511
5.72,-1.533409238,1.635154724,2.159517527
5.73,-1.593224883,1.891283989,2.319564104
5.74,-1.593317866,1.894068718,2.267443419
5.75,-1.810337305,1.660006523,1.487701178
5.76,-1.538151741,0.942183495,1.142815351
5.77,-1.295073748,-0.118369103,0.499598146
5.78,-1.270435691,-0.872867584,-0.149812341
5.79,-1.191245079,-1.670828819,-0.273161948
5.8,-0.743059158,-2.260726929,-0.225026906
5.81,-0.281920731,-2.862898827,-0.685286105
5.82,-0.273435116,-2.862308502,-0.690405905
5.83,-0.372867912,-3.599423885,-0.723110914
5.84,-0.308995009,-4.628608227,0.416465223
5.85,-0.307099998,-4.628521442,0.415810585
5.86,0.209210903,-5.047780991,0.355898142
5.87,0.284440696,-5.328485966,0.3502056
5.88,0.235747322,-5.444226742,0.170793176
5.89,0.27022785,-5.50295496,-0.314159632
5.9,0.339726269,-5.358419418,-0.637421191
5.91,0.314374507,-4.785511017,-0.754318714
5.92,0.257164955,-4.322722912,-0.719867826
5.93,0.114650324,-3.704235554,-0.772555351
5.94,0.171116293,-3.097652912,-0.986180723
5.95,-0.014378518,-2.395250797,-0.836912096
5.96,-0.317935884,-1.731034279,-0.635914028
5.97,-0.59423995,-1.172204971,-0.686929226
5.98,-0.702402055,-0.654255867,-0.696758986
5.99,-1.008597732,-0.088484764,-0.677134037
6,-0.95370853,0.338401794,-0.526955068
6.01,-1.113772273,0.669573784,-0.202282876
6.02,-1.035696507,0.964970589,-0.161848992
6.03,-1.04912138,1.483080864,-0.304968298
6.04,-1.353095293,2.077888489,-0.537259877
6.05,-1.339511871,2.076690674,-0.491214752
6.06,-1.459786415,2.683858871,-0.966576219
6.07,-1.477558613,3.221894264,-0.805604518
6.08,-1.278237343,3.587738991,-0.207949877
6.09,-1.228732109,3.558639526,-0.186768055
6.1,-1.236104965,3.558356285,-0.175162375
6.11,-1.520299435,3.43123436,-0.497684181
6.12,-3.010676146,3.342579842,-0.810910583
6.13,-2.538927317,3.771249771,-0.373077303
6.14,-2.520665169,3.771408081,-0.347734213
6.15,0.012063131,4.434851646,-0.149724916
6.16,1.453989744,4.439943314,0.713186801
6.17,2.068158627,3.995009422,2.419157505
6.18,2.323485136,3.507182121,3.830619574
6.19,2.330618858,3.507957458,3.871462584
6.2,2.701302767,1.712988853,4.619576454
6.21,2.677675724,0.595355988,3.965740681
6.22,2.251817942,-0.354809761,2.812678099
6.23,2.247291803,-0.354592323,2.826117992
6.24,1.566140294,-0.99616909,1.534898758
6.25,0.969513416,-0.831088066,-0.628976822
6.26,0.960086703,-0.831463814,-0.634633899
6.27,1.061474323,-0.418118477,-0.278473765
6.28,1.228524446,0.155653954,0.192423284
6.29,1.447485209,0.712727547,0.537855387
6.3,1.415076733,1.087906837,0.796588481
6.31,0.969221652,1.350601196,1.280198812
6.32,0.568089724,1.390687943,1.377571583
6.33,0.406855464,0.741293907,1.009077311
6.34,-0.177387863,-1.361325264,0.549934983
6.35,-0.452355951,-2.405531883,0.386000276
6.36,-0.507868648,-3.447218895,0.058261707
6.37,-0.584850967,-4.191906929,-0.102449
6.38,-0.599637508,-4.833581924,-0.000965776
6.39,-0.516507208,-5.219029903,0.051813483
6.4,-0.427371562,-5.34104538,0.017566344
6.41,-0.402615696,-5.261896133,0.145496786
6.42,-0.321116626,-5.156311512,0.22525999
6.43,-0.150254354,-5.024316311,0.300164551
6.44,-0.052957311,-4.760581017,0.593871236
6.45,0.21645233,-4.563835621,0.291683078
6.46,0.445409268,-4.355113029,-0.100000441
6.47,0.513974845,-4.009904385,-0.475791454
6.48,0.513840675,-3.4420228,-0.643015742
6.49,0.529272676,-3.441629887,-0.658173561
6.5,0.387340665,-2.225007057,-0.994124413
6.51,0.234684512,-1.329284668,-0.844948709
6.52,0.23935397,-1.329066277,-0.864732444
6.53,0.293985874,-0.620150566,-0.759934962
6.54,0.301362485,0.598713875,-0.148434445
6.55,0.346175224,1.116059303,-0.163886204
6.56,0.388326526,1.456195831,-0.400869876
6.57,0.387576759,1.456305504,-0.410902619
6.58,0.332301796,1.820317268,-1.196889162
6.59,0.291507065,3.14679718,-1.425585032
6.6,0.577858686,3.781248093,-1.226531625
6.61,0.715470195,4.248078346,-1.087603211
6.62,0.505490899,4.367791176,-0.635750711
6.63,0.50167501,4.367926598,-0.648844004
6.64,-0.913125753,3.961191177,-1.658640862
6.65,-1.182923794,3.741340637,-0.930153847
6.66,-1.139736176,3.907094955,-0.209467724
6.67,-0.33112064,4.142321587,0.434397936
6.68,0.692065775,4.423053741,1.612538576
6.69,0.719280124,4.423761368,1.628328323
6.7,0.771908522,3.727993965,4.118694305
6.71,0.81011641,3.729272842,4.146253586
6.72,0.362815142,1.106411934,5.242682457
6.73,0.587351501,-0.017886162,4.915474415
6.74,0.84126544,-0.900835037,4.064439774
6.75,0.842819929,-0.900770187,4.068948746
6.76,0.55127275,-0.946585655,3.363659143
6.77,-0.116918951,-0.465843201,2.719904184
6.78,-0.937384605,0.3403368,1.676529646
6.79,-2.560658932,2.307938576,0.079896912
6.8,-3.660911798,3.136356354,0.456804872
6.81,-3.65958643,3.136876106,0.429453343
6.82,-3.272813797,3.065968513,1.316703081
6.83,-1.980452299,2.1281147,0.949342012
6.84,-0.778288841,0.830852509,0.356630683
6.85,-0.180359811,-0.265528679,0.010312498
6.86,0.160409182,-1.295175552,0.080625445
6.87,0.703920782,-2.399215221,0.387438595
6.88,0.690931261,-2.399714947,0.382069767
6.89,2.024569511,-4.294341087,0.384542823
6.9,2.244325399,-4.996686459,0.186117202
6.91,2.213402271,-4.997401714,0.167170495
6.92,0.689345956,-5.098362923,1.19230485
6.93,1.019967318,-5.187371254,0.660499454
6.94,1.218542933,-5.374755383,0.063391984
6.95,0.839225054,-5.365927696,-0.164746627
6.96,0.525940299,-5.23737812,-0.397773355
6.97,0.49555701,-5.238230705,-0.389875889
6.98,0.053613804,-5.042851925,-0.726530433
6.99,-0.412809193,-4.708657742,-1.409680367
7,-0.677333176,-4.316895962,-1.795709968
7.01,-0.5542624,-3.893900871,-1.770053387
7.02,-0.573026776,-3.894667625,-1.745517015
7.03,-0.541885197,-3.210548401,-0.82088697
7.04,-0.746474266,-1.642961502,-1.577704906
7.05,-0.775591254,-0.489567757,-1.471462488
7.06,-0.776216686,-0.490028381,-1.431670666
7.07,-0.685283244,0.426740646,-0.530648708
7.08,-0.778438449,1.23827076,-0.121533871
7.09,-1.144542456,1.968547821,-0.145223379
7.1,-1.06903398,2.057235718,-0.107198253
7.11,-0.925602078,2.239355087,-0.343154907
7.12,-1.055092335,2.536419868,-0.450490534
7.13,-1.350487709,3.032214165,-0.666000426
7.14,-1.768352747,3.468196869,-1.139165998
7.15,-2.21420455,3.71259594,-1.528505564
7.16,-2.893638611,3.741480827,-1.723052382
7.17,-3.401849031,3.547704697,-1.769882441
7.18,-3.4532125,3.512120247,-0.907568634
7.19,-2.587975025,4.154356956,0.677409768
7.2,0.009483725,4.650901794,1.509681225
7.21,2.587022543,4.446356773,1.434828877
7.22,3.512387753,4.156283379,1.708966613
7.23,3.306302547,3.818704605,2.837039232
7.24,3.093506813,3.155405045,3.841596603
7.25,3.081814051,3.156944275,3.876977205
7.26,3.66082406,1.009645462,4.130198479
7.27,3.835251331,-0.070585251,2.856974363
7.28,2.855795383,-0.133701325,1.160199523
7.29,1.099458575,0.521396637,0.264893949
7.3,0.356535792,0.819543839,-0.246831238
7.31,0.307339788,1.239717484,0.047858387
7.32,0.503151894,1.595292091,0.29185915
7.33,0.431893617,2.140179634,0.544257999
7.34,0.417520374,2.139335632,0.514300048
7.35,-0.129841387,2.521615028,0.956347585
7.36,-0.641690195,1.974909782,1.3460145
7.37,-1.011686325,0.875177383,1.463966608
7.38,-1.257616878,-0.442250252,1.400923967
7.39,-1.447874546,-1.611116409,0.91292131
7.4,-1.531088233,-2.921198845,0.068819709
7.41,-1.451065063,-4.090016842,-0.304786623
7.42,-1.319795847,-4.880562782,-0.316314995
7.43,-1.195491076,-5.467584133,-0.394507051
7.44,-0.85153085,-5.707371235,-0.017139718
7.45,-0.205240399,-5.724348545,0.826068103
7.46,0.295395374,-5.647713661,0.495588511
7.47,0.437558711,-5.288375854,0.460944414
7.48,0.469885558,-4.976737022,0.833385468
7.49,0.497727037,-4.976143837,0.799216688
7.5,0.431051731,-4.384040833,-0.425967217
7.51,0.456611574,-4.383369446,-0.446254194
7.52,0.362778604,-4.164728165,-1.273970604
7.53,0.384206832,-4.001031876,-1.465067029
7.54,0.486531258,-3.023232937,-0.871958792
7.55,0.495858192,-3.022324085,-0.898152947
7.56,0.881773949,-2.442067623,-0.41242367
7.57,0.768752217,-0.990484238,-0.22943303
7.58,0.814955592,-0.331590653,-0.305615246
7.59,0.823731482,-0.331274033,-0.30892539
7.6,0.811898232,0.238703728,-0.552834034
7.61,0.554948807,1.021694183,-0.87450707
7.62,0.396150887,1.68729496,-1.123715878
7.63,0.52482605,2.2977314,-1.158099294
7.64,0.830323219,3.552156448,-1.478568673
7.65,0.546733201,4.104976654,-1.535456181
7.66,0.274000496,4.430457115,-1.555390716
7.67,-0.204934761,4.30109787,-1.527865171
7.68,-0.208990917,4.301147461,-1.532431364
7.69,-0.900719166,3.793622971,-0.895366073
7.7,-0.891253591,4.375536919,0.06215325
7.71,-0.210952789,5.163240433,0.754661202
7.72,0.29986757,5.546103477,0.873699188
7.73,0.119209513,5.074132919,1.681543231
7.74,-0.274507284,3.953767776,3.193425179
7.75,-0.473720074,2.594277382,4.473513126
7.76,-0.447827637,2.594800949,4.496903419
7.77,-0.005475372,0.864118576,4.945821285
7.78,1.374642611,-1.719200134,4.804098606
7.79,0.758241534,-1.568439484,4.021092892
7.8,0.750638962,-1.568459511,4.005259991
7.81,-1.068048,0.234502792,1.714536548
7.82,-1.077172279,0.234576225,1.694618464
7.83,-2.515392542,2.827732086,-0.287969261
7.84,-3.781000614,4.053971291,-0.157997578
7.85,-4.210662842,4.756376266,0.770826578
7.86,-3.838156223,4.841472626,1.959491014
7.87,-2.185422421,3.918774605,2.634575367
7.88,-0.482841671,2.208044052,1.933022976
7.89,0.117798567,0.738622665,0.573942423
7.9,0.130828619,-0.479774475,-0.15258573
7.91,0.375820696,-1.537869453,-0.053065091
7.92,0.795224428,-2.387848377,-0.073698774
7.93,1.358547568,-3.298028469,-0.358591676
7.94,1.614349604,-4.05047369,-0.362879157
7.95,1.488844633,-4.613835812,-0.193754047
7.96,1.462877035,-4.614548206,-0.204426825
7.97,0.84434557,-5.022280693,0.185791135
7.98,0.735625386,-5.511619568,0.042599529
7.99,0.740897417,-5.716216087,-0.392649442
8,0.318736434,-5.585688114,-0.592064261
8.01,0.17802389,-5.385699749,-0.84897399
8.02,0.097801179,-5.188104153,-1.129710913
8.03,0.075668991,-5.189190388,-1.109560728
8.04,0.075194873,-4.716103554,-0.998567104
8.05,-0.043758035,-4.451179028,-0.682382584
8.06,-0.294869185,-4.111917019,-0.678818584
8.07,-0.678700149,-3.583416462,-1.120682716
8.08,-0.971877515,-3.054941654,-1.575992823
8.09,-1.09358716,-2.270243168,-1.775598049
8.1,-1.037478924,-1.518877983,-1.736526728
8.11,-1.022051215,-1.518936157,-1.676605701
8.12,-0.893035531,-0.6877985,-1.420248747
8.13,-0.280703843,1.242625237,-0.618458271
8.14,-0.357041389,2.011920929,-0.252258986
8.15,-0.514575541,2.522681236,-0.140102148
8.16,-0.679810286,2.870595932,-0.519405127
8.17,-0.603902757,3.012552261,-0.811831355
8.18,-0.607389867,3.013047218,-0.789727628
8.19,-0.944335342,3.336503983,-1.072110534
8.2,-1.784965277,3.508659363,-1.370171428
8.21,-2.89632988,3.663945198,-1.810497642
8.22,-4.052247524,3.771512032,-2.185438871
8.23,-4.086146832,4.276988029,-1.613085032
8.24,-2.649720669,4.78780365,-0.636002779
8.25,-0.767843902,5.033764839,-0.363810867
8.26,1.110406041,4.815564156,0.336730421
8.27,2.231886148,4.44639492,1.977109432
8.28,2.657965422,4.043440819,3.437243462
8.29,3.011508942,3.346129417,3.907249451
8.3,3.300697803,2.550868034,4.246627331
8.31,2.897344351,1.779268265,3.499154568
8.32,2.883354425,1.780421257,3.522039652
8.33,1.788483262,0.263098717,1.079405427
8.34,1.223223448,0.097780228,0.374548078
8.35,0.860341668,0.618951798,-0.389240503
8.36,0.605493367,1.214057922,-0.150769353
8.37,0.596800208,1.212272644,-0.17910701
8.38,0.856324375,1.950021744,1.100257397
8.39,1.03900075,1.952534676,1.654926181
8.4,1.029910326,1.804062843,1.798130512
8.41,1.014236689,1.801703453,1.745470405
8.42,0.974023938,1.512336731,1.311743498
8.43,-0.074092902,0.018884659,0.762705743
8.44,-0.417565137,-1.136628151,0.503775597
8.45,-0.42042768,-1.137712479,0.452105045
8.46,-0.539726198,-2.199083328,0.190181732
8.47,-0.714014947,-4.275328159,0.049242679
8.48,-0.824561179,-4.804634571,0.123998508
8.49,-0.678971708,-5.285897732,0.217876807
8.5,-0.389426619,-5.764621258,0.129349366
8.51,-0.052595206,-6.010972023,0.088174179
8.52,-0.023965463,-6.010609627,0.079186566
8.53,0.105413988,-6.046021461,0.168742925
8.54,0.242269576,-5.832316399,-0.050953873
8.55,0.273127496,-5.831609726,-0.055065397
8.56,0.280579656,-5.442980289,-0.213457972
8.57,0.384956926,-4.589883327,-0.809821546
8.58,0.482568711,-4.048099995,-1.13187325
8.59,0.647950888,-3.38201952,-1.114156604
8.6,0.652921617,-3.381736279,-1.136748314
8.61,0.707515121,-2.620268345,-1.180772305
8.62,0.773690343,-1.985809326,-0.951415658
8.63,0.57320565,-0.699999809,0.023715004
8.64,0.567470312,-0.699775696,-0.002972513
8.65,0.713343024,0.591071129,0.204987541
8.66,0.577983379,1.40058136,-0.592198014
8.67,0.480635285,2.159705162,-1.073892474
8.68,0.349829853,2.873246193,-1.27341342
8.69,0.192373097,3.550808907,-1.35362339
8.7,0.19157216,3.550776482,-1.353117704
8.71,0.017909229,4.034359932,-1.498638391
8.72,-0.141095907,4.324073792,-1.32762599
8.73,-0.475989997,4.209214211,-1.07884407
8.74,-0.702176988,4.171047211,-1.027411461
8.75,-0.460017651,4.722014427,-0.681873083
8.76,-0.267810255,5.155702591,-0.697685361
8.77,-0.260554135,5.156023026,-0.700991988
8.78,0.146074072,5.146855354,1.411378741
8.79,0.230498105,4.769289017,3.320497036
8.8,0.214593127,3.709566116,4.115876198
8.81,0.212425485,2.376621246,4.443543434
8.82,0.597343564,0.787302017,4.648884773
8.83,0.601648569,0.787520409,4.647095203
8.84,0.68147552,-0.699306488,3.646047592
8.85,0.071300864,-0.457583427,3.331061602
8.86,0.056942225,-0.457661629,3.311953545
8.87,-0.713122964,0.167134285,2.891766548
8.88,-1.576691985,0.835021973,1.983228683
8.89,-2.290015459,1.474186897,0.849840164
8.9,-3.095807791,2.139912605,0.78207612
8.91,-3.618560076,2.65504837,1.543979049
8.92,-2.845263958,2.291625977,1.639854789
8.93,-2.851050377,2.292198181,1.619336367
8.94,-1.273969412,1.438055992,1.127171874
8.95,-1.272675872,1.438727379,1.112126827
8.96,-0.479249656,0.429027557,0.566427231
8.97,-0.45484519,-0.21923542,0.372054547
8.98,-0.377866685,-1.030462265,0.229265094
8.99,0.028103948,-1.973505974,0.05799678
9,0.145615056,-2.670185089,-0.091329038
9.01,0.406506777,-3.474702358,-0.318298698
9.02,0.364162684,-4.296173096,-0.10546881
9.03,0.228175581,-4.890185833,0.115822911
9.04,0.47682333,-5.307237148,-0.258347273
9.05,0.917431414,-5.762988567,-0.515753567
9.06,0.996065617,-6.044127464,-0.477206886
9.07,0.819508851,-6.155259132,-0.221614227
9.08,0.495930553,-6.096286774,-0.209148079
9.09,0.260715485,-5.826691628,-0.711420775
9.1,-0.021132737,-5.492683411,-1.197134256
9.11,-0.355882168,-5.014956474,-1.387014627
9.12,-0.523925662,-4.383843422,-1.672726035
9.13,-0.343820691,-3.647282124,-1.701598883
9.14,0.097725853,-2.965817928,-0.720876932
9.15,0.04536394,-2.298666,-1.141900539
9.16,-0.460814774,-1.459293365,-1.300077558
9.17,-0.68066442,-0.801662445,-0.875353813
9.18,-0.535963774,-0.237159729,-0.362606347
9.19,-0.863689482,0.076085091,-0.299254686
9.2,-0.571484685,0.413340569,-0.549634874
9.21,-0.321603745,1.021152496,-0.883110881
9.22,-0.615762115,1.803793907,-1.09886229
9.23,-0.626194835,1.80358696,-1.077993155
9.24,-0.827846766,3.170559883,-1.27620697
9.25,-0.843481839,3.170448303,-1.264197469
9.26,-1.528069139,4.30287075,-0.729600906
9.27,-1.539372921,4.302844048,-0.729996622
9.28,-3.742709637,4.508759499,-1.419734836
9.29,-4.15383625,3.931735992,-1.847847223
9.3,-3.894641876,3.725877762,-1.71792841
9.31,-3.867139578,3.726038933,-1.696890831
9.32,-0.582269251,4.550026894,0.580594897
9.33,-0.560049772,4.550654411,0.629384935
9.34,2.444528341,4.357515335,1.342452884
9.35,2.675173044,3.869999886,2.375549793
9.36,2.515498638,3.229340553,3.023524284
9.37,2.51752162,3.230265617,3.057376862
9.38,1.748837113,2.522227287,3.231021404
9.39,1.870636225,-0.044376373,2.804538727
9.4,2.465489149,-0.894879341,1.733050704
9.41,2.271918774,-1.376856804,0.631860733
9.42,1.678088546,-0.769462585,0.227406636
9.43,0.932163179,0.019956589,-0.050986692
9.44,0.378846973,1.017713547,0.14167437
9.45,0.373587757,1.017105103,0.11095424
9.46,0.381657898,1.804263115,0.522436738
9.47,0.836818934,2.323340416,1.555572748
9.48,0.708283246,2.097925186,1.63033545
9.49,0.069924526,1.745779991,1.505642056
9.5,-0.335842401,0.979594231,1.142575026
9.51,-0.624302506,-0.128849983,0.742316485
9.52,-0.887033224,-1.445580482,0.067120656
9.53,-0.87749207,-1.445463181,0.050657019
9.54,-0.808148086,-3.825261593,-0.462048858
9.55,-0.685217559,-4.754102707,-0.600193381
9.56,-0.4018372,-5.36920166,-0.310564101
9.57,-0.058844768,-5.775891781,0.792487443
9.58,-0.18221727,-6.043552399,0.39710936
9.59,0.176555783,-5.875397682,-0.30005914
9.6,0.206651509,-5.874774933,-0.309740007
9.61,0.51117754,-5.440618515,0.18826142
9.62,0.750564218,-5.229023933,-0.255951405
9.63,0.774348974,-5.228102684,-0.272409797
9.64,0.903005958,-4.757902622,-0.631376863
9.65,0.718207538,-4.385823727,-0.996044397
9.66,0.521310687,-4.009004116,-1.264119625
9.67,0.425516516,-3.402432442,-1.55061841
9.68,0.432864845,-3.401855469,-1.56195116
9.69,0.473739266,-2.613914967,-1.436815023
9.7,0.431340933,-1.809305191,-1.186819792
9.71,0.38847208,-1.045359612,-0.808814228
9.72,0.354332,0.630843163,-0.30071941
9.73,0.38652131,1.30606842,-0.699676812
9.74,0.39301914,2.141487122,-0.939986229
9.75,0.475952089,3.089352608,-1.054816008
9.76,0.47547394,3.960493088,-1.088851213
9.77,0.612156272,4.881814957,-0.969039023
9.78,0.383554578,5.44395256,-0.93594563
9.79,0.374100089,5.443496704,-0.92993325
9.8,-0.114325047,5.591582298,-1.171813607
9.81,-1.22112155,4.461278915,-2.160849571
9.82,-1.669127226,4.152379036,-2.061995983
9.83,-1.619463205,4.30331707,-1.224861145
9.84,-0.606714487,4.985943794,-0.039485618
9.85,-0.587586165,4.986260414,-0.019512504
9.86,-0.661858499,5.379593849,0.562559128
9.87,-0.624603391,5.380777359,0.590231538
9.88,-0.919188321,3.265837669,2.823324203
9.89,0.106975287,1.445466042,3.262935877
9.9,1.071357131,-0.219742775,4.069893837
9.91,1.732533932,-1.490221977,4.491780758
9.92,1.760727406,-1.894355774,4.210188866
9.93,1.066626787,-1.477604866,3.976399422
9.94,0.284127593,-0.615649223,3.335705996
9.95,0.283663333,-0.615641594,3.328187227
9.96,-1.89634788,1.64212513,1.136904716
9.97,-3.273826599,2.858685493,0.55136162
9.98,-4.663229465,4.104281425,0.348640651
9.99,-4.741686821,4.284676552,0.835723341
10,-3.675658464,3.756264687,2.320887804
10.01,-2.053847313,2.262757301,2.116101265
10.02,-1.188582659,0.972476006,0.743258357
10.03,-1.181221843,0.972859383,0.751304328
10.04,-0.495861054,-0.879768372,-0.244580403
10.05,0.057702124,-1.865918636,-0.256218165
10.06,0.610421002,-2.768717289,-0.135247633
10.07,1.072370529,-3.564322472,0.119910076
10.08,1.469046831,-4.33165741,0.269490242
10.09,1.56938529,-4.919734955,0.245944962
10.1,1.347641706,-5.325962067,0.187758014
10.11,0.668990254,-5.43046093,0.338169754
10.12,0.51254952,-5.673632145,0.172459319
10.13,0.483689606,-5.785194397,-0.172174364
10.14,0.276601464,-5.85840559,-0.440223038
10.15,0.406880647,-5.890798569,-0.584639967
10.16,0.473335683,-5.760313988,-0.677770138
10.17,0.626248479,-5.43098259,-0.559995949
10.18,0.246477544,-4.929078579,-0.402885735
10.19,-0.088684112,-4.462894917,-0.4841052
10.2,-0.107620001,-4.463511944,-0.465459526
10.21,-0.609943926,-3.230984211,-1.11214292
10.22,-0.894569576,-2.450862408,-1.512699366
10.23,-1.116876483,-1.725583076,-1.642994642
10.24,-0.98913759,-0.71996975,-1.522578001
10.25,-0.999390483,0.271453857,-1.290966749
10.26,-0.997992873,0.271875382,-1.259345889
10.27,-1.138188958,1.962835312,-0.314279318
10.28,-1.043166161,2.432880402,-0.415278196
10.29,-1.030911446,2.520069122,-0.806889892
10.3,-0.776880443,2.605083466,-1.053329468
10.31,-0.77177757,2.606265068,-1.018103242
10.32,-0.551499426,2.645483017,-0.956244052
10.33,-0.616590262,3.156039238,-0.895279586
10.34,-1.60808742,3.410056114,-1.094436049
10.35,-1.614014864,3.410068512,-1.089885592
10.36,-3.431193829,3.204245567,-2.354392529
10.37,-3.96797514,2.919934273,-2.063960552
10.38,-3.201977968,3.237409592,-0.972962141
10.39,-1.427444577,3.874218941,-0.427985638
10.4,0.930716157,4.013882637,-0.03314051
10.41,3.038273335,4.20399189,0.831479669
10.42,3.90933609,4.029667854,2.846447945
10.43,3.90668869,4.032372475,2.8909235
10.44,3.605478048,3.359539986,5.198347569
10.45,3.595691442,3.361264229,5.227744102
10.46,1.65813911,1.825573921,3.013549089
10.47,1.310860634,0.650535584,0.948533535
10.48,0.627994061,0.04880619,-1.11532259
10.49,0.445463121,0.099912643,-1.859053135
10.5,0.428587079,0.097851753,-1.88129878
10.51,0.047460616,0.576332092,-1.104110122
10.52,0.17366986,1.291266441,0.297090888
10.53,1.661910534,1.558383942,1.348032236
10.54,1.843466878,1.617402077,2.022078991
10.55,1.4585886,1.829846382,2.156527519
10.56,0.99942112,1.688319206,1.903285384
10.57,0.978796244,1.68601799,1.851357102
10.58,-0.380947024,0.194786072,1.642862082
10.59,-0.593114138,-0.845929146,1.215078354
10.6,-0.912205219,-2.123229027,0.414976299
10.61,-0.908779919,-2.123930931,0.379221678
10.62,-1.523066521,-3.939157486,-0.494991779
10.63,-1.057824373,-4.894608974,-0.338660687
10.64,-0.548989654,-5.792450428,-0.136233926
10.65,-0.13740474,-6.345398903,-0.023773089
10.66,0.135085195,-6.613293648,-0.03950002
10.67,0.164784461,-6.612869263,-0.065189764
10.68,0.279492885,-6.260306358,0.497955024
10.69,0.309316188,-6.259539604,0.466472089
10.7,0.54439193,-5.315255165,-0.138654813
10.71,0.573462248,-5.314159393,-0.168202967
10.72,0.543981731,-4.692798615,-0.704678655
10.73,0.419892192,-4.188658714,-1.086789012
10.74,0.462496102,-3.576829433,-1.21180737
10.75,0.465768755,-2.919620514,-1.14914012
10.76,0.41420719,-2.181315899,-1.175905228
10.77,0.369184375,-1.491074562,-1.267021894
10.78,0.392567754,-0.037167549,-0.659220159
10.79,0.508867025,0.334465027,-0.251031041
10.8,0.679727137,0.595923424,-0.150277004
10.81,0.577314019,0.869241715,-0.47335285
10.82,0.496798962,1.271672249,-0.988940597
10.83,0.493661404,1.271711349,-0.996139526
10.84,0.132586956,2.995462418,-1.760720968
10.85,0.022444159,3.955368042,-1.224952221
10.86,0.283354938,4.419668198,-0.539412737
10.87,0.048621029,4.553612709,-0.894050002
10.88,0.048685163,4.553542137,-0.891519547
10.89,-0.570069552,4.161101341,-0.824596286
10.9,-0.887457132,4.367429733,-0.976279914
10.91,-0.885688961,4.74146843,-0.770023704
10.92,-0.518832803,4.993472099,-0.356555879
10.93,-0.501029313,4.99407196,-0.342390001
10.94,0.228097767,4.721879959,1.817967415
10.95,0.249874264,4.722876549,1.82867527
10.96,0.480551869,2.657752037,3.660405636
10.97,0.531213164,1.308488846,4.355019569
10.98,0.491538644,0.114575386,4.696250916
10.99,0.546276569,-0.500594139,4.554992676
11,0.450249523,-0.826548576,3.939594507
11.01,0.437539548,-0.827287674,3.935332775
11.02,-0.789889932,0.050375938,2.716217756
11.03,-1.488181591,1.004635811,1.854027271
11.04,-1.88131547,1.980474472,0.955905795
11.05,-2.522065163,2.599661827,1.024754047
11.06,-3.223125219,3.061400414,1.6984936
11.07,-3.150512218,2.958659172,1.958573103
11.08,-2.756905079,2.576072693,1.50049293
11.09,-2.221122742,2.162425995,0.905094326
11.1,-1.437088132,1.408716202,0.471262783
11.11,-0.761181831,0.353289604,0.152215511
11.12,-0.328883171,-0.441325188,0.12700814
11.13,-0.332957864,-0.441195488,0.117150188
11.14,0.631855488,-2.58172226,0.143683314
11.15,1.136279464,-3.489493847,0.161747605
11.16,1.200623989,-4.280168056,0.274712443
11.17,0.941848397,-4.860134602,0.412105769
11.18,0.756678581,-5.296485901,0.227746189
11.19,0.853611827,-5.594164848,-0.207732946
11.2,0.922215343,-5.844143867,-0.490394175
11.21,0.975001574,-5.821268082,-0.449780881
11.22,0.799845934,-5.827091694,-0.422241449
11.23,0.64940989,-5.593437672,-0.310957402
11.24,0.620873809,-5.594423771,-0.305980206
11.25,0.126462996,-5.260261059,-1.09249866
11.26,0.105438322,-5.261271954,-1.077265978
11.27,-0.632962287,-4.543950081,-1.861728787
11.28,-0.650404692,-4.544891357,-1.842836499
11.29,-0.43612501,-3.841933727,-1.119683743
11.3,-0.320493639,-3.256389141,-1.080232263
11.31,-0.795772374,-1.72032547,-1.035094142
11.32,-0.391922057,-1.010004044,-0.721659064
11.33,-0.543195546,-0.335426331,-1.260433197
11.34,-0.411422998,0.305699348,-1.105224252
11.35,-0.349536955,0.855989456,-0.627774298
11.36,-0.527974486,1.605130196,-0.558171511
11.37,-0.981737852,2.366319656,-1.042286277
11.38,-1.215488672,3.127556801,-1.259716392
11.39,-1.314767718,3.848121643,-0.984010935
11.4,-1.445898414,4.417850494,-0.718898952
11.41,-1.464124203,4.417801857,-0.716179788
11.42,-1.711245418,4.568594933,-0.883092821
11.43,-3.577705622,4.453662872,-1.893472672
11.44,-4.189629078,4.025094032,-2.38512373
11.45,-4.175226688,4.025123596,-2.369410038
11.46,-2.528843403,3.529649734,-0.628797174
11.47,-0.531726718,3.996946335,0.24981159
11.48,1.025018096,4.098392487,0.761979461
11.49,1.042505503,4.099773407,0.828584552
11.5,3.268022776,3.953087807,2.723266363
11.51,3.639466047,3.560222626,3.744786263
11.52,3.330214739,2.873019218,3.895893097
11.53,2.517237186,2.061166763,3.58988905
11.54,2.000607967,1.217750549,2.409428596
11.55,1.902912259,0.328533173,1.31961298
11.56,1.72617662,-0.386334419,0.182811022
11.57,1.707586765,-0.386362076,0.185471773
11.58,1.317077398,-0.372755051,-0.283422828
11.59,1.28178215,0.037752151,0.089060009
11.6,1.619204521,0.61783886,0.76008749
11.61,1.596549153,0.615819931,0.717505693
11.62,1.277431965,1.348666191,1.926147938
11.63,1.25879097,1.346643448,1.868487716
11.64,-0.193178728,1.344955444,1.046993017
11.65,-0.198723063,1.343686104,0.994222999
11.66,-1.553792834,0.085762978,0.318060458
11.67,-1.58325398,-0.800810814,0.455193013
11.68,-1.534161925,-1.823625088,0.329380065
11.69,-1.512354851,-1.823896885,0.3020145
11.7,-1.12225008,-3.921400547,-0.041061129
11.71,-0.45190075,-4.773751736,0.783850253
11.72,0.008436263,-5.410484314,0.82189405
11.73,-0.252102554,-5.66875124,0.14696072
11.74,-0.268345475,-5.522094727,0.151965767
11.75,0.06584011,-5.274586201,0.417861551
11.76,0.264955819,-5.043591976,-0.032431759
11.77,0.302122057,-4.79324007,-0.259273171
11.78,0.578982711,-4.492469788,-0.434570491
11.79,0.624261797,-4.083883762,-0.404193968
11.8,0.614115894,-3.912298679,-0.645478785
11.81,0.634450793,-3.91075182,-0.675785661
11.82,0.455634683,-3.365794182,-1.213354349
11.83,0.439083725,-2.895315647,-1.657480478
11.84,0.444887579,-2.89449358,-1.674322248
11.85,0.325775683,-2.273910999,-1.67935133
11.86,0.071733028,-0.717273712,-0.678727269
11.87,0.091825515,-0.132882118,-0.419563264
11.88,-0.254284114,0.597481728,-0.322971523
11.89,-0.251095414,0.597513199,-0.320326537
11.9,-0.127681643,1.543190956,-0.984612286
11.91,-0.009814918,2.187122345,-1.128232241
11.92,-0.317535788,3.24055481,-1.356208324
11.93,-0.207044274,4.037970543,-1.482318044
11.94,-0.075431228,4.416467667,-1.465209365
11.95,-0.064104646,4.416856766,-1.460677028
11.96,-0.204392403,4.6593256,-1.465948343
11.97,-0.399612665,4.243571281,-1.28456378
11.98,-0.753520608,4.325940132,-0.969682813
11.99,-0.392256558,5.224912643,-0.273810744
12,0.326477677,5.656867981,0.090580732
12.01,0.401397288,5.736898422,0.260983646
12.02,-0.207245946,5.601944923,1.484814048
12.03,-0.829855323,4.787711143,3.15844202
12.04,-0.568838656,3.545203209,4.24627924
12.05,0.025260091,1.598489761,4.324591637
12.06,0.043860018,1.599588394,4.365477085
12.07,0.549772263,-0.320331574,3.821394205
12.08,1.030976057,-2.289037704,3.728199959
12.09,0.525315404,-1.849652767,3.048523664
12.1,-0.362226725,-1.14230442,2.262023449
12.11,-1.096638918,-0.080742836,1.09216404
12.12,-1.824844956,1.275512695,-0.126677945
12.13,-1.838076353,1.27473259,-0.143913165
12.14,-3.245222807,2.761481285,-0.427900136
12.15,-4.820979118,4.043336868,2.908079147
12.16,-3.077984333,3.156370163,1.990719318
12.17,-1.659579754,2.151283264,1.210128069
12.18,-1.660373092,2.151519775,1.196488261
12.19,0.068089902,0.133356094,-0.118153647
12.2,0.49220714,-0.61148262,-0.479317248
12.21,0.947888315,-1.469351768,-0.285798848
12.22,1.364970684,-2.334781647,0.101835981
12.23,1.81863904,-3.21488142,0.220778674
12.24,1.99826324,-4.020940781,0.301459253
12.25,1.752837658,-4.575481415,0.414681673
12.26,1.717915058,-4.576798439,0.394381225
12.27,1.188943863,-4.999444962,0.515231252
12.28,0.341668963,-5.582716465,-0.448836684
12.29,0.281794637,-5.790373325,-1.041469693
12.3,0.283764899,-5.998134613,-1.239381313
12.31,0.422044307,-6.088578701,-1.064821243
12.32,0.32288456,-6.030554771,-1.006880641
12.33,0.267683119,-5.807189941,-1.254844308
12.34,0.104414105,-5.444750309,-1.384990096
12.35,0.079840362,-5.445988178,-1.359367609
12.36,-0.106850386,-4.953790188,-1.428286076
12.37,-0.299257457,-3.508562565,-1.500892401
12.38,-0.212022021,-2.431995392,-1.50130105
12.39,-0.520579219,-1.312255859,-1.250518084
12.4,-0.793878555,-0.20426178,-1.051192284
12.41,-0.771604896,0.937497139,-0.915002465
12.42,-1.002778172,1.904658318,-0.657003343
12.43,-1.115934968,2.742685318,-0.562640846
12.44,-1.113087058,2.742843628,-0.533636868
12.45,-1.071277142,3.353621483,-0.517977357
12.46,-0.759628952,3.581345558,-0.399211437
12.47,-0.659127414,3.509739876,-0.488798142
12.48,-0.876546502,3.581806183,-0.593154252
12.49,-1.477038503,3.675362587,-0.981271088
12.5,-2.129005909,3.57492733,-1.623152137
12.51,-2.130682945,3.574998856,-1.618601084
12.52,-3.638881683,3.065153122,-1.998198986
12.53,-3.493905544,3.568388939,-1.261741638
12.54,-1.754535556,4.07440567,0.198870719
12.55,0.33333984,4.477853775,0.946991146
12.56,1.641597033,4.512684822,1.002258778
12.57,2.695817471,4.377643585,2.238315821
12.58,3.517695189,4.079763412,4.18426609
12.59,3.405678034,3.472950935,4.319460869
12.6,2.931046724,2.633810997,3.788051844
12.61,2.424712896,1.413758278,3.121919632
12.62,2.420045853,1.414475441,3.139224768
12.63,2.11601758,0.023857117,0.774229229
12.64,1.376189828,0.290066719,-0.347177297
12.65,1.112824678,0.656738281,-0.813587606
12.66,0.97563225,1.1590662,-0.660438597
12.67,0.857771099,1.763839722,0.148338705
12.68,0.787432969,2.28435421,0.80955863
12.69,0.926513791,2.464693069,0.83729434
12.7,0.917408109,2.463104248,0.801995099
12.71,0.233389139,1.776936531,0.786736131
12.72,0.230169594,1.775737762,0.752385557
12.73,-0.285544872,0.893721581,0.799907863
12.74,-0.760268807,-1.80521965,0.223811969
12.75,-0.746740937,-1.8054533,0.204898596
12.76,-0.987826347,-3.991372585,-0.220679835
12.77,-0.7451334,-4.915289879,-0.239000693
12.78,-0.34580785,-5.56372261,0.119516015
12.79,-0.239858627,-5.946345329,0.426610291
12.8,-0.143472016,-6.086997032,1.075456381
12.81,-0.110689104,-6.086261749,1.053634405
12.82,0.392968833,-5.927346706,0.663615048
12.83,0.450018376,-5.64855051,0.377478838
12.84,0.470558643,-5.379200459,0.081083998
12.85,0.537101984,-5.061876297,-0.246283844
12.86,0.564081669,-5.060639381,-0.269904941
12.87,0.62558496,-4.319636345,-1.145107388
12.88,0.646880806,-3.743940353,-1.484638333
12.89,0.701286733,-2.94829464,-1.530375242
12.9,0.706177175,-2.947856903,-1.553621173
12.91,0.816001415,-1.080201149,-0.96544683
12.92,0.595938683,-0.366708756,-0.786694825
12.93,0.595892608,-0.366609573,-0.795568407
12.94,-0.012084425,0.823710442,-0.126339808
12.95,-0.003849387,0.824151039,-0.125086591
12.96,0.255623341,1.241168976,-0.493079662
12.97,0.071281016,1.334864616,-1.014926672
12.98,-0.104316413,1.746939659,-1.501528859
12.99,-0.257691145,2.422273636,-1.635246158
13,-0.21848321,3.315439224,-1.414441347
13.01,-0.117177606,4.088775635,-1.182711959
13.02,-0.460599482,4.39770031,-1.353989959
13.03,-0.877212167,4.275852203,-1.36453104
13.04,-1.173117399,4.125660896,-1.041315675
13.05,-1.347207427,4.16987896,-0.788295746
13.06,-1.319745183,4.171649933,-0.782143652
13.07,-1.067245603,4.573495865,-0.598992467
13.08,-0.530103207,4.678521156,-0.41350317
13.09,0.207693696,4.628008842,0.61757803
13.1,0.232045531,3.904992104,3.164182186
13.11,0.109730423,2.653068542,3.820786476
13.12,0.174127817,1.47051239,4.134704113
13.13,0.422852367,0.160327911,4.304950237
13.14,0.914829671,-0.676904678,4.432994366
13.15,0.945704043,-0.919185638,4.255078793
13.16,0.930855811,-0.920519829,4.24324131
13.17,-0.166157126,-0.024577141,2.709778309
13.18,-1.282047868,0.914181709,1.527092218
13.19,-2.598773479,2.023200035,0.455175817
13.2,-2.616148233,2.021856308,0.448865324
13.21,-3.551962852,3.10319519,0.159697816
13.22,-3.919642448,3.497817993,1.110106468
13.23,-3.922286749,3.497682571,1.098479152
13.24,-3.021154404,2.922985077,1.187053084
13.25,-1.357002974,1.438567162,0.903514624
13.26,-1.355344534,1.43873024,0.897915483
13.27,-0.79200381,0.488295555,0.668573201
13.28,-0.166879773,-0.493679047,0.481154025
13.29,0.769651949,-2.450617313,0.532375157
13.3,0.819762468,-3.237101078,0.706339657
13.31,0.869681895,-3.95908308,0.711658061
13.32,1.056135058,-4.549492836,0.440553427
13.33,0.964222133,-5.051541328,0.229788363
13.34,0.810229302,-5.429042816,-0.007171281
13.35,0.73533088,-5.648549557,-0.308327615
13.36,0.61173141,-5.681339741,-0.603667438
13.37,0.585499525,-5.682960033,-0.583445907
13.38,0.558418512,-5.595954895,-0.602282167
13.39,0.572554231,-5.549619198,-0.571282923
13.4,0.498985946,-5.302087784,-0.577514708
13.41,0.468258679,-5.303444862,-0.558981299
13.42,-0.133608162,-4.852115154,-1.289432168
13.43,-0.451706737,-4.233006001,-1.26576817
13.44,-0.289401501,-3.467662334,-0.620755434
13.45,-0.374126464,-2.857757092,-0.631844282
13.46,-0.394973785,-2.858071804,-0.603076458
13.47,-0.852946878,-1.328000069,-0.790453434
13.48,-0.512040019,-0.573594093,-0.825550079
13.49,-0.273165166,0.240716934,-1.110679507
13.5,-0.269457102,1.045560837,-0.827981174
13.51,-0.265648127,1.73068428,-0.450601369
13.52,-0.501802564,2.169234276,-0.40405342
13.53,-0.903595746,2.521662712,-0.756135285
13.54,-1.327630877,2.898064613,-1.112276077
13.55,-1.648094416,3.264844894,-1.406651855
13.56,-2.287817955,3.609928131,-1.619157076
13.57,-2.88260603,3.739365578,-1.97854352
13.58,-3.58889699,3.763366699,-2.065706968
13.59,-4.234516621,3.52435112,-2.008979797
13.6,-3.89993763,3.352953911,-1.29548943
13.61,-2.583460808,4.223925591,-0.182499498
13.62,-0.40418604,4.741551399,0.269009471
13.63,1.720885992,4.795463562,0.404409945
13.64,3.131641626,4.68214798,1.225691557
13.65,3.612968445,4.520794868,2.843962193
13.66,3.865177155,4.172744751,3.954797745
13.67,3.521948814,3.257051468,3.60962534
13.68,3.516426086,3.260193825,3.652474403
13.69,2.074591637,1.021471977,2.016432762
13.7,1.323217869,0.165362358,0.814543009
13.71,0.868450165,-0.411590576,0.221211076
13.72,0.855666041,-0.412610054,0.213950753
13.73,0.896043778,-0.483730316,-0.170500577
13.74,0.809111536,-0.052446365,0.051982939
13.75,1.683239698,1.170859337,0.986199915
13.76,1.919517279,1.625391006,1.466733456
13.77,1.906870723,1.622499466,1.431351185
13.78,1.107500911,2.371546745,1.227287054
13.79,0.172866076,2.297306061,0.829967201
13.8,0.176021025,2.295192719,0.794709384
13.81,-1.056902051,0.62685585,0.505129516
13.82,-1.047735453,0.6252985,0.472787291
13.83,-0.919468164,-1.873066902,0.268255353
13.84,-0.906234622,-1.873922348,0.243772656
13.85,-0.588911295,-3.102770805,0.14731437
13.86,-0.537778735,-4.573209286,0.274807751
13.87,-0.089214414,-5.090562344,1.04134059
13.88,-0.020095646,-5.449797153,1.212449074
13.89,0.008673698,-5.449581623,1.189522266
13.9,-0.013134092,-5.60946703,0.752154529
13.91,0.487453878,-5.381371975,0.67236203
13.92,0.548834562,-5.220160007,0.159188777
13.93,0.373230487,-4.989253998,-0.220956802
13.94,0.403331786,-4.9880867,-0.236587524
13.95,0.652032375,-4.568076611,-0.290121466
13.96,0.693873227,-3.777087688,-0.605537951
13.97,0.695786059,-3.268779278,-0.761593103
13.98,0.661379159,-2.782290459,-1.024640799
13.99,0.360792935,-2.082923889,-1.050829291
14,0.335889012,-1.32379818,-0.853215277
14.01,0.229766786,-0.564751625,-0.612853229
14.02,0.006288111,0.091386795,-0.293424755
14.03,0.13531071,0.62070179,-0.125479162
14.04,0.138887942,0.872258186,-0.213426471
14.05,0.196596146,1.126208305,-0.45178771
14.06,0.186097711,1.35857296,-0.943683803
14.07,0.186620504,1.358640671,-0.939614356
14.08,0.280586302,1.808710098,-0.997466445
14.09,0.23648873,2.885954857,-0.679886639
14.1,0.235155106,3.266471863,-1.203705668
14.11,0.229556263,3.266212463,-1.196601391
14.12,-0.158282399,3.364128113,-1.452558041
14.13,-0.399014533,3.275357246,-1.442226529
14.14,-0.425796211,4.000649452,0.458279938
14.15,0.059398532,4.560723305,1.39051497
14.16,0.198402494,4.735297203,1.271114469
14.17,-0.50751102,4.541900635,1.432059765
14.18,-1.078919649,3.968601227,1.874896288
14.19,-1.058888674,3.970551491,1.903455973
14.2,-1.168036103,2.816360474,2.269266129
14.21,-1.135906935,1.635651588,3.240374804
14.22,-0.997432888,0.559581757,3.77542901
14.23,-0.663661718,-0.330450058,3.722982407
14.24,-0.170286894,-0.991329193,3.737533569
14.25,-0.004611909,-0.486711502,3.488648176
14.26,-0.011035919,-0.487329483,3.483261824
14.27,-0.399384022,0.40520668,2.282627583
14.28,-1.41130352,2.645697594,0.515934944
14.29,-1.417326808,2.645237923,0.515058756
14.3,-3.10593462,4.428751945,1.643176198
14.31,-2.9255898,4.428474426,2.597162008
14.32,-1.995600462,3.446304321,2.076343298
14.33,-2.001690865,3.445552826,2.061747313
14.34,-0.766826809,1.198727608,0.619802177
14.35,-0.776811481,1.197719574,0.601962566
14.36,0.093639553,-0.105946541,0.158662766
14.37,0.516311467,-0.792064667,0.211370498
14.38,0.494255662,-0.793636322,0.199204847
14.39,0.691919744,-1.745892525,0.755733311
14.4,0.386963815,-2.133180618,0.944716215
14.41,0.358707279,-2.134933472,0.925738514
14.42,0.139175206,-2.454969406,1.101225972
14.43,0.03570962,-3.303938866,0.34899208
14.44,0.241565943,-3.757706165,-0.224145666
14.45,0.283674032,-4.02450943,-0.550582886
14.46,0.216675982,-4.324666023,-0.606018245
14.47,0.296465516,-4.481027603,-0.41030097
14.48,0.411825419,-4.421803951,-0.169517413
14.49,0.251091033,-4.070419312,-0.082555473
14.5,0.070168793,-3.594408035,-0.326433659
14.51,-0.220288605,-3.132658005,-0.278493226
14.52,-0.22597304,-2.678053856,-0.133050859
14.53,-0.249796107,-2.678358078,-0.118863344
14.54,-0.376464546,-1.881309986,-0.143040329
14.55,-0.558456183,-1.661126137,-0.189463198
14.56,-0.577022374,-1.660989761,-0.171141356
14.57,-0.696826935,-1.382872581,0.038392052
14.58,-0.677114844,-1.121245384,-0.130516797
14.59,-0.684930801,-1.12032795,-0.099633574
14.6,-0.710580349,-0.580338478,-0.789196968
14.61,-0.713234484,-0.054341316,-1.105078816
14.62,-0.71035254,-0.052345276,-1.061645269
14.63,-0.465223193,0.610552788,-1.300724983
14.64,-0.347812891,2.369866371,-0.506720126
14.65,0.054970704,2.692166328,0.396331608
14.66,-0.299483597,2.760158539,1.299954653
14.67,-1.111580849,2.111904144,1.529524207
14.68,-1.116777658,2.112464905,1.539707184
14.69,-1.542627931,0.118748665,-0.426101029
14.7,-1.888528705,-0.145793915,-1.55216825
14.71,-1.734431267,0.121742249,-1.941655397
14.72,-1.144820333,0.935609818,-1.661661267
14.73,-0.391399443,2.010609627,-0.808714628
14.74,-0.380148202,2.012810707,-0.781935334
14.75,0.231404841,2.93890667,-0.033379078
14.76,0.777879059,4.132829666,0.889003575
14.77,1.560520411,5.851024628,1.525458694
14.78,1.555000663,5.85204792,1.539057612
14.79,0.849453688,4.358448029,2.637336731
14.8,0.846523106,4.358640671,2.640213251
14.81,0.227823317,2.616130829,1.884813547
14.82,-0.161807135,1.022223473,1.17084825
14.83,0.105983093,-1.891107559,0.808800042
14.84,0.822777629,-2.829613686,0.930142283
14.85,1.572441578,-3.112782478,1.31190145
14.86,1.877223492,-2.393154144,1.647723913
14.87,1.648604155,-1.716975212,1.823559999
14.88,1.788465142,-0.80414772,1.802256584
14.89,1.57591784,0.117761612,1.894545794
14.9,1.07284081,1.17582798,1.986423492
14.91,0.764532745,1.644368172,1.721832991
14.92,0.836186886,1.64334774,1.473341942
14.93,0.999416292,1.067583084,1.107953191
14.94,0.779806256,0.396208763,0.746149302
14.95,0.260890245,-0.114356041,0.476703852
14.96,0.247778982,-0.116829872,0.42592001
14.97,0.053235032,-0.78680706,0.343486697
14.98,0.003185704,-1.35099411,0.357914388
14.99,-0.0239335,-1.682544708,0.576672435
15,0.026131004,-1.704927444,0.929423809
15.01,0.028608695,-1.705518723,0.904198766
15.02,0.168749571,-1.576663971,0.777038097
15.03,0.20609951,-1.098169327,0.560722113
15.04,0.22427094,-0.894956589,0.481318295
15.05,0.196667612,-0.71803093,0.476633191
15.06,0.477533758,-0.603337288,0.503213346
15.07,0.628023386,-0.601160049,0.711179733
15.08,0.784683824,-0.594183922,0.867058456
15.09,0.87085402,-0.680545807,0.9761343
15.1,0.869978726,-0.680703163,0.95192337
15.11,0.571922362,-0.716713905,1.215922117
15.12,0.680459023,-0.719151497,1.245810628
15.13,0.502295911,-0.644925118,1.229212284
15.14,0.497994006,-0.644825935,1.199588656
15.15,0.341814101,-0.070028305,0.75569129
15.16,0.336900443,-0.069793701,0.728672922
15.17,0.111013494,0.165148735,0.419157505
15.18,-0.024413444,0.644637108,0.50303638
15.19,-0.086071506,0.87046051,0.384996772
15.2,-0.290716648,0.85635376,-0.338726938
15.21,-0.319783807,0.767918587,-0.29488641
15.22,0.008962035,0.684274674,-0.001808658
15.23,0.181572154,0.59581852,-0.269277692
15.24,0.191822767,0.595793724,-0.262375087
15.25,0.216612637,0.408956528,0.073839009
15.26,0.286313802,0.47347641,0.49014318
15.27,0.041370258,0.55471611,0.654211998
15.28,-0.19383207,0.664643288,0.780586004
15.29,-0.015493989,0.772147179,0.308748484
15.3,0.081798717,0.90354538,-0.098710924
15.31,0.188688785,1.008600235,-0.168372408
15.32,0.232809514,0.879059792,-0.162906408
15.33,0.229229257,0.878867149,-0.148970813
15.34,-0.457075,0.088606834,0.045579553
15.35,-0.94892776,-0.598633766,0.296875477
15.36,-0.950402379,-0.59866333,0.296855003
15.37,-0.921153069,-1.688072205,-0.35200116
15.38,-0.728373647,-2.128599644,-0.294984609
15.39,-0.726651192,-2.128572941,-0.294286102
15.4,-0.167586103,-1.994472504,-0.15788725
15.41,-0.27273047,-1.522800446,-0.139958888
15.42,-0.437260568,-1.000843048,-0.119147554
15.43,-0.334366709,-0.380748749,-0.279433698
15.44,-0.336685509,-0.380818367,-0.274715424
15.45,-0.344587028,0.591365814,-0.517995954
15.46,-0.362688303,0.8164711,-0.455193341
15.47,-0.373839468,0.897903442,-0.656823158
15.48,-0.460506916,0.905098915,-0.976944566
15.49,-0.532286823,0.759115219,-1.053443313
15.5,-0.539923072,0.809542656,-0.706597507
15.51,-0.477400899,0.567948341,-0.357846499
15.52,-0.316946358,0.237750053,-0.185307264
15.53,-0.312714398,0.237957954,-0.172433168
15.54,-0.376001149,0.020298958,-0.001940101
15.55,-0.499319524,-0.362607002,0.05026735
15.56,-0.492442697,-0.362421036,0.051092107
15.57,-0.189762652,-0.594548225,0.143320307
15.58,0.052947447,-0.623262405,0.042153601
15.59,-0.216893822,-0.505986214,-0.158103675
15.6,-0.471202612,-0.285654068,-0.330401242
15.61,-0.463772982,-0.285503388,-0.337751597
15.62,-0.573440194,-0.076987267,-0.3205145
15.63,-0.436248779,0.050181389,0.007677332
15.64,-0.311634839,0.057623863,-0.194439456
15.65,-0.351795614,0.026799202,-0.420378059
15.66,-0.053034931,0.130026817,0.043034036
15.67,-0.146636248,0.214027405,0.019461434
15.68,-0.093746364,0.250189781,-0.00548669
15.69,-0.096399277,0.243255615,-0.003516849
15.7,-0.12174809,0.202771187,-0.023582466
15.71,-0.110513657,0.04251194,-0.349408001
15.72,-0.107726365,0.042651176,-0.344157219
15.73,-0.146283627,-0.086547852,-0.455467761
15.74,-0.113153517,-0.151097298,-0.3310076
15.75,-0.022482634,-0.139038086,-0.072867312
15.76,-0.035687864,-0.177190781,-0.152579367
15.77,-0.031095266,-0.176973343,-0.145317257
15.78,0.074194968,-0.215034485,0.002641238
15.79,0.080502033,-0.154998779,0.131059229
15.8,0.150479883,-0.075863838,0.04222608
15.81,0.126189649,-0.030263901,-0.134548187
15.82,-0.046872467,-0.049318314,-0.184294373
15.83,-0.04537937,-0.049242973,-0.182695121
15.84,-0.022988319,0.010640144,0.006587632
15.85,-0.089618176,0.025050163,-0.212524802
15.86,-0.183954984,0.025120735,-0.353578389
15.87,-0.339435786,0.025257111,-0.345644534
15.88,-0.306138367,-0.015219688,-0.320536345
15.89,-0.226892769,-0.050885201,-0.297476351
15.9,-0.295683891,0.014032364,0.01074782
15.91,-0.327961832,0.026292801,0.262977809
15.92,-0.130663514,-0.028506279,0.201804429
15.93,-0.109478593,-0.100078583,0.079881564
15.94,-0.105163515,-0.099791527,0.087093398
15.95,-0.034818888,-0.082790375,-0.056237146
15.96,0.00404197,-0.118453026,-0.161294967
15.97,-0.031842798,-0.137410164,-0.062375799
15.98,-0.065273762,-0.096523285,-0.03873305
15.99,-0.063335061,-0.096384048,-0.034979835
16,-0.122606933,-0.081930161,0.11937888
16.01,-0.299174964,-0.0100317,0.313246667
16.02,-0.213108331,-0.060295105,0.032466456
16.03,-0.319281966,-0.043498039,-0.242053375
16.04,-0.360013574,0.023596764,-0.370264649
16.05,-0.359075993,0.02368927,-0.366803139
16.06,-0.100326657,0.040550232,0.142272413
16.07,-0.100995928,0.040577888,0.145988807
16.08,-0.096621305,-0.028773308,0.430842459
16.09,-0.187033504,-0.014287949,0.167263418
16.1,-0.229792088,0.000312805,-0.286614895
16.11,-0.338860035,-0.049625397,-0.639553309
16.12,-0.316916078,-0.042115211,-0.190224841
16.13,-0.139053285,0.027478218,0.303733885
16.14,-0.071429312,0.029850006,0.450253367
16.15,-0.073388398,0.029849052,0.453303397
16.16,-0.325410008,0.003566742,0.088545203
16.17,-0.208446354,-0.063290596,-0.022952348
16.18,-0.206257105,-0.063061714,-0.017774656
16.19,-0.167414308,-0.124979019,-0.048335791
16.2,0.027000785,-0.148535729,-0.201746225
16.21,0.093103081,-0.097877502,-0.217042178
16.22,0.103468239,-0.023328781,0.109284982
16.23,0.230445966,0.031953812,0.229345739
16.24,0.19364503,0.034573555,0.1397852
16.25,0.193580896,0.034894943,0.150286138
16.26,-0.064044803,-0.005401611,0.046221346
16.27,-0.125600994,-0.146312714,-0.104549259
16.28,-0.125763327,-0.146048546,-0.096481711
16.29,-0.148342073,-0.102800369,0.016555846
16.3,-0.070837617,0.033788681,0.017196357
16.31,-0.098427624,0.156068802,0.109379828
16.32,-0.027042717,0.204177856,0.261895984
16.33,-0.026949257,0.204443932,0.269143462
16.34,-0.033364177,0.099490166,0.072603375
16.35,-0.041161984,0.035323143,-0.087584764
16.36,-0.039697737,0.035779953,-0.077818573
16.37,-0.067580581,-0.033214569,-0.099447459
16.38,-0.03194198,-0.025663376,-0.040201098
16.39,0.01993078,-0.008638382,-0.025861353
16.4,0.037351847,0.025066376,0.04956919
16.41,0.03543824,0.025225639,0.055202812
16.42,0.033530176,-0.053622246,0.084610254
16.43,0.017040372,-0.034362793,0.127549261
16.44,0.014848083,-0.034276009,0.1313878
16.45,0.069826573,-0.01031208,0.177694351
16.46,0.067114711,-0.010177612,0.182948023
16.47,-0.112150312,-0.096134186,-0.155040056
16.48,-0.248499274,0.016738892,-0.221918047
16.49,-0.175895214,-0.018799782,-0.282025933
16.5,-0.018222958,-0.080698967,0.170669496
16.51,-0.020179361,-0.080528259,0.175799847
16.52,-0.0093714,-0.240818024,0.449547261
16.53,0.111479282,-0.099499702,0.5828982
16.54,0.03370896,-0.087508202,0.059747249
16.55,-0.112885714,0.039668083,-0.639052093
16.56,-0.115697295,0.040126801,-0.628036201
16.57,-0.218332768,0.040237427,-0.406799197
16.58,-0.358220816,0.181489945,0.14303866
16.59,0.057916105,0.040161133,0.415811598
16.6,0.049927443,0.040157318,0.421473861
16.61,-0.044288874,-0.201554298,0.018286288
16.62,-0.048189819,-0.201258659,0.026250362
16.63,0.067271084,-0.241549492,-0.348455668
16.64,-0.054621249,-0.152552605,-0.147871018
16.65,-0.053066105,-0.152256012,-0.143729687
16.66,-0.039476603,0.017957687,0.186930895
16.67,-0.099680424,0.042170525,0.202071577
16.68,-0.22123605,0.037845612,-0.074839115
16.69,-0.352933258,-0.009385109,-0.071963429
16.7,-0.347778678,-0.008738518,-0.064884245
16.71,-0.104400545,-0.134972572,-0.329841793
16.72,0.019657224,-0.148756981,-0.171035409
16.73,0.09390071,-0.076558113,0.038230836
16.74,0.07106033,-0.014162064,0.120367289
16.75,-0.052177489,0.045757294,0.136373699
16.76,-0.1098032,-0.011670113,0.007862628
16.77,-0.312808961,-0.049915314,0.001131058
16.78,-0.404676706,-0.0810709,0.035830557
16.79,-0.252287507,-0.093127251,0.045599997
16.8,-0.142367631,-0.109959602,0.070769131
16.81,-0.142780453,-0.110003471,0.070201576
16.82,-0.188287407,-0.093292236,0.074381053
16.83,-0.159446508,0.014390945,0.080667794
16.84,-0.250307202,0.045428276,0.208574534
16.85,-0.232856453,0.030930519,0.263374567
16.86,-0.231993169,0.030874252,0.261811554
16.87,-0.193187684,0.102723122,0.178088546
16.88,0.112526983,-0.007320404,0.134534419
16.89,0.054005951,-1.43051E-05,0.13709873
16.9,0.05340451,0.00014019,0.139899194
16.91,-0.001655281,-0.011687279,0.156622797
16.92,-0.264269859,0.048355103,-0.255267382
16.93,-0.241857141,0.055727959,-0.319839835
16.94,-0.031345218,0.051096916,0.427176803
16.95,0.023999333,0.027020454,0.587123215
16.96,-0.253869206,-0.020997047,0.356783629
16.97,-0.411646485,-0.188487053,0.252851248
16.98,-0.256023228,-0.205123901,0.042648971
16.99,-0.203109801,-0.202534676,-0.554762423
17,-0.200871974,-0.202191353,-0.550945461
17.01,0.137714535,0.051751137,0.351029724
17.02,0.153644085,0.109045982,0.71300894
17.03,0.01901716,0.068272591,0.635491967
17.04,-0.179203987,0.0467062,0.36448884
17.05,-0.134935349,-0.00828743,0.048779488
17.06,-0.107716262,0.037314415,-0.165548444
17.07,-0.16258955,0.047030449,-0.036862671
17.08,-0.071302325,0.047122002,0.151158571
17.09,-0.071707398,0.047184944,0.152351022
17.1,0.001862675,-0.00303936,0.388179481
17.11,0.00225994,-0.002894402,0.39024514
17.12,-0.099216044,0.047745705,0.002167284
17.13,-0.06703037,0.024350166,-0.00256592
17.14,-0.032855451,0.044067383,0.182503223
17.15,0.015289813,-0.039315224,0.22436136
17.16,0.163151771,-0.055727959,0.038157821
17.17,0.178235531,-0.033839226,-0.102097452
17.18,0.176345199,-0.033518791,-0.09643811
17.19,0.03606528,0.050457001,0.024344087
17.2,-0.079974443,0.050532341,0.140942156
17.21,-0.080907553,0.050560951,0.142028213
17.22,-0.084271818,0.002717018,0.13593024
17.23,-0.073835701,-0.114572525,0.015000641
17.24,-0.054130435,-0.114514351,-0.028675616
17.25,0.008453727,-0.092971802,-0.013116419
17.26,0.129911333,-0.078785896,0.033914566
17.27,0.141165555,0.00478363,0.166609168
17.28,0.138574213,0.004541397,0.164590836
17.29,-0.071315974,0.049798965,0.375485241
17.3,-0.071899533,0.049666405,0.373930395
17.31,0.011589855,0.016135216,0.043346882
17.32,0.003897995,0.011454582,-0.03858459
17.33,0.010215133,0.042699814,0.095291317
17.34,0.0067496,0.002049446,0.108719885
17.35,0.005331308,0.002101898,0.110288739
17.36,-0.068053514,0.014115334,0.137861431
17.37,-0.078616768,0.035813332,-0.144376099
17.38,-0.09137097,0.045445442,0.349973261
17.39,0.046851963,-0.007372856,0.882321239
17.4,0.045466572,-0.007673264,0.878916979
17.41,-0.113659978,-0.096297264,-0.16490376
17.42,-0.113174617,-0.096016884,-0.161386728
17.43,-0.204662234,-0.117480278,0.085313618
17.44,-0.071247995,-0.079141617,0.470297337
17.45,-0.122416556,-0.066859245,-0.206255555
17.46,-0.009201586,0.031466484,0.166693628
17.47,-0.010470033,0.031228065,0.16407907
17.48,-0.060376257,0.049902916,0.472447336
17.49,-0.01940009,0.051838875,0.486184776
17.5,-0.066184491,0.049081802,0.144394577
17.51,-0.095042139,0.029868126,-0.115022957
17.52,-0.094210804,0.030010223,-0.1134395
17.53,-0.138183594,0.030180931,-0.087956548
17.54,0.054439843,-0.022388458,0.291077733
17.55,0.030777514,0.018368721,0.296683461
17.56,-0.090379655,0.049663544,0.274379104
17.57,-0.038731575,0.009173393,0.235983551
17.58,-0.035253972,-0.021682739,0.14330703
17.59,-0.034568578,-0.021397591,0.146813572
17.6,0.151759207,-0.045152664,0.128245533
17.61,0.114036024,0.002824783,0.221491844
17.62,0.112479061,0.002850533,0.222518891
17.63,-0.092005253,0.048247337,0.332114786
17.64,-0.208985806,-0.002022743,0.135669708
17.65,-0.274376273,-0.078486443,0.041172385
17.66,-0.272008896,-0.078378677,0.041298091
17.67,-0.338989496,-0.083111763,0.062208235
17.68,-0.219626546,-0.056835175,0.230331868
17.69,-0.245756984,-0.018642426,0.387659669
17.7,-0.094225645,0.014703751,0.254030526
17.71,-0.015530527,-0.009397507,0.083346128
17.72,0.045468837,-0.016651154,0.136630476
17.73,0.046713471,-0.016755104,0.134611547
17.74,0.088380635,0.019006729,0.344751954
17.75,0.08972764,0.018817902,0.341581523
17.76,0.036805719,0.04978466,0.304667354
17.77,-0.021584421,0.047268867,0.234796226
17.78,-0.020127147,0.047228813,0.233347237
17.79,0.016183078,0.01120472,0.224439442
17.8,-0.091076225,0.006339073,0.124904037
17.81,-0.180988252,0.049430847,-0.002772868
17.82,-0.104759723,0.028002739,-0.059838533
17.83,-0.002259076,0.0066185,0.317475408
17.84,0.008396447,-0.000590324,0.548605919
17.85,0.0094347,-0.000635147,0.547311246
17.86,-0.127343625,0.037744522,0.393820465
17.87,-0.020230502,-0.00043869,0.303629458
17.88,-0.244277328,-0.033715248,-0.04697752
17.89,-0.240412474,-0.033309937,-0.043661535
17.9,-0.082149744,-0.047299385,-0.200475574
17.91,0.044488341,0.050893784,0.200044662
17.92,0.09717676,0.07932663,0.333758205
17.93,0.065012932,0.153162956,0.409423441
17.94,-0.016905189,0.212666512,0.427694559
17.95,0.060396373,0.162158966,0.293714583
17.96,-0.125660628,0.152493477,0.269512266
17.97,-0.120779961,0.049585342,0.236711979
17.98,0.001906723,-0.046053886,0.221537888
17.99,0.110280186,-0.132026672,0.169341922
18,-0.033132404,-0.143705368,0.214063197
18.01,-0.031018734,-0.143318176,0.218105704
18.02,0.023666143,-0.135782242,0.341589004
18.03,0.119004756,-0.135440826,0.326007456
18.04,0.047386467,-0.044115067,0.11126262
18.05,0.054810852,-0.01750946,0.015316844
18.06,0.025220126,0.049712181,0.055073678
18.07,-0.168336123,0.111840248,0.065138876
18.08,-0.103108496,0.123636246,0.074494481
18.09,-0.146221072,0.097175598,0.142032862
18.1,-0.162523657,0.104240418,0.250462145
18.11,-0.161026567,0.104271889,0.249788791
18.12,-0.217935056,0.092603683,0.087134063
18.13,-0.099870384,0.052419662,-0.063459277
18.14,0.005346924,0.007505417,-0.083283544
18.15,0.006824791,0.007991791,-0.077582121
18.16,0.0607934,-0.027614594,0.31142661
18.17,0.044733524,-0.003505707,0.330028981
18.18,0.100764275,-0.022428513,0.35391438
18.19,0.091973215,-0.050943375,0.275278449
18.2,-0.079252392,-0.127194405,0.209736228
18.21,-0.151629478,-0.155545235,0.103640378
18.22,-0.152308941,-0.145588875,-0.019384861
18.23,-0.15109244,-0.145179749,-0.01463443
18.24,-0.196167767,-0.013080597,-0.076603472
18.25,-0.195695877,-0.012655258,-0.071291327
18.26,-0.21399805,0.117166519,-0.364266276
18.27,-0.20292145,0.196720123,0.044090033
18.28,-0.06270811,0.223394394,0.71785146
18.29,0.131415278,0.072666168,0.831651986
18.3,0.13143149,0.07284832,0.833998263
18.31,-0.036820054,-0.051282883,0.411529094
18.32,-0.143195719,-0.115578651,0.226801038
18.33,-0.117908239,-0.184592247,-0.277660966
18.34,-0.019006461,-0.258048058,-0.258042276
18.35,0.146655053,-0.224130631,0.201585829
18.36,0.068052262,-0.08530426,0.549275339
18.37,0.029691309,-0.011415482,0.503585398
18.38,-0.061602533,0.009740829,0.165083826
18.39,-0.288780004,0.059807777,-0.056699336
18.4,-0.363578349,0.105258942,-0.073358119
18.41,-0.363632292,0.105349541,-0.072235823
18.42,-0.239017606,0.095990181,0.088442385
18.43,-0.055847496,0.055718422,0.356263161
18.44,-0.054205745,0.056379318,0.363306642
18.45,-0.060496062,-0.031196594,-0.009345353
18.46,-0.082953393,-0.087449074,-0.047440767
18.47,-0.078623712,-0.08630085,-0.036446512
18.48,-0.09108156,-0.137890816,-0.002401412
18.49,-0.087707818,-0.1369133,0.006887197
18.5,-0.046384633,-0.025896072,0.120499253
18.51,-0.08675307,0.037055016,0.225048661
18.52,-0.084038407,0.03761673,0.229746461
18.53,-0.147817254,0.021402359,0.176468492
18.54,-0.256373525,0.067362785,0.105163336
18.55,-0.190098465,0.051008224,0.085733116
18.56,-0.069023013,0.010698318,0.080940366
18.57,-0.046941042,-0.019987106,0.134321094
18.58,-0.07253629,0.018780708,0.029820442
18.59,-0.066506445,0.012164116,0.02648437
18.6,-0.000841856,-0.016074181,0.116184831
18.61,-0.019542217,0.005913734,0.196010053
18.62,-0.01649797,0.006314278,0.198415935
18.63,0.041415215,0.073757172,0.330375135
18.64,0.007510126,0.074262619,0.291421294
18.65,0.021850169,0.074828148,0.164618671
18.66,0.002181053,0.010853767,0.084388673
18.67,0.003553212,0.011526108,0.09064132
18.68,-0.029062927,-0.10522747,0.014576733
18.69,-0.179485619,-0.126296043,-0.093216598
18.7,-0.281241775,0.017837524,-0.072175682
18.71,-0.279042125,0.018230438,-0.069396853
18.72,-0.229043722,0.03061676,-0.001728892
18.73,-0.152739644,-0.007269859,0.140201986
18.74,-0.010967076,-0.059867859,0.50939548
18.75,0.029670238,-0.160531044,0.424636662
18.76,-0.020233214,-0.131877899,0.320640087
18.77,0.022148371,-0.050544739,0.007581055
18.78,-0.002530217,-0.043201447,-0.130404234
18.79,-0.00639993,-0.023695946,0.162310362
18.8,-0.007582128,-0.023734093,0.162467063
18.81,0.209813267,0.059747696,0.419582188
18.82,0.043114424,0.040120125,0.397770166
18.83,-0.067258596,-0.00345993,0.339396358
18.84,-0.129105091,-0.042227745,0.206296742
18.85,-0.129998863,-0.042469025,0.20432514
18.86,-0.14867264,-0.080688477,0.006247997
18.87,-0.106717527,-0.070935249,0.129579425
18.88,-0.064979196,-0.073039055,0.249120116
18.89,-0.085477173,-0.096617699,0.051330984
18.9,-0.139273167,-0.036211014,-0.108998478
18.91,-0.163593888,-0.028367043,-0.060336292
18.92,-0.132764816,-0.018182755,-0.062528968
18.93,-0.178829014,0.018249512,0.032677174
18.94,-0.177100837,0.018665314,0.035768092
18.95,-0.025115192,0.016575813,0.133966088
18.96,-0.05360496,-0.014374733,0.293617249
18.97,-0.048612833,-0.059845924,0.351275682
18.98,-0.081761599,-0.112564087,0.331262231
18.99,0.014148235,-0.20609951,0.193324268
19,0.075716197,-0.182346344,0.210750699
19.01,0.141334981,-0.153948784,0.272972107
19.02,0.060303867,-0.096987724,0.249863625
19.03,-0.031919777,-0.049664497,0.192191899
19.04,-0.054651797,-0.023872375,0.101166904
19.05,-0.056139529,-0.024366379,0.097085178
19.06,-0.227151811,-0.010440826,0.090776384
19.07,-0.060920775,-0.044415474,0.005476952
19.08,-0.092326164,0.0246315,0.139374614
19.09,-0.039858103,0.043307304,0.255643785
19.1,0.105283707,0.054737091,0.184890032
19.11,0.04171133,0.07588768,0.180430055
19.12,0.038537323,0.075520515,0.178333998
19.13,-0.152704656,-0.049309731,0.008461535
19.14,-0.342916668,-0.054340363,-0.13954103
19.15,-0.330789208,0.010093689,-0.127328694
19.16,-0.270439744,0.009866714,-0.185179293
19.17,-0.270858944,0.009623528,-0.187431455
19.18,0.018976271,-0.079450607,0.864397049
19.19,0.016011298,-0.080284119,0.857272267
19.2,0.13448903,-0.052126884,0.428084701
19.21,0.084377229,-0.050061226,-0.044987321
19.22,-0.015560389,-0.093269348,-0.326636016
19.23,-0.044653237,-0.050289154,0.029093862
19.24,-0.073285282,0.071313858,0.537197471
19.25,0.046945661,0.070368767,0.605968893
19.26,0.018297791,0.026399612,0.249474049
19.27,-0.152873933,-0.002859116,0.102036893
19.28,-0.245551825,-0.01036644,0.039439797
19.29,-0.229140222,0.044551849,0.124184609
19.3,-0.085214078,0.068494797,0.109692752
19.31,-0.039726853,0.094910622,0.297193825
19.32,-0.039811075,0.09500885,0.298488557
19.33,0.089311987,0.080762863,0.323700845
19.34,-0.049850106,0.069013596,-0.008662701
19.35,-0.142706692,0.002477646,-0.020190597
19.36,-0.15435344,-0.052206993,0.046200156
19.37,-0.085119128,-0.083004951,0.03547138
19.38,-0.011708796,-0.001346588,0.02911967
19.39,-0.011026651,0.025130272,0.139378965
19.4,-0.058486551,0.044327736,0.196008563
19.41,-0.160606802,0.027563095,0.158360124
19.42,-0.185225099,-0.029916763,0.16595155
19.43,-0.247481465,-0.070562363,0.058624148
19.44,-0.234879792,-0.039340019,0.026004493
19.45,-0.124333352,-0.079922676,0.03657639
19.46,-0.024084151,-0.099003792,0.078227222
19.47,0.053722799,-0.020147324,0.206482232
19.48,0.03771612,0.003436089,0.371195734
19.49,0.028908253,-0.006608963,0.36689657
19.5,-0.018153429,-0.00229454,0.295521438
19.51,-0.131726384,0.018877983,0.349378765
19.52,-0.089130133,-0.010231972,0.419808865
19.53,-0.089897901,-0.010540962,0.416759431
19.54,0.02123192,-0.051390648,0.164390862
19.55,0.046006411,0.022716522,0.156846762
19.56,0.022564501,0.048895836,0.208710671
19.57,0.111461729,0.000811577,0.123919129
19.58,0.024868518,0.01974678,-0.13064903
19.59,-0.027285099,0.067511559,-0.159727573
19.6,-0.045468688,0.084080696,-0.015087247
19.61,-0.047434717,0.083751678,-0.017739773
19.62,0.148208737,0.037639618,0.663935423
19.63,0.067812324,-0.072934151,0.364251316
19.64,-0.095276237,-0.171401024,0.343138993
19.65,-0.148871064,-0.202841759,0.050424933
19.66,-0.227688909,-0.121516228,-0.422217488
19.67,-0.009254068,0.060669899,-0.161595285
19.68,0.197840393,0.10130024,0.556499004
19.69,0.304498792,0.146278381,0.801716387
19.7,0.300824642,0.145688057,0.796819866
19.71,0.061209202,0.063724518,0.334412873
19.72,-0.174886137,-0.025265694,0.160520017
19.73,-0.231694102,-0.049433708,-0.017196357
19.74,-0.230110914,-0.04942894,-0.017891943
19.75,-0.207333267,0.053705215,0.057545841
19.76,-0.103241682,0.063519478,0.270455003
19.77,0.143984169,0.063714981,0.45208782
19.78,0.143600702,0.06388855,0.454158187
19.79,0.17234993,0.064312935,0.229152262
19.8,-0.080532104,0.065001488,-0.024243534
19.81,-0.171517253,0.013112068,0.088698626
19.82,-0.169089228,0.013788223,0.095089197
19.83,-0.086298198,-0.100467682,-0.058674216
19.84,-0.040408522,-0.133449554,-0.009656608
19.85,-0.000104994,-0.097203255,0.288631022
19.86,-0.084196955,0.001101494,0.424335331
19.87,-0.203149974,0.013236046,0.346719503
19.88,-0.187420666,-0.010443687,0.154910326
19.89,-0.088053972,-0.134579659,0.00502193
19.9,-0.087834924,-0.134264946,0.008351982
19.91,-0.028650224,-0.122150421,-0.059089303
19.92,-0.003905237,-0.016974449,-0.004991889
19.93,-0.005802602,-0.017290115,-0.007463276
19.94,-0.181955427,0.159472466,0.319001734
19.95,0.003609002,0.139873505,0.348315358
19.96,0.057210892,0.084446907,0.376255274
19.97,-0.027799547,0.06746769,0.218850434
19.98,-0.034724742,0.022158623,0.02192539
19.99,-0.034152448,0.022502899,0.025556445
20,-0.098141551,0.044406891,0.079329312
20.01,9.45926E-05,-0.003163338,0.142616749
20.02,0.006394953,-0.019745827,0.238334477
20.03,-0.078650743,-0.065253258,0.164615274
20.04,-0.103133082,0.068823814,-0.041014135
20.05,-0.137010098,0.059294701,0.139156759
20.06,-0.056321263,-0.000684738,0.729579926
20.07,0.124397427,-0.092168808,0.7439183
20.08,0.122500241,-0.092722893,0.738908291
20.09,-0.189166755,-0.107084274,-0.046238482
20.1,-0.042478085,-0.054472923,0.326287568
20.11,-0.037214011,-0.06905365,0.067435861
20.12,-0.036402851,-0.068983078,0.067810535
20.13,-0.029251844,0.026826859,0.219243765
20.14,-0.097702861,0.064824104,0.408021539
20.15,-0.026048958,0.064196587,0.486210913
20.16,-0.029033065,0.063439369,0.479142875
20.17,-0.089192837,0.065115929,0.278484047
20.18,-0.183857203,0.06460762,0.134433746
20.19,-0.1932998,0.093093872,0.079037607
20.2,-0.19205603,0.093092918,0.078355432
20.21,-0.011218309,0.028607368,0.168075264
20.22,0.080570132,-0.02620697,0.168031335
20.23,0.023845136,0.000453949,0.032717288
20.24,-0.058873415,0.010490417,0.025326252
20.25,-0.052525043,-0.027348518,0.197365463
20.26,-0.019975871,-0.012758255,0.39072302
20.27,0.102726758,-0.022234917,0.372400522
20.28,0.056930274,-0.019741058,0.203701794
20.29,-0.113180786,0.006791115,0.13408947
20.3,-0.117805004,-0.040904045,0.026040137
20.31,-0.144096613,0.002396584,0.001810372
20.32,-0.213401884,-0.035824776,0.07698679
20.33,-0.167452425,-0.083664894,0.220807552
20.34,-0.102571219,-0.117254257,0.270186544
20.35,-0.106749803,-0.012022018,0.266264916
20.36,-0.117925823,-0.012168884,0.175618649
20.37,-0.11705941,-0.012289047,0.173909485
20.38,-0.13590315,0.066596985,0.15312916
20.39,-0.1355744,0.066478729,0.151714027
20.4,-0.076171547,0.066396713,0.206022441
20.41,-0.016839921,0.047283173,0.106177211
20.42,-0.055153877,-0.010058403,0.124302566
20.43,0.01906687,-0.024260521,0.087710977
20.44,0.018466651,-0.024132729,0.089739263
20.45,0.11051473,-0.045566559,0.137176931
20.46,0.020679444,0.007224083,0.215526819
20.47,-0.0881854,-0.059804916,0.1707142
20.48,-0.294762701,-0.062184334,0.116163194
20.49,-0.249177992,0.045539856,-0.073111951
20.5,-0.098588318,0.035985947,-0.065657318
20.51,0.065399557,0.033512115,0.412956834
20.52,0.120464534,-0.000342369,0.721797347
20.53,0.098087728,-0.036759377,0.337120593
20.54,-0.007295072,-0.063301086,0.058192253
20.55,-0.135456473,-0.049055099,0.201179445
20.56,-0.044403046,-0.066039085,0.17242372
20.57,-0.030088127,-0.075798988,-0.13615185
20.58,-0.061631471,-0.0495224,-0.064721644
20.59,-0.022078127,0.046040535,0.239934683
20.6,-0.070378512,0.064580917,0.397223979
20.61,-0.073449641,0.063955307,0.391658753
20.62,-0.128827572,0.06342411,0.279029191
20.63,-0.130702823,0.063018799,0.275606871
20.64,-0.121840745,0.06282711,0.050875306
20.65,-0.06156075,0.034186363,0.015715837
20.66,0.015366018,-0.044628143,0.020205557
20.67,0.015616089,-0.044408798,0.022631347
20.68,0.072937369,-0.001170158,0.091580689
20.69,-0.018607855,0.063676834,0.079623878
20.7,-0.042601585,0.063872337,0.16824472
20.71,-0.042627424,0.064066887,0.170405686
20.72,-0.009141296,0.054683685,0.220450401
20.73,0.014777571,0.01176548,0.177053511
20.74,0.010142446,0.004777908,0.157694042
20.75,0.010411412,0.004974365,0.159742773
20.76,-0.127820969,0.014699936,0.216193497
20.77,-0.127289385,0.014727592,0.216122747
20.78,-0.090776592,0.064984322,0.323347271
20.79,-0.11856702,0.043395042,0.267264187
20.8,-0.117054492,0.043385506,0.266529441
20.81,-0.17019096,0.026679993,0.014761746
20.82,-0.118008852,0.064951897,0.142800033
20.83,-0.133024216,0.03848362,0.185867786
20.84,-0.129101396,0.062267303,0.255051673
20.85,-0.069820464,0.062122345,0.104137003
20.86,-0.068628371,0.062110901,0.10349226
20.87,0.119052649,0.009506226,0.350257516
20.88,0.12647894,-0.00250721,0.438233107
20.89,0.093877047,-0.071882248,0.368909597
20.9,0.02599442,-0.050200462,0.149469256
20.91,-0.12993905,-0.023593903,0.012450755
20.92,-0.211077541,0.003014565,-0.052731335
20.93,-0.273374707,-0.015854836,-0.04123348
20.94,-0.214324981,0.020206451,-0.169611871
20.95,-0.188903898,0.106575966,-0.189961493
20.96,-0.127243906,0.089938164,0.133673012
20.97,0.09410435,0.113883019,0.609656692
20.98,0.082192779,0.065896034,0.598917007
20.99,-0.085865498,-0.003558159,0.239648938
21,-0.080157608,-0.070428848,0.336977661
21.01,-0.028105915,-0.046427727,0.401258916
21.02,0.029418528,-0.115776062,-0.056442082
21.03,0.153066605,-0.170460701,-0.232437789
21.04,0.090627939,-0.131831169,0.089791358
21.05,-0.076162875,-0.017141342,0.396640331
21.06,-0.092510164,0.04693985,0.401084751
21.07,-0.211542368,0.065513611,0.232494891
21.08,-0.276258558,0.098608971,0.026676834
21.09,-0.295990825,0.122451782,-0.068821073
21.1,-0.23771745,0.113068581,0.120702446
21.11,-0.234355062,0.113376617,0.122416854
21.12,-0.04509452,0.044335365,0.192636907
21.13,0.168158382,0.001676559,0.366153956
21.14,0.280297339,-0.067328453,0.326921821
21.15,0.09621945,-0.028406143,-0.031560183
21.16,0.041492403,-0.061253548,-0.059010923
21.17,0.064832687,-0.103757858,0.046920955
21.18,0.010466725,-0.086651802,0.182156444
21.19,-0.011195809,-0.064967155,0.243502677
21.2,-0.012022972,-0.064992905,0.243707895
21.21,-0.3376109,0.016448021,0.059803426
21.22,-0.389503181,0.069170952,-0.11493361
21.23,-0.383197457,0.069336891,-0.097160697
21.24,-0.337937981,0.088692665,0.021291614
21.25,-0.253868252,0.079322815,0.091392457
21.26,-0.109366655,0.074810982,0.128557444
21.27,0.027966559,0.070417404,0.193409741
21.28,0.033614486,0.07083416,0.306301177
21.29,0.02557686,0.061698914,0.375923932
21.3,0.029901296,0.062125206,0.378238082
21.31,0.083929658,-0.047557831,0.265933871
21.32,0.094574451,-0.09030056,0.207901835
21.33,0.071273267,-0.094960213,0.291322708
21.34,0.119000673,-0.159573555,0.400682509
21.35,-0.01563096,-0.13560009,0.263575852
21.36,-0.063602507,-0.063645363,0.117484748
21.37,-0.116539121,-0.020365715,0.063122451
21.38,-0.114314973,-0.020219803,0.063319445
21.39,-0.165743887,0.051605225,-0.023541331
21.4,-0.262969434,0.073202133,-0.088075101
21.41,-0.261201739,0.073307037,-0.088068068
21.42,-0.060724676,0.171528816,0.308939636
21.43,-0.026245832,0.073432922,0.397741139
21.44,-0.047554493,0.030427933,0.621362686
21.45,0.005858541,-0.103674889,0.390634894
21.46,-0.019621491,-0.134731293,0.185063899
21.47,-0.017540932,-0.134532929,0.185865283
21.48,0.025396168,-0.117401123,-0.089189351
21.49,0.060553014,-0.068982124,0.243535221
21.5,0.084046811,0.017351151,0.594906688
21.51,0.218407899,0.045799255,0.650559604
21.52,0.214836091,0.045244217,0.646871865
21.53,0.063662887,0.028019905,0.451877624
21.54,-0.116823018,0.0157938,0.250950933
21.55,-0.131189346,-0.032114029,0.128498077
21.56,-0.220706761,-0.048512459,-0.095777035
21.57,-0.139865577,-0.055124283,-0.030948281
21.58,-0.138708592,-0.054546356,-0.025452614
21.59,0.065293074,-0.018122673,0.245539904
21.6,0.067683101,0.006311417,0.152454674
21.61,-0.059138477,0.018847466,0.077030182
21.62,-0.146726608,-0.014017105,0.032847524
21.63,-0.159892261,-0.003832817,0.000109076
21.64,-0.159023583,-0.00333786,0.004758358
21.65,-0.1539644,0.035353661,0.044305861
21.66,-0.144383013,0.030797005,0.099462986
21.67,-0.152030528,-0.000197411,0.144173801
21.68,-0.15189141,-8.2016E-05,0.145269752
21.69,-0.225090921,-0.021460533,0.088927686
21.7,-0.202075422,0.033821106,0.025568783
21.71,-0.126084566,0.074746132,0.005418539
21.72,-0.10754168,0.079789162,0.097857594
21.73,0.002115309,0.041647911,0.136876762
21.74,0.024991572,0.013043404,0.269031227
21.75,0.025866807,0.013064384,0.268737257
21.76,-0.014153004,-0.123425484,0.227438331
21.77,-0.02059263,-0.140172005,0.203297436
21.78,-0.001226068,-0.145013809,0.207462907
21.79,-0.0015558,-0.145105362,0.20662874
21.8,0.019153416,-0.087808609,0.246165335
21.81,-0.017837584,-0.061700821,0.258807778
21.82,0.023924708,-0.033203125,0.269087613
21.83,0.108224303,-0.019124985,0.212324679
21.84,-0.054609716,-0.050507545,0.131852925
21.85,-0.190336406,-0.093811035,-0.055968404
21.86,-0.191366494,-0.093888283,-0.056265354
21.87,-0.223216176,-0.017404556,-0.12410295
21.88,-0.047474742,0.027823448,0.240352988
21.89,0.057403564,-0.010943413,0.455098957
21.9,0.133961439,-0.028460503,0.85467875
21.91,0.184307009,-0.089366913,0.595035315
21.92,0.084614664,-0.044772148,0.286094546
21.93,0.036866099,-0.031105995,0.042911589
21.94,0.035216421,-0.031517029,0.039506733
21.95,-0.06704396,0.023340225,0.20822072
21.96,-0.039701045,0.056238174,0.522326231
21.97,-0.048778951,0.002686501,0.431429893
21.98,-0.136357486,0.004158974,0.181835771
21.99,-0.169534028,-0.010950089,0.098168433
22,-0.220637023,-0.004360199,0.108775139
22.01,-0.22026664,-0.004733086,0.104419291
22.02,-0.190336287,0.014305115,0.157601357
22.03,-0.060149789,0.026297569,0.166927099
22.04,0.095893204,-0.052679062,0.353806794
22.05,0.155406743,-0.083789825,0.296699524
22.06,0.03469789,-0.035897255,0.122634113
22.07,-0.03501147,-0.028606415,0.049692333
22.08,-0.080746055,0.000244141,0.067882001
22.09,-0.078829587,0.069787979,0.007123709
22.1,-0.079351187,0.069876671,0.008419037
22.11,-0.213722706,0.093805313,0.226257086
22.12,-0.144079447,0.069765091,0.136475325
22.13,-0.141708911,0.069743156,0.052528441
22.14,-0.119716764,-0.018795967,0.074349284
22.15,-0.092627943,-0.068997383,0.103568018
22.16,-0.019919336,-0.140734673,0.132764101
22.17,-0.043156266,-0.150269508,0.175977886
22.18,-0.070500791,-0.049715042,0.242001712
22.19,-0.06940943,-0.049845696,0.240014911
22.2,0.005279183,0.062548637,0.188021302
22.21,-0.090273261,0.069601059,0.21024853
22.22,-0.051657319,0.069503784,0.146771014
22.23,-0.016168177,0.069429398,0.072106063
22.24,-0.050645888,0.047829628,0.143893361
22.25,0.034209967,0.045331001,0.179332256
22.26,0.032502592,0.045203209,0.178996742
22.27,0.004959702,0.069031715,0.233417988
22.28,-0.048571736,0.04503727,0.123223484
22.29,-0.115650475,-0.021849632,0.048360825
22.3,-0.158427119,-0.062374115,0.126765728
22.31,-0.157607794,-0.062273026,0.12741977
22.32,-0.261635363,0.064803123,-0.055826485
22.33,-0.118612409,0.069735527,-0.014313638
22.34,0.096744716,0.057868958,0.34348017
22.35,0.095231354,0.05774498,0.343088567
22.36,0.116811752,-0.019117355,0.468634874
22.37,0.052709758,-0.08161068,0.354306579
22.38,-0.037167251,-0.057949066,0.237042666
22.39,-0.092094362,-0.048453331,-0.302702546
22.4,-0.091834039,-0.048262596,-0.300622821
22.41,-0.149999797,0.069097519,0.207659602
22.42,-0.132968038,0.068723679,0.578309298
22.43,-0.071094811,0.072918892,0.628237903
22.44,-0.112085253,0.06746769,0.411563873
22.45,-0.191865623,0.014431953,0.118371666
22.46,-0.238802791,-0.074184418,-0.040469408
22.47,-0.177194864,-0.141028404,-0.053592324
22.48,-0.067508191,-0.111984253,0.087561667
22.49,-0.015668333,-0.047073364,0.154343486
22.5,0.11244899,-0.018115997,0.213702261
22.51,0.16298607,0.037218094,0.269169152
22.52,0.071606189,0.037522316,0.177007616
22.53,0.071284592,0.037924767,0.181545854
22.54,-0.000705659,0.033549309,0.246207476
22.55,-0.067887306,-0.011443138,0.122474849
22.56,-0.11139226,-0.030115128,-0.125793994
22.57,-0.160324901,0.025403023,-0.089260995
22.58,-0.161678433,0.025743485,-0.084872425
22.59,-0.101279706,0.071550369,-0.011018276
22.6,-0.133932948,0.07179451,0.176895917
22.61,-0.149122357,0.036040306,0.344326794
22.62,-0.108129472,-0.004484177,0.333949387
22.63,-0.10750711,-0.004341125,0.335134804
22.64,-0.090299755,-0.083170891,0.116534412
22.65,-0.068263233,-0.104618073,0.081393063
22.66,0.015282363,-0.123766899,0.009928942
22.67,0.016409069,-0.080702782,0.086793065
22.68,0.026918769,-0.030637741,0.216954827
22.69,-0.017922163,-0.002212524,0.274478316
22.7,-0.057534546,0.01425457,0.181192875
22.71,-0.070414007,-0.01224041,0.12472111
22.72,-0.070942432,-0.012336731,0.124103308
22.73,-0.014069647,0.066622734,0.219664991
22.74,-0.014931381,0.066649437,0.22029978
22.75,-0.010951519,0.023669243,0.154969811
22.76,-0.074481428,-0.007307053,0.090131998
22.77,-0.075570226,-0.007148743,0.092508078
22.78,-0.206099212,-0.007052422,-0.106985927
22.79,-0.208942175,0.055253983,-0.146876156
22.8,-0.090148091,0.067219734,0.071438313
22.81,0.085409224,0.064692497,0.822604001
22.82,-0.010405958,-0.0268116,0.576520562
22.83,-0.050121784,-0.106125832,0.195644975
22.84,-0.050257146,-0.106115341,0.195938408
22.85,-0.094370693,-0.12532711,0.082049131
22.86,-0.092896312,-0.125225067,0.082376421
22.87,0.044808209,0.064192772,0.062980711
22.88,0.044587582,0.064094543,0.062236071
22.89,0.100452244,0.078022003,0.659349978
22.9,-0.006953597,0.070353508,0.497015208
22.91,-0.008248329,0.069908142,0.4929066
22.92,-0.073284358,-0.007008553,0.259967625
22.93,-0.14939484,-0.076550484,-0.078884125
22.94,-0.194300026,-0.026227951,0.057518184
22.95,-0.095267087,0.012094498,0.200981796
22.96,-0.094968826,0.012104034,0.200906396
22.97,0.031755537,0.012123108,0.270582914
22.98,0.029269665,0.067198753,0.222939432
22.99,0.029260129,0.067316055,0.224312425
23,-0.094947129,0.069979668,0.126372159
23.01,0.001298487,0.02710247,0.145262659
23.02,-0.025199234,0.039261818,0.090022385
23.03,-0.018239021,-0.022791862,0.077852845
23.04,0.055708587,-0.010638237,0.084726334
23.05,-0.050395638,-0.012919426,0.155729771
23.06,-0.058153898,0.042286873,0.131153882
23.07,-0.153899938,0.047283173,0.190752983
23.08,-0.253244489,-0.021945,0.199539661
23.09,-0.251395345,-0.021801949,0.200214803
23.1,-0.230702996,-0.059995651,0.119197011
23.11,-0.067583263,-0.045623779,0.116618633
23.12,-0.122588933,0.00936985,0.221141934
23.13,-0.038523555,0.035585403,0.22216028
23.14,-0.052820921,0.037903786,0.190095365
23.15,-0.066903144,0.040229797,0.237155497
23.16,-0.054431319,0.009011269,0.14745909
23.17,0.033850521,-0.031704903,-0.008340597
23.18,0.03305608,-0.03169632,-0.007692993
23.19,-0.05431357,-0.019774437,0.030566335
23.2,-0.058201581,-0.000750542,0.12091744
23.21,-0.086081177,0.020645142,0.201603293
23.22,-0.001527905,0.001371384,0.117432475
23.23,-0.074722648,0.037180901,0.061761558
23.24,-0.07615006,0.037026405,0.060815752
23.25,-0.125487357,0.00810051,0.097853422
23.26,-0.183880389,-0.011185646,0.017946839
23.27,-0.081885248,0.070157051,0.106370747
23.28,0.07986021,-0.001764297,0.678072333
23.29,0.180682719,-0.131340027,0.534905136
23.3,0.1784136,-0.131518364,0.534028351
23.31,-0.210100085,-0.133780479,-0.113052607
23.32,-0.021454751,-0.040482521,0.346001148
23.33,0.08291921,-0.052850723,0.205974758
23.34,0.054553807,0.006859779,-0.014968395
23.35,0.033051968,0.068998337,0.277063012
23.36,-0.068754107,0.0685215,0.455641747
23.37,-0.077351689,0.051096916,0.356890321
23.38,-0.081128061,0.050408363,0.351285934
23.39,-0.086792469,-0.012444496,-0.036881566
23.4,-0.151169598,0.03502655,-0.059604883
23.41,-0.152416855,0.034730911,-0.062148154
23.42,-0.1221461,0.065691948,0.120786548
23.43,0.054250509,0.01053524,0.278168023
23.44,-0.027815551,0.032075882,0.292694986
23.45,0.003383964,0.029722214,0.108843803
23.46,0.007843524,-0.0203619,-0.006157458
23.47,-0.048023611,-0.001012802,0.128020704
23.48,0.058880121,-0.0391922,0.230410934
23.49,0.071750164,-0.077490807,0.200116515
23.5,0.060546696,-0.084677696,0.198419035
23.51,0.058763593,-0.084823608,0.197766125
23.52,-0.081913739,0.061063766,0.110676706
23.53,-0.200777233,0.065702438,0.133571446
23.54,-0.201609075,0.065602303,0.132889271
23.55,-0.213917226,0.041606903,0.165929854
23.56,-0.20866397,-0.006303787,0.155982137
23.57,-0.116773188,-0.037461281,0.162311018
23.58,-0.17086497,-0.003986359,0.154177725
23.59,-0.140735328,-0.037504196,0.110347211
23.6,-0.053303838,-0.011187553,0.08091563
23.61,0.006967098,-0.0352211,0.156322479
23.62,0.006728679,-0.035388947,0.154491723
23.63,-0.010041714,0.052895546,0.290035546
23.64,-0.041142374,0.057465553,0.189355075
23.65,-0.072072357,0.026180267,0.182649255
23.66,-0.050362408,-0.007445335,0.171740592
23.67,0.030965716,-0.005172729,0.077191353
23.68,0.042324841,0.037889481,0.160884023
23.69,-0.003850549,0.064105988,0.296177506
23.7,-0.004151106,0.063914299,0.294169068
23.71,0.069566786,0.06374836,0.335701287
23.72,-0.148790926,0.066102028,0.256317258
23.73,-0.305505782,0.11414814,0.087584555
23.74,-0.26883319,0.064334869,-0.145590723
23.75,-0.21331498,-0.011630058,-0.068000317
23.76,-0.211001724,-0.011022568,-0.062340975
23.77,-0.006450832,-0.149497986,0.121215522
23.78,-0.072229624,-0.105899811,0.030470192
23.79,-0.069863588,-0.105335236,0.03542459
23.8,-0.140503973,0.026741982,0.246265173
23.81,-0.156023115,0.010388374,-0.131704211
23.82,-0.10979408,0.030181885,-0.315493643
23.83,-0.108325213,0.059356689,0.002219975
23.84,-0.079796642,0.068924904,0.229612351
23.85,-0.081151336,0.068558693,0.22646296
23.86,-0.237556189,0.072945595,0.162672877
23.87,-0.177318811,0.053563118,-0.041329682
23.88,-0.176289827,0.053602219,-0.041174769
23.89,-0.115317375,0.037192345,-0.224787533
23.9,-0.091698915,-0.06762886,-0.064443171
23.91,0.011023849,-0.191607475,0.167425454
23.92,0.13755399,-0.26539135,0.200030983
23.93,0.139135361,-0.264885902,0.204666197
23.94,-0.009726971,-0.230711937,-0.153389752
23.95,0.01597923,-0.244481087,-0.14802438
23.96,0.121750981,-0.260860443,-0.148808956
23.97,0.028985858,-0.167363167,-0.168357134
23.98,0.027070999,-0.167429924,-0.168119788
23.99,-0.085344911,-0.040757179,-0.106958807
24,-0.088003695,-0.041045189,-0.108675599
24.01,-0.11016801,-0.038966179,-0.08430022
24.02,-0.16773954,-0.084811211,-0.139491797
24.03,-0.166626245,-0.058721542,-0.139174879
24.04,-0.193274468,-0.02538681,-0.071510255
24.05,-0.151674002,0.000882149,-0.065534472
24.06,-0.15028438,0.000778198,-0.067157686
24.07,-0.2434358,-0.025527954,-0.188016534
24.08,-0.230053574,-0.03268528,-0.313849211
24.09,-0.114454657,-0.035093308,-0.176737189
24.1,-0.112151325,-0.035284042,-0.179979503
24.11,0.03757152,-0.026019096,0.01008141
24.12,0.038649648,-0.026309013,0.00629431
24.13,0.011075437,0.026165962,0.063395679
24.14,-0.109470159,-0.002563477,-0.069100738
24.15,-0.090264052,-0.067002296,-0.166291654
24.16,-0.088005841,-0.06675148,-0.164740324
24.17,-0.059268057,-0.15987587,-0.247055233
24.18,0.014133662,-0.207612038,-0.222375333
24.19,0.014351666,-0.207661629,-0.222975075
24.2,-0.009479076,-0.224478722,-0.266643763
24.21,-0.365328968,-0.085546494,-0.553739846
24.22,-0.362541556,-0.085285187,-0.552551508
24.23,-0.287896276,-0.051647186,-0.052131712
24.24,-0.116032541,-0.137795448,0.141108394
24.25,-0.147117138,-0.262394905,-0.029913843
24.26,-0.20867753,-0.305475235,-0.207437396
24.27,-0.204295069,-0.28860569,-0.453705192
24.28,-0.14581731,-0.25001049,-0.69200331
24.29,-0.108612895,-0.208780289,-0.642748356
24.3,-0.105944812,-0.208220482,-0.638156354
24.31,0.053679764,0.004722595,0.399956942
24.32,0.015111685,0.018474579,0.437704384
24.33,-0.136329591,0.005791664,0.101267457
24.34,-0.25993517,-0.107115746,-0.297036052
24.35,-0.250659823,-0.236512184,-0.451410711
24.36,-0.303036273,-0.3083992,-0.327547252
24.37,-0.301716775,-0.308385849,-0.328307748
24.38,-0.039608151,-0.339644432,-0.028568506
24.39,-0.039585829,-0.32070446,0.119777799
24.4,-0.040296435,-0.321069717,0.116306901
24.41,0.017795116,-0.331007004,0.022190273
24.42,-0.163784385,-0.281137466,-0.110544622
24.43,-0.127595902,-0.205039978,-0.071892321
24.44,-0.171240956,-0.21043396,-0.125018656
24.45,-0.331863731,-0.108068466,-0.22835815
24.46,-0.517461002,-0.015203476,-0.477594018
24.47,-0.638922572,0.010872841,-0.636658847
24.48,-0.750365496,0.066021919,-0.589922011
24.49,-0.743642211,0.066338539,-0.589914382
24.5,-0.621363521,0.009467125,-0.521809101
24.51,-0.7603001,0.106010437,-0.450499415
24.52,-0.744502902,0.106987953,-0.448779762
24.53,-0.953525305,0.33801651,-0.477953613
24.54,-0.931100547,0.339454651,-0.475966811
24.55,-1.024446368,0.350799561,-0.459461808
24.56,-0.945294678,0.295306206,-0.490825355
24.57,-0.881619692,0.388347626,-0.439269602
24.58,-0.718102813,0.579286575,-0.501645088
24.59,-0.548558116,0.925450325,-0.729424298
24.6,-0.372701824,1.42911911,-0.841615379
24.61,-0.426369369,1.765976906,-0.571227968
24.62,-0.223938406,1.939328194,-0.375921488
24.63,-0.034774303,1.939627647,-0.094268978
24.64,-0.116215944,1.573130608,0.165056109
24.65,-0.302336514,1.132546425,-0.048506677
24.66,-0.457782984,0.491369247,-0.608795047
24.67,-0.546928227,-0.178010941,-1.241666317
24.68,-0.423921287,-0.798978806,-1.566480994
24.69,-0.43218863,-0.802006722,-1.622945786
24.7,0.664224029,-2.080985546,-0.675618529
24.71,1.018104672,-2.806849003,0.22833845
24.72,0.643879414,-3.13279295,1.403599262
24.73,0.635140955,-3.602016926,2.065244675
24.74,0.613869131,-3.603964329,1.979530454
24.75,1.571436644,-4.632814407,1.050412774
24.76,1.648670554,-5.110573292,0.774893522
24.77,1.300370693,-5.451167583,0.818256617
24.78,1.072984934,-5.671100616,0.715655148
24.79,1.019098163,-5.688756466,0.329706401
24.8,0.815657616,-5.559052944,0.161772966
24.81,0.592037678,-5.434640884,0.075829685
24.82,0.541865706,-5.428012848,-0.039349794
24.83,0.777428746,-4.54794693,-0.03624922
24.84,1.058073282,-4.10185957,-0.194355428
24.85,1.20715332,-3.43855381,-0.694541276
24.86,1.142725587,-3.425235748,-0.809011161
24.87,1.063601494,-2.432504654,-1.703141689
24.88,0.768633783,-0.015288353,-3.058697701
24.89,0.927134872,1.295948029,-2.954584599
24.9,0.657440305,2.543410301,-2.198847055
24.91,0.252582103,3.626280785,-1.318629146
24.92,0.017277598,4.133663177,-0.810811102
24.93,-0.335812748,4.036881447,-0.295894623
24.94,-0.385451853,4.049817085,-0.350908637
24.95,-0.327514172,3.449766159,-0.393050075
24.96,-0.236360133,2.786973953,-1.254861355
24.97,-0.166426003,2.112486839,-1.91367197
24.98,-0.182743371,1.528996468,-2.332434177
24.99,-0.000640035,1.05807209,-2.316673279
25,0.442618907,1.116440773,-1.187195063
25.01,0.460898995,2.026938438,-0.71386528
25.02,0.417324543,2.050689697,-0.795916319
25.03,0.18465209,3.835031509,0.254403591
25.04,0.079126954,4.506561279,0.611304045
25.05,0.063081503,4.530315399,0.528203011
25.06,-0.002548933,4.823888779,1.036470413
25.07,0.035096765,4.442922592,0.56492281
25.08,0.037800908,4.461426735,0.500174761
25.09,-0.117352247,3.26095295,-1.330143929
25.1,-0.105859757,3.274391174,-1.37871933
25.11,-0.994673371,1.714769363,-1.329848051
25.12,-1.111268282,1.228815079,-1.029868722
25.13,-0.995322585,0.417107582,-0.975954294
25.14,-0.970034659,0.430355072,-1.024695873
25.15,-0.663887501,-0.24663353,-0.723017693
25.16,-3.508437634,-0.096024513,4.10716629
25.17,-4.020983696,-0.661785126,5.442903042
25.18,-3.646556854,-1.114325523,4.693943977
25.19,-4.183102131,-1.23611021,2.922717571
25.2,-4.283970833,-1.529288769,1.040340185
25.21,-3.417581558,-2.074101925,0.320118189
25.22,-0.628856897,-2.615051746,-0.210209131
25.23,1.39409852,-1.976866245,0.14369154
25.24,1.434048891,-1.951567173,0.07391119
25.25,2.251184464,1.247941971,3.043391943
25.26,-0.101733841,3.682870865,4.755209446
25.27,-3.027702093,6.511534691,5.779700279
25.28,-3.826044083,8.646873474,4.664955139
25.29,-3.52241683,11.27231407,1.723973036
25.3,-3.291491985,13.7086401,-0.758974075
25.31,-2.299779654,14.79632378,-0.532123327
25.32,-1.56934166,14.34866428,1.353320599
25.33,-1.76091814,13.33817101,2.771950245
25.34,-1.354449272,11.31603622,3.188712597
25.35,-0.753357291,8.414031982,3.44192028
25.36,-0.315983504,4.804610252,3.321291924
25.37,-0.387063742,4.804568291,3.320659161
25.38,-0.140229732,-1.396971703,0.315073013
25.39,1.268868685,-4.053920269,-0.265687466
25.4,1.178666115,-4.093868732,-0.174042702
25.41,3.561666965,-8.379570007,-2.140370846
25.42,3.3524189,-10.610075,-2.615767956
25.43,2.350240231,-11.95209122,-2.097547531
25.44,0.755734026,-12.50615692,-2.865026712
25.45,0.03310585,-12.29101372,-4.080662251
25.46,-0.983917713,-12.21883583,-3.891273975
25.47,-2.654884338,-11.8751564,-1.834828138
25.48,-2.607690573,-11.63197231,-0.750567198
25.49,-1.272524595,-11.30963421,-1.418811083
25.5,-0.484427393,-10.76604557,-3.952321291
25.51,-0.546574712,-10.25805092,-6.642971992
25.52,-0.594532847,-10.26690578,-6.60656929
25.53,0.143423677,-8.998012543,-8.681035995
25.54,1.463742256,-7.206535816,-8.982559204
25.55,6.451097488,-1.181693554,-2.621393681
25.56,9.392350197,3.073865891,0.348097563
25.57,10.18146801,7.6213274,2.995310545
25.58,10.12039661,7.601939201,3.066874027
25.59,8.111717224,11.53993607,5.749516964
25.6,-0.868481934,15.68192673,7.260475636
25.61,-3.577480316,15.56448078,5.878895283
25.62,-0.951708257,12.8275013,2.769197702
25.63,0.302587748,9.216895103,-0.444104195
25.64,-0.787503302,7.132066727,-1.97025001
25.65,-2.249891758,5.792510986,-1.76421845
25.66,-2.15318346,5.783888817,-1.767864585
25.67,-2.258853674,5.960082054,-1.338673949
25.68,-3.31112051,6.686544418,-0.67476058
25.69,-3.274660587,5.942110062,-0.334903479
25.7,-2.632971764,5.575405121,2.287469864
25.71,-2.699747562,3.271297455,6.22779274
25.72,-5.109292984,-5.174907207,5.683906555
25.73,-4.639310837,-9.542613029,0.471343517
25.74,-4.587233067,-9.553080559,0.50470686
25.75,-3.884485722,-12.95212269,-6.695148945
25.76,-3.456233025,-12.7431078,-5.3638134
25.77,-3.555616379,-12.25768375,-2.007901192
25.78,-3.559331894,-12.23820114,-2.068439484
25.79,-3.948101997,-12.45208931,0.508951664
25.8,-3.653279066,-12.95108414,1.145929813
25.81,-2.308183193,-11.84640884,-0.449231625
25.82,-1.82098949,-9.733548164,-0.686445475
25.83,-0.529012203,-6.582269669,-0.608069658
25.84,-0.579051495,-6.559420586,-0.664774656
25.85,1.807461262,1.654253006,-1.267668962
25.86,3.656252861,5.725184441,-0.391638041
25.87,2.441046715,9.155649185,1.491312027
25.88,0.170102969,11.55499649,5.229888439
25.89,-0.954017043,12.78243446,11.21427155
25.9,-1.219018459,12.96619129,18.54565239
25.91,-1.515414476,12.43594074,21.04826736
25.92,-1.7886765,11.47138405,14.51413727
25.93,-2.919619083,10.82695293,3.034662008
25.94,-4.156045437,10.80141163,-5.031851292
25.95,-4.348080635,9.923151016,-8.51962471
25.96,-3.639333963,9.094083786,-6.686022282
25.97,-3.114251852,8.164171219,-4.47437048
25.98,-2.550220251,6.842630386,-3.357318878
25.99,-1.841409922,6.154595375,2.105052471
26,-1.851994038,6.17188549,2.058529854
26.01,-0.898417354,4.484023094,7.915092468
26.02,1.125342607,2.077929497,10.24032021
26.03,5.149859428,-4.987690449,8.102446556
26.04,5.105013847,-5.039156437,8.246884346
26.05,3.292374372,-10.40558052,0.12621665
26.06,2.489576578,-12.44890499,-5.931180954
26.07,1.711090565,-13.8369503,-10.34289169
26.08,0.481452256,-14.29584217,-11.60921001
26.09,0.431815684,-14.32640934,-11.49141788
26.1,-0.720928013,-13.89629173,-1.81093955
26.11,-0.709025562,-13.62190437,2.839876175
26.12,-0.806434929,-13.59817123,2.773344517
26.13,0.560913563,-12.832654,3.937663317
26.14,-0.602658987,-12.23674107,-1.337190628
26.15,-2.210033894,-11.30173111,-8.289206505
26.16,-2.234447241,-11.31383133,-8.237106323
26.17,0.783281624,-4.002202988,-6.795255184
26.18,5.693925858,-0.107159615,-0.769310594
26.19,5.669816017,-0.101447105,-0.782201409
26.2,6.612010002,8.84344101,5.088752747
26.21,5.698681355,12.25967026,4.66937542
26.22,3.455443859,14.73099804,5.041394234
26.23,-1.612685323,16.32332611,6.427127361
26.24,-1.538857818,16.30558395,6.463708401
26.25,1.795977592,10.99477673,6.372379303
26.26,1.871560216,10.9825449,6.392316818
26.27,0.51346761,8.772122383,2.565027714
26.28,-1.373361588,7.777298927,-0.394751191
26.29,-0.501766086,8.574652672,-0.880789399
26.3,-0.141274273,8.785165787,1.91466403
26.31,-0.876610041,8.505739212,6.082066536
26.32,-1.796738148,7.951601982,9.2667799
26.33,-1.704194665,7.960805893,9.225396156
26.34,-0.976329267,1.331438065,11.39832973
26.35,-0.900016129,1.313214302,11.46560669
26.36,-0.420008928,-4.407512188,6.958743095
26.37,-2.36239028,-12.49216938,-3.456006527
26.38,-2.331109762,-14.51049232,-5.99861908
26.39,-1.537351608,-15.84036255,-6.441953659
26.4,-1.486337543,-15.85617638,-6.350623131
26.41,-1.106837273,-16.30397034,-5.388729572
26.42,-1.192271948,-16.00661659,-3.488806963
26.43,-4.639112473,-15.12628746,1.154896379
26.44,-5.868696213,-14.29288578,0.850492835
26.45,-6.386050701,-12.99640369,-0.5112468
26.46,-6.443949223,-12.98911285,-0.551090717
26.47,-6.12560463,-8.395062447,-2.97896862
26.48,-4.937708855,-6.183279991,-3.102931023
26.49,-3.788174629,-3.468623161,-1.979263783
26.5,-1.772730827,-0.17598629,0.004217148
26.51,-1.800473928,-0.177458763,0.013180733
26.52,3.092900753,4.360121727,3.156345844
26.53,4.917871475,6.891862869,4.496245861
26.54,1.937840343,13.91473103,6.158502579
26.55,0.410360247,16.72340393,13.80660152
26.56,-2.710003138,17.31860352,23.71282959
26.57,-5.852727413,16.88127518,23.89735794
26.58,-6.142429829,16.17750931,8.959197998
26.59,-6.416600227,15.76501179,-8.539288521
26.6,-7.42155838,14.44765663,-13.76702118
26.61,-4.90748024,10.93426132,-7.720664978
26.62,-4.917473316,10.93100929,-7.705811501
26.63,1.846756458,3.588378906,5.698484421
26.64,1.786666989,3.595855713,5.658541203
26.65,3.990674973,-0.965904236,7.436420441
26.66,3.85916543,-2.825161457,7.582686424
26.67,3.875807762,-5.046495914,5.391529083
26.68,3.416188955,-7.709545135,1.117369294
26.69,1.5464257,-9.910115242,-2.437657118
26.7,0.060951412,-11.68939877,-4.088579178
26.71,-0.191186249,-13.26213932,-4.782649994
26.72,0.116001993,-14.94424152,-5.312074184
26.73,0.498648226,-15.71291161,-5.386693954
26.74,0.474258214,-15.72327042,-5.307219028
26.75,1.153937101,-16.88014984,-0.450101078
26.76,2.540758371,-17.10558891,2.97273016
26.77,3.90177989,-15.80897141,3.858433247
26.78,2.516652107,-13.04993153,0.631636977
26.79,-0.662765622,-9.945245743,-4.032804012
26.8,-2.445447445,-7.344833374,-8.838796616
26.81,-2.459910631,-7.3415308,-8.85068512
26.82,-2.778557301,-4.756599903,-10.99668217
26.83,4.784741402,3.429145813,-4.205980778
26.84,11.28993702,6.932806969,4.541687965
26.85,15.84791756,8.334228516,8.496901512
26.86,13.8524437,10.09446907,10.59487343
26.87,13.68831539,10.12443829,10.57007217
26.88,2.002601147,14.43964291,9.805913925
26.89,2.011156559,14.42953777,9.848137856
26.9,-0.835828006,15.40667439,3.969839573
26.91,-3.652957916,13.56058979,1.417946935
26.92,-4.408480644,12.03985405,0.106432796
26.93,-3.144420147,9.844130516,0.959022284
26.94,-1.926120639,8.146584511,2.413723469
26.95,-1.987038851,6.592803001,5.147984982
26.96,-2.325273037,5.635520935,7.671298981
26.97,-1.673366547,3.073554993,8.5572052
26.98,-1.549509048,3.060792923,8.561262131
26.99,-3.430544376,-2.786408901,7.715405464
27,-3.302595615,-6.039279461,3.530547142
27.01,-4.196856499,-9.710946083,-2.155860901
27.02,-4.087101936,-9.734482765,-2.058760166
27.03,-4.687010288,-12.18824959,-6.606880188
27.04,-4.45952034,-13.84060669,-6.687949181
27.05,-3.476043701,-14.65048313,-3.017875195
27.06,-2.522337437,-15.22164536,0.66619575
27.07,-2.541456938,-15.21832657,0.643735409
27.08,-3.852191925,-15.32263756,5.848240852
27.09,-3.451619625,-14.15116596,2.62791729
27.1,-3.291888475,-12.13901901,-2.694526672
27.11,-4.260034084,-9.33466053,-4.985838413
27.12,-4.805243015,-6.686533928,-4.399046898
27.13,-4.450983047,-4.010474205,-3.288714647
27.14,-4.439230442,-4.01143837,-3.284933567
27.15,-1.37981987,1.045236588,-2.261154413
27.16,3.855803967,7.061779022,1.800861239
27.17,4.455656528,10.98799133,4.697970867
27.18,5.763026714,12.97686005,13.02407455
27.19,5.173913002,14.44255924,23.18856812
27.2,-0.027246386,16.68532753,28.96236229
27.21,-6.382591248,18.62704086,23.22914314
27.22,-10.28728485,19.23796463,8.639060974
27.23,-13.61163712,18.4304657,-9.197999954
27.24,-13.10370922,14.90493679,-16.70521736
27.25,-6.826221943,9.684047699,-9.743247986
27.26,-6.884268284,9.678746223,-9.716917992
27.27,-0.149000332,2.382281303,1.319614649
27.28,1.465033054,0.331192017,3.170409203
27.29,2.986066103,-1.123568535,5.8602705
27.3,4.451236248,-3.121509552,8.673423767
27.31,4.531379223,-4.626606464,9.820134163
27.32,3.987846136,-6.058472633,8.451635361
27.33,2.225248575,-7.98134613,4.377350807
27.34,0.544845939,-10.15503216,-0.405496836
27.35,-0.412784308,-12.596982,-3.762399673
27.36,-0.145032734,-14.84150696,-6.754137039
27.37,0.4691571,-16.31022263,-8.505056381
27.38,0.433845222,-16.32480049,-8.397016525
27.39,3.902492285,-17.01469803,-5.400082111
27.4,4.940991402,-16.85175705,-0.720871091
27.41,5.404890537,-16.22608566,4.431936741
27.42,5.173092842,-14.48418236,5.217848778
27.43,2.321594,-11.81534481,2.508749247
27.44,2.268491745,-11.79999638,2.458152294
27.45,-5.180233955,-6.993951797,-9.138645172
27.46,-5.228419304,-4.723165035,-11.57887936
27.47,-2.023909569,-2.002450943,-8.364052773
27.48,4.045074463,4.444263458,-1.991487622
27.49,11.4349184,7.200845718,5.472332954
27.5,11.30341244,7.215600967,5.481495857
27.51,15.44239044,14.95486736,10.83506489
27.52,6.824947357,21.56236649,12.36475182
27.53,6.850840569,21.55647469,12.37464142
27.54,-0.147341967,23.65412521,8.337051392
27.55,-3.13746357,20.30295944,1.350029111
27.56,-5.434569836,14.90928555,-3.004371166
27.57,-5.397040367,14.90403843,-3.00578618
27.58,-5.703351974,5.893280029,3.117975235
27.59,-4.558442593,2.971286774,4.508962631
27.6,-3.529821396,-0.007081032,3.684900045
27.61,-1.508276105,-3.018276215,4.211499214
27.62,-2.067899942,-5.072408676,7.734815121
27.63,-2.858253956,-6.48155117,10.2078104
27.64,-2.726151228,-6.490509033,10.19909573
27.65,-2.773905993,-9.663536072,1.215732694
27.66,-2.67146349,-9.671930313,1.231511354
27.67,-4.159075737,-11.43791676,-9.379951477
27.68,-4.040694714,-11.44894314,-9.336108208
27.69,-2.660647869,-12.247015,-3.450268745
27.7,-2.641011238,-12.27312469,-0.078520536
27.71,-2.629582405,-12.26552391,-0.127644301
27.72,-5.328037262,-11.96858501,4.847704887
27.73,-6.921672344,-12.125103,4.771563053
27.74,-5.431715965,-12.07014847,0.937173843
27.75,-3.147176027,-11.95874596,-3.128754377
27.76,-2.83121419,-10.70461845,-4.649056435
27.77,-2.723214865,-9.04438591,-3.901475906
27.78,-2.467409611,-6.92616272,-3.038147449
27.79,-2.461703062,-6.924725533,-3.047075272
27.8,-0.58601743,0.154733658,-0.571605206
27.81,-0.579266906,0.156163216,-0.580330372
27.82,5.69652319,8.155991554,4.350250244
27.83,7.254831314,14.53497219,4.664487362
27.84,5.803279877,18.03307343,10.72703934
27.85,4.745759964,19.70936203,20.1662178
27.86,1.437284112,20.09888458,30.25408173
27.87,1.429398656,20.14409447,30.06859779
27.88,-14.82418728,20.02628136,4.370297432
27.89,-14.72763443,19.97180939,4.594753265
27.9,-9.125890732,11.60082817,-20.35709
27.91,-1.991376162,6.477437973,-6.398277283
27.92,-2.037424803,6.472844124,-6.370816708
27.93,0.032057494,3.371414185,1.000573158
27.94,3.058734894,-0.357657433,6.073717594
27.95,4.930706978,-2.637826443,8.037406921
27.96,6.056929111,-4.331820011,8.834149361
27.97,4.977106094,-5.904751778,6.321219444
27.98,4.903051376,-5.903902054,6.33637476
27.99,2.44709754,-7.231211662,2.02162075
28,0.043933988,-9.29578495,-3.113976479
28.01,-0.675958812,-12.70911598,-6.865300179
28.02,-0.22386846,-13.26554775,-5.62203455
28.03,-0.119366646,-14.20357609,-3.97422123
28.04,0.566716671,-14.97741604,-1.934320092
28.05,1.274714708,-15.65236855,0.520248652
28.06,2.880255699,-16.29788208,3.604909658
28.07,4.394782066,-15.38490963,5.994371891
28.08,3.529015541,-12.86031151,4.818099499
