Time (s),Linear Acceleration x (m/s^2),Linear Acceleration y (m/s^2),Linear Acceleration z (m/s^2)
0,-0.329721153,-0.037219048,0.251241028
0.01,-0.162591279,-0.103460312,0.288964093
0.02,-0.091634989,-0.093016624,0.116600037
0.03,-0.087400556,-0.091990471,0.125717461
0.04,0.050238818,-0.086033821,-0.095943868
0.05,-0.05771637,-0.118449211,-0.099479556
0.06,-0.056389511,-0.117488861,-0.090143561
0.07,-0.023142755,-0.090477943,0.015389025
0.08,-0.046317935,0.075193405,0.121930003
0.09,-0.103091896,0.101847649,0.176357567
0.1,-0.109924376,0.092494965,0.244438767
0.11,-0.112291157,0.092654228,0.247376025
0.12,-0.073951244,0.076081276,0.159578025
0.13,-0.138055325,-0.108053207,0.038629055
0.14,-0.139517486,-0.107748985,0.042484522
0.15,-0.174054265,-0.076323509,-0.011373281
0.16,-0.303300381,0.017310143,0.062995315
0.17,-0.196854174,0.070280075,0.012795508
0.18,-0.066952765,0.065867424,-0.000456095
0.19,-0.016650379,0.042280197,0.211342394
0.2,-0.016986012,0.042512894,0.213930666
0.21,0.051710427,0.023631096,0.276967347
0.22,0.225127667,0.021629334,0.12601161
0.23,0.035382718,0.019543648,0.22265929
0.24,0.06548816,-0.135910034,0.133988023
0.25,-0.158767998,-0.130887032,0.091631055
0.26,-0.159502029,-0.130648613,0.094323337
0.27,-0.157549977,-0.037047386,-0.142683625
0.28,-0.059192717,-0.135053635,-0.101611614
0.29,-0.070007592,-0.216542244,0.181999445
0.3,0.004778951,-0.185818672,0.553440571
0.31,-0.09062016,-0.184139252,0.400214195
0.32,-0.053228319,-0.136768341,0.068723559
0.33,0.032889366,-0.041172981,-0.142437875
0.34,0.030280799,-0.041248322,-0.141845763
0.35,0.068029433,-0.007850647,0.143195093
0.36,0.028568298,0.058830261,0.500588536
0.37,0.082191885,0.062966347,0.776217341
0.38,0.10200572,-0.028896332,0.570651293
0.39,0.038306624,-0.084560394,0.264718473
0.4,-0.165457577,-0.041805267,0.145108283
0.41,-0.080277383,-0.118613243,-0.03105849
0.42,-0.081532478,-0.118638039,-0.030700803
0.43,-0.014065146,-0.128221512,-0.025103867
0.44,0.091593683,-0.09496212,0.543237805
0.45,0.125490934,-0.06415081,0.311020076
0.46,0.073070198,-0.06913662,0.137638629
0.47,-0.106118947,-0.057268143,0.065701067
0.48,-0.169940293,-0.054989815,-0.006349325
0.49,-0.224432737,-0.076589584,-0.00368619
0.5,-0.064171433,-0.055113792,-0.096572459
0.51,-0.00552842,0.009466171,-0.078917086
0.52,-0.008714944,0.009419441,-0.07796669
0.53,-0.209452957,0.069194794,0.271703303
0.54,-0.105004191,-0.038690567,0.2227633
0.55,-0.106153667,-0.038734436,0.222789049
0.56,-0.012455344,-0.160813332,0.01822114
0.57,-0.07474035,-0.153693199,0.078367949
0.58,0.005779386,-0.134737015,0.118603528
0.59,0.001162529,-0.135004044,0.117903292
0.6,-0.068751037,0.032268524,0.351509392
0.61,-0.044356883,0.072528839,0.336998284
0.62,0.135179967,0.110456467,0.196213126
0.63,0.067535579,0.076638222,0.087857604
0.64,0.014574558,0.071706772,0.153050661
0.65,0.155904263,0.030825615,0.189022064
0.66,0.110227764,-0.019678116,0.277425587
0.67,0.105969667,-0.019935608,0.276423097
0.68,-0.100187212,0.008734703,0.018318355
0.69,-0.197157502,0.071208,-0.201535225
0.7,-0.261985004,0.071606636,-0.235676587
0.71,-0.262584716,0.071925163,-0.232274056
0.72,-0.00613156,-0.02139473,0.408354521
0.73,0.011532009,-0.021697998,0.71799463
0.74,0.008746922,-0.022076607,0.715170205
0.75,0.123601481,-0.060596466,0.055680811
0.76,0.011985689,-0.067695618,-0.239808798
0.77,-0.056294501,-0.01961422,-0.266110718
0.78,-0.020279318,0.068934441,0.134225309
0.79,0.101189792,0.046750069,0.589461505
0.8,0.049786448,0.062688828,0.810751438
0.81,-0.062675059,0.069103241,0.478887975
0.82,-0.065404773,0.0686903,0.475580156
0.83,-0.152640432,0.054231644,0.113649547
0.84,-0.219077945,-0.031748772,-0.255527198
0.85,-0.132688075,-0.079360008,-0.161837816
0.86,-0.092528731,-0.02178669,0.1483289
0.87,-0.021247298,-0.005084038,0.385059297
0.88,0.088022619,-0.014811516,0.223372221
0.89,0.127551287,0.001927376,0.075034082
0.9,0.043052882,-0.012317657,0.011932433
0.91,-0.143695742,0.042943001,0.164644539
0.92,-0.102255106,0.06938839,0.096144617
0.93,0.086990356,0.06483078,-0.105109513
0.94,0.08369872,0.050807953,-0.110800743
0.95,0.083490908,0.051130295,-0.10744679
0.96,-0.292696863,0.116041184,0.313629925
0.97,-0.30407241,0.121149063,0.29422307
0.98,-0.301457703,0.121548653,0.297235131
0.99,-0.075200945,0.050198555,0.129270434
1,-0.038817614,-0.092930794,0.0791682
1.01,-0.112201035,-0.056622505,0.128340185
1.02,-0.206729949,-0.030127525,0.203667402
1.03,-0.109660119,-0.020558357,0.179297984
1.04,-0.082871825,0.055975914,0.242926955
1.05,-0.056325555,0.125181198,0.376884818
1.06,-0.056140542,0.124850273,0.373594523
1.07,0.112956002,0.06475544,0.175278962
1.08,0.064943373,0.071867943,0.282246232
1.09,0.065420359,0.071694374,0.280529499
1.1,-0.0870215,0.071640968,0.267596602
1.11,-0.060440868,-0.028813362,-0.215181828
1.12,-0.158611596,0.072035789,-0.353360653
1.13,-0.125277609,0.067446709,0.010155797
1.14,0.067040265,0.026636124,0.802271366
1.15,0.064160913,0.026223183,0.799023867
1.16,-0.001246631,-0.093866348,0.336723149
1.17,-0.053173751,-0.189707756,0.030214429
1.18,-0.044575155,-0.184856415,0.043171883
1.19,-0.054427832,-0.086668015,-0.145645022
1.2,0.011809587,0.057168961,-0.074249923
1.21,0.03366226,0.071455002,0.457318246
1.22,0.030012637,0.070998192,0.453972459
1.23,0.016266137,0.07272625,0.747845292
1.24,0.004662871,0.069717407,0.508613765
1.25,-0.035061002,0.064436913,0.236799359
1.26,-0.088732332,-0.022177696,-0.056081235
1.27,-0.158648312,0.025520325,-0.172078967
1.28,-0.07497108,0.027881622,0.07983011
1.29,-0.077841222,0.027780533,0.079709709
1.3,0.038588494,0.041959763,0.354344666
1.31,0.036347896,0.041954041,0.354871869
1.32,-0.105909467,0.046858788,0.291760802
1.33,-0.173706979,0.023155212,0.145997584
1.34,0.002854437,-0.060433388,0.064603269
1.35,0.156231582,-0.108172417,0.025971532
1.36,0.140136138,-0.156074524,0.084666908
1.37,0.188736647,-0.077215195,0.218439937
1.38,0.038506538,0.02063942,0.360176325
1.39,-0.040761501,0.060938835,0.505220592
1.4,-0.08327207,0.06761837,0.383307397
1.41,-0.132081121,0.067199707,0.278781295
1.42,-0.280703247,0.014204979,0.227562249
1.43,-0.210990489,0.004351616,0.081042171
1.44,-0.192484975,-0.00784874,0.122031331
1.45,-0.19354251,-0.008167267,0.118992984
1.46,-0.015727788,-0.054067612,0.158325076
1.47,-0.018270046,-0.054466248,0.154837191
1.48,-0.085645765,0.057636261,0.321190357
1.49,-0.049067259,0.059602737,0.353125632
1.5,0.054071933,0.001671791,0.250698566
1.51,0.137415096,-0.046559334,0.13769722
1.52,0.055102944,-0.00133419,0.202793956
1.53,-0.113098264,0.005545616,0.332150936
1.54,-0.248708665,0.036343575,0.281243384
1.55,-0.248967439,0.036099434,0.278577983
1.56,-0.325347096,0.062376976,-0.014240742
1.57,-0.100233972,-0.009384155,0.149424553
1.58,0.125665724,-0.169789314,0.164287627
1.59,0.122719437,-0.169712067,0.166054666
1.6,-0.152509749,-0.09051609,-0.07331562
1.61,-0.237107217,0.024383545,0.355155468
1.62,-0.148403317,-0.002183914,0.369497836
1.63,-0.060232341,0.012005806,0.140282333
1.64,0.11268799,-0.016825676,0.292883456
1.65,0.108890355,-0.017289162,0.289060116
1.66,0.104597926,0.032266617,0.504908562
1.67,0.02667436,0.041128159,0.277778268
1.68,-0.005358458,0.01187706,0.059893608
1.69,-0.094201103,-0.012393951,-0.014999866
1.7,-0.089261115,-0.019827843,0.049990475
1.71,0.052230746,-0.015272141,0.160463333
1.72,0.04948394,-0.015547752,0.158022344
1.73,-0.024621159,0.043997765,0.399469465
1.74,-0.026767075,0.043759346,0.397168189
1.75,0.009501189,0.038951874,0.023926139
1.76,-0.009187818,0.050971031,0.084998846
1.77,-0.008613005,0.041436195,0.140790761
1.78,-0.010483772,0.041414261,0.14128238
1.79,-0.076823577,0.027058601,0.108113825
1.8,0.005853325,0.029436111,0.086672902
1.81,0.004539028,0.029392242,0.086505115
1.82,-0.072495699,0.036436081,0.288489342
1.83,-0.213534057,0.05782795,0.478214055
1.84,-0.212395266,0.057616234,0.475597173
1.85,-0.218293428,-0.002355576,0.383107275
1.86,-0.040879056,-0.066875458,-0.257214606
1.87,-0.050643206,0.002697945,-0.080883503
1.88,-0.036373556,0.069489479,0.110263348
1.89,0.046990156,0.136203766,0.231305301
1.9,0.042291626,0.159915924,0.319504261
1.91,-0.016159192,0.152611733,0.372866958
1.92,-0.020754039,0.068819046,0.374793619
1.93,0.064108461,0.056979179,0.15034318
1.94,0.066856742,0.057292938,0.153223157
1.95,-0.07140322,-0.0262537,0.205511272
1.96,-0.00129655,-0.042902946,0.210792601
1.97,0.000995949,-0.042856216,0.210694432
1.98,-0.264532775,0.021745682,0.247833788
1.99,-0.172100052,0.095849991,0.118481636
2,-0.051789582,0.07422924,0.277433813
2.01,-0.049560517,0.074075699,0.275001049
2.02,-0.137664184,0.056915283,0.762708426
2.03,-0.021094829,-0.034537315,0.248604178
2.04,-0.095719337,-0.132714272,0.005356729
2.05,-0.088779598,-0.132367134,0.007203221
2.06,-0.25790152,-0.052889824,-0.231642723
2.07,-0.2510328,-0.052261353,-0.226722181
2.08,0.083624691,-0.051755905,-0.006900311
2.09,0.168880805,0.044091225,0.460521042
2.1,0.104579955,0.058214188,0.656408548
2.11,0.104894429,0.05786705,0.652291179
2.12,0.000271738,0.100641251,0.310828924
2.13,-0.089043349,0.110123634,0.017015934
2.14,-0.313587934,0.122329712,-0.017184377
2.15,-0.295007348,0.067745209,-0.113471091
2.16,-0.182872891,0.003788948,-0.128740609
2.17,-0.140188456,-0.007324219,-0.10127157
2.18,-0.006570131,-0.109368324,-0.04473871
2.19,0.100359336,-0.182689667,0.114741623
2.2,0.103991553,-0.181882858,0.122297168
2.21,0.221735895,-0.097434044,0.37738198
2.22,0.224339068,-0.097062111,0.380682766
2.23,-0.079641551,0.063559532,0.506451726
2.24,-0.235415936,0.063601494,0.458317161
2.25,-0.137542993,0.02766037,0.316067696
2.26,-0.117090285,-0.027433395,0.11176002
2.27,-0.115510017,-0.027363777,0.112018347
2.28,-0.475624591,0.023078918,0.057324708
2.29,-0.398673594,0.063996315,-0.179365993
2.3,-0.393813282,0.064352036,-0.177425981
2.31,-0.28836453,0.047955513,-0.287836254
2.32,-0.256572157,0.096131325,0.20663178
2.33,-0.251134932,0.096319199,0.20638746
2.34,0.094751656,0.048727036,0.391455054
2.35,0.183398411,-0.022655487,0.243727684
2.36,0.188284144,-0.022044182,0.248203933
2.37,0.004556715,-0.138748169,0.140092671
2.38,0.023777395,-0.140582085,0.062549829
2.39,-0.032809645,-0.22393322,0.09466958
2.4,-0.069312185,-0.230835915,0.010734916
2.41,-0.041710824,-0.11811924,-0.088302553
2.42,-0.040578604,-0.118010521,-0.087806284
2.43,-0.006207705,0.013652802,0.184603274
2.44,-0.109048396,0.049406052,0.5371328
2.45,-0.109640241,0.048923492,0.532383561
2.46,-0.021974742,-0.001896858,0.706585944
2.47,-0.043818712,-0.066836357,0.342074037
2.48,-0.300830603,-0.014331818,0.02833873
2.49,-0.190487474,-0.043085098,-0.197990239
2.5,-0.040508598,-0.088445663,-0.084717631
2.51,-0.041485637,-0.088517189,-0.085283458
2.52,0.026670843,0.06429863,0.705696583
2.53,0.026622325,0.063736916,0.699694097
2.54,-0.037017703,0.077572823,0.662404776
2.55,-0.270954698,0.065250397,0.175921738
2.56,-0.333923757,-0.004322052,0.067159414
2.57,-0.228373587,-0.085735321,0.043266416
2.58,-0.065826952,-0.114423752,0.168611705
2.59,0.0719212,-0.104739189,0.220633388
2.6,0.074676037,-0.10459137,0.221104503
2.61,-0.020224094,-0.070854187,0.195535004
2.62,-0.007396758,-0.041992188,0.152526259
2.63,-0.052496135,0.010807991,0.027953267
2.64,-0.203159303,0.066034317,-0.002527535
2.65,-0.293417871,0.118930817,0.019777238
2.66,-0.290132552,0.119117737,0.020314455
2.67,-0.16818741,0.100188255,0.026536286
2.68,-0.215984762,0.066896439,0.128260732
2.69,-0.170032114,0.047886848,0.255320966
2.7,-0.214999378,0.002462387,0.142140091
2.71,-0.20707196,-0.050056458,0.194861472
2.72,-0.07444784,-0.100244522,0.072135031
2.73,-0.072385937,-0.100203514,0.071593165
2.74,-0.003582448,-0.095516205,0.148566604
2.75,-0.013291746,-0.07175827,0.363244176
2.76,-0.013217002,-0.064746857,0.307359338
2.77,-0.005929053,-0.064864159,0.29763037
2.78,-0.079639554,-0.060153961,0.302427173
2.79,-0.139023066,-0.069847107,0.376134783
2.8,-0.136402339,-0.069997787,0.373125106
2.81,-0.05779615,-0.055725098,0.121839106
2.82,-0.056955636,-0.055801392,0.120447397
2.83,-0.204987973,-0.132507324,-0.033901453
2.84,-0.295341462,-0.067905426,-0.149767101
2.85,-0.282420844,-0.027248383,-0.177211225
2.86,-0.150572032,-0.077647209,-0.094741404
2.87,0.017701507,-0.152173996,0.252378166
2.88,0.014397502,-0.152738571,0.247636557
2.89,0.10972929,-0.108160973,0.923443675
2.9,-0.064258397,-0.046267509,0.815769315
2.91,-0.026851714,-0.048737526,0.023993254
2.92,-0.025429577,-0.04859066,0.024868906
2.93,0.170876741,-0.163439751,0.145490468
2.94,0.184684217,-0.135011673,0.490907848
2.95,0.018033803,0.000782013,0.5614357
2.96,0.016181171,9.25064E-05,0.554445386
2.97,-0.381306171,0.061907768,-0.044502497
2.98,-0.380530536,0.061830521,-0.045853317
2.99,-0.277458876,0.052368164,-0.126015365
3,-0.097445786,0.035678864,0.049349427
3.01,0.096734792,-0.040845871,0.251439393
3.02,0.11093092,-0.086239815,0.398869067
3.03,0.111736983,-0.086098671,0.400059134
3.04,-0.064082116,-0.016425133,0.064516306
3.05,-0.117998928,-0.066428185,0.033651352
3.06,-0.043381572,-0.1547966,-0.004741251
3.07,0.005199015,-0.145173073,-0.000809133
3.08,-0.016248554,-0.008788109,0.047294915
3.09,-0.018047124,-0.008948326,0.046281397
3.1,-0.322997689,0.07703495,0.14737761
3.11,-0.322244525,0.076917648,0.145673156
3.12,-0.156071633,-0.004480362,-0.12791419
3.13,-0.155681759,-0.004378319,-0.126945078
3.14,-0.159257084,-0.083322525,0.139067829
3.15,0.00031811,-0.138316155,0.129505932
3.16,0.10127309,-0.025753021,0.163176
3.17,0.101356387,-0.025791168,0.162663996
3.18,0.01805684,0.086627007,0.220882952
3.19,0.017903686,0.086537361,0.219940126
3.2,0.005522549,0.119984627,0.149901211
3.21,0.050371081,0.074425697,0.079979181
3.22,-0.006112337,0.062426567,0.082983673
3.23,-0.033651441,-0.026125908,0.036190093
3.24,-0.034506589,-0.052408218,0.135306954
3.25,-0.035160393,-0.05243206,0.135372996
3.26,-0.181490839,0.005002022,0.041911483
3.27,-0.130686492,0.062591553,-0.112508118
3.28,-0.115856111,0.046023369,-0.007573903
3.29,-0.116277576,0.046020508,-0.007255971
3.3,-0.005820245,-0.004386902,0.372900665
3.31,0.156323314,-0.145946503,0.565144181
3.32,0.153727442,-0.146204948,0.563335061
3.33,0.06839928,-0.0721035,0.000172496
3.34,0.024876803,-0.005058289,-0.358623266
3.35,0.024103463,-0.00510025,-0.358725011
3.36,-0.006689429,0.080713272,0.420735478
3.37,-0.010147154,0.080022812,0.414398134
3.38,0.043768257,0.067300797,0.682633638
3.39,0.040803581,0.066775322,0.677911282
3.4,-0.162940413,-0.026587486,-0.095098615
3.41,-0.162785202,-0.026429176,-0.09327203
3.42,-0.163110495,-0.023795128,-0.028063178
3.43,-0.095974922,0.024290085,0.19707042
3.44,-0.096326202,0.024508476,0.199818254
3.45,0.087069929,0.048669815,0.358711273
3.46,0.113296777,0.025048256,0.211700022
3.47,0.1130355,0.025453568,0.216660261
3.48,0.084089696,-0.041111946,0.018830776
3.49,-0.040340722,-0.033483505,0.038359523
3.5,-0.098314166,-0.023579597,0.073784828
3.51,-0.104091167,0.007797241,0.09397763
3.52,-0.062884569,0.017519951,0.043891251
3.53,-0.110153586,0.058384895,0.025087178
3.54,-0.204878509,0.048977852,0.039632142
3.55,-0.095279038,-0.003525734,-0.03243053
3.56,-0.071925253,-0.10630703,-0.027571917
3.57,-0.122104436,-0.154043198,0.115362048
3.58,-0.198224127,-0.094110489,0.228546977
3.59,-0.235966384,-0.062935829,0.307587922
3.6,-0.101301909,-0.067747116,0.275997043
3.61,-0.101592124,-0.067768097,0.275862634
3.62,-0.047951788,0.063912392,0.140090406
3.63,-0.010528922,0.047113419,0.175945461
3.64,0.004995316,0.063766479,0.218427479
3.65,0.005688936,0.061232567,0.133965015
3.66,-0.106587678,0.063521385,0.102734864
3.67,0.068698645,0.010765076,0.038127959
3.68,-0.15216288,0.041827202,0.117969036
3.69,-0.460221708,0.063405037,0.104528725
3.7,-0.503877163,0.099490166,0.049267411
3.71,-0.504940391,0.09972477,0.052627862
3.72,-0.318757117,0.064066887,-0.029348671
3.73,0.127384841,-0.017336845,0.260890424
3.74,0.38490057,-0.185085297,0.387598068
3.75,0.366979361,-0.276211739,0.352797449
3.76,0.068400949,-0.120834351,0.291874468
3.77,-0.216239154,0.03933239,-0.186441541
3.78,-0.167043656,0.068080902,-0.319870412
3.79,-0.028561711,0.072811127,0.121243775
3.8,0.011724323,0.089065552,0.553573549
3.81,-0.027224541,0.066962242,0.537723303
3.82,-0.127712905,0.025802612,0.316587985
3.83,-0.098275661,-0.096679688,0.146395743
3.84,0.010182291,-0.128194809,-0.002200007
3.85,-0.068365425,-0.068665504,0.086912572
3.86,0.017424375,-0.009038925,0.154808641
3.87,0.175026327,0.009925842,0.206527591
3.88,0.172420234,0.009823799,0.206341147
3.89,0.025231957,0.028936386,0.211137831
3.9,-0.192319721,0.060191154,0.037627161
3.91,-0.267644107,0.101187706,0.09065181
3.92,-0.181275994,0.039230347,0.024606943
3.93,-0.182262689,0.03950882,0.028088927
3.94,-0.019675821,0.006122589,-0.033972383
3.95,0.037258148,0.010901451,0.151515544
3.96,0.017503709,-0.003549576,0.216251552
3.97,0.002918363,-0.015693665,0.184145153
3.98,0.006332129,-0.082770348,0.172378898
3.99,-0.149964452,-0.075579643,0.151151955
4,-0.207046509,-0.070763588,0.010052204
4.01,-0.206621856,-0.070711136,0.010445595
4.02,-0.106316567,-0.068389893,0.146183372
4.03,-0.056799322,-0.037575722,0.272494316
4.04,-0.08663857,0.024311066,0.361833751
4.05,0.007915437,0.007078171,0.33558923
4.06,0.085109815,0.001875877,0.216598094
4.07,0.104477733,0.015898705,0.201444626
4.08,0.097921282,0.008408546,0.162737608
4.09,0.097088337,0.008239746,0.161041915
4.1,-0.223944992,0.012971878,-0.052762806
4.11,-0.271137506,-0.027760506,0.02339977
4.12,-0.146597207,-0.061411858,-0.006927848
4.13,-0.147803098,-0.061611176,-0.008739889
4.14,-0.129444718,0.057954788,-0.084441781
4.15,-0.256705731,0.091255188,0.099988163
4.16,-0.123922795,0.057541847,0.461982012
4.17,0.146558121,-0.03355217,0.516864419
4.18,-0.144151866,-0.198553085,-0.129343748
4.19,-0.144542337,-0.198392868,-0.127189815
4.2,-0.082144171,-0.136192322,0.154667735
4.21,-0.085398585,-0.045318604,-0.083375573
4.22,-0.087370187,0.057482719,0.085551202
4.23,-0.090882272,0.056992531,0.081200004
4.24,-0.145722479,0.056242943,0.552881718
4.25,-0.042593449,0.009908676,0.39118892
4.26,-0.03513664,-0.067378044,0.152410448
4.27,-0.050753385,-0.051098824,-0.098661482
4.28,-0.099422663,-0.010709763,-0.134692431
4.29,-0.195079297,0.053731918,-0.071947813
4.3,-0.196469009,0.053566933,-0.073354185
4.31,-0.20454526,0.046269417,0.069161892
4.32,-0.174465686,0.007964134,0.084034264
4.33,-0.125274003,-0.054217339,-0.020134866
4.34,-0.169874638,-0.073259354,-0.013318002
4.35,-0.130395949,-0.101872444,-0.073826671
4.36,-0.131956339,-0.101831436,-0.072606742
4.37,-0.035815865,-0.13300705,-0.058289588
4.38,-0.137816221,-0.106975555,0.163481355
4.39,-0.23687762,-0.078541756,0.117146134
4.4,-0.342480809,-0.078803062,0.037409127
4.41,-0.42041871,-0.088521957,-0.06053859
4.42,-0.480539262,-0.08620739,-0.08150363
4.43,-0.47776717,-0.086371422,-0.084524393
4.44,-0.374285609,-0.151312828,0.020965278
4.45,-0.208623022,-0.189965248,0.046523809
4.46,-0.092181295,-0.19762516,0.140612125
4.47,-0.139814019,-0.143141747,0.223944902
4.48,-0.169913143,-0.057512283,0.192370713
4.49,-0.168394238,-0.057954788,0.18599999
4.5,-0.374576718,0.025489807,0.099072635
4.51,-0.371289343,0.025209427,0.094086707
4.52,-0.403631479,0.053751946,-0.142009974
4.53,-0.517316699,0.048876762,-0.070447624
4.54,-0.445626199,-0.006223679,-0.111209273
4.55,-0.440885425,-0.006210327,-0.113059282
4.56,-0.51708293,-0.10196209,-0.141321719
4.57,-0.519386292,-0.094655037,-0.243441939
4.58,-0.597161055,-0.12789917,-0.152486384
4.59,-0.466251314,-0.228236198,0.21995604
4.6,-0.458838701,-0.228258133,0.216027498
4.61,-0.228655636,-0.422290802,0.053122878
4.62,-0.222537726,-0.422408104,0.048198879
4.63,-0.269444317,-0.415452957,0.073365808
4.64,-0.235712498,-0.4348526,-0.080159247
4.65,-0.33872205,-0.317810059,0.048542023
4.66,-0.331918806,-0.318240166,0.038380682
4.67,-0.319308966,-0.282946587,0.212941051
4.68,0.075876355,-0.221437454,0.083085299
4.69,0.076521963,-0.222251892,0.07034564
4.7,-0.291609585,-0.120077133,0.08027041
4.71,-0.382258683,-0.046469688,-0.1003654
4.72,-0.44261995,-0.082754135,-0.357576609
4.73,-0.434630126,-0.082881927,-0.365001202
4.74,-0.382865012,-0.159415245,-0.525755882
4.75,-0.152523816,-0.192842484,-0.682962537
4.76,-0.035486609,-0.154390335,-0.632974327
4.77,0.042030185,0.051607132,-0.116394222
4.78,0.185146719,0.044374466,-0.178040266
4.79,0.500084758,-0.053853035,-0.386187792
4.8,0.76804018,-0.097036362,-0.522032499
4.81,0.760342598,-0.097244263,-0.519565225
4.82,1.166177273,-0.119215012,-0.272555769
4.83,1.213035464,-0.105622292,0.040495574
4.84,1.133868456,-0.10201931,0.299523354
4.85,1.103016853,-0.103551865,0.29332155
4.86,0.951883674,-0.150841713,0.296634495
4.87,0.840459585,-0.183844566,-0.077775061
4.88,0.486324042,-0.10895443,-0.116740108
4.89,0.310590237,-0.05777359,-0.347709477
4.9,0.320003748,-0.035112381,-0.764768362
4.91,0.163039669,0.062106133,-1.019882202
4.92,0.136450067,0.061525345,-1.023969173
4.93,-0.339122087,0.381476402,-0.967509866
4.94,-0.290686846,0.356824875,-1.111575723
4.95,-0.268370688,0.325306892,-1.269414186
4.96,-0.236151025,0.322728157,-1.083187222
4.97,-0.194316044,0.315485954,-0.820959687
4.98,-0.224702209,0.274754524,-0.49380973
4.99,-0.197149962,0.164524078,-0.381001115
5,-0.195875108,0.164381981,-0.384320617
5.01,-0.027748644,0.080374718,-0.508827448
5.02,0.010369495,0.020125389,-0.438498259
5.03,0.312616646,-0.483264923,0.000944495
5.04,0.307753414,-0.484021187,-0.015956372
5.05,0.420845926,-0.968492508,0.024877816
5.06,0.324670494,-0.940591812,-0.137510181
5.07,0.323564589,-0.941401482,-0.159239203
5.08,0.243568003,-0.79846096,-0.558246553
5.09,0.305601507,-0.645910263,-0.873661757
5.1,0.277948558,-0.53178978,-0.645589471
5.11,0.270978719,-0.532610893,-0.674071431
5.12,0.13973397,-0.375374794,-0.391619086
5.13,0.09710896,-0.268313408,-0.281439424
5.14,0.231917471,-0.242516518,-0.587471426
5.15,-0.254169852,-0.226153374,-0.831626415
5.16,-0.467104197,-0.257586479,-1.121113181
5.17,-0.469701797,-0.25780201,-1.142321348
5.18,-0.437644661,-0.296289444,-1.422236443
5.19,-0.296537757,-0.490345001,-1.318225741
5.2,-0.300255597,-0.4904356,-1.335944414
5.21,-0.15726161,-0.459344864,-1.056036472
5.22,-0.083418071,-0.447397232,-1.028452754
5.23,0.0577919,-0.425841332,-1.063839197
5.24,0.187159091,-0.516816139,-1.161813498
5.25,0.185655713,-0.5167799,-1.172128081
5.26,0.035097837,-0.461668015,-0.954039991
5.27,0.03954225,-0.461618424,-0.962774515
5.28,-0.530885458,-0.167070389,-0.845906079
5.29,-0.581329644,0.017333984,-1.116533875
5.3,-0.627471387,0.093978882,-1.016164184
5.31,-0.540958226,0.295137405,-0.89880079
5.32,-0.241766021,0.520236015,-0.999521017
5.33,-0.052492261,0.785980225,-0.830312491
5.34,-0.056810126,0.78597641,-0.829840779
5.35,0.238980621,0.955911636,-0.702159286
5.36,1.054956198,1.171341896,-0.094762474
5.37,1.359993935,1.446622849,-0.227039486
5.38,1.370834827,1.446540833,-0.199417323
5.39,0.200728983,2.284610748,-2.14243269
5.4,-0.502035499,2.512493134,-2.359094381
5.41,-1.237774134,2.712061882,-2.122609854
5.42,-1.463748813,3.16824913,-2.315344334
5.43,-1.715206385,3.464268684,-2.020172834
5.44,-1.261045337,3.827444077,-0.97051996
5.45,-1.227449656,3.828882217,-0.949440956
5.46,-0.4165667,3.636098862,1.533303022
5.47,-0.391991049,3.637081146,1.539107919
5.48,0.040912867,3.206968307,3.568053484
5.49,0.145756096,2.876996994,4.656533241
5.5,0.605778396,2.457942009,5.129583359
5.51,1.34351933,1.820536613,5.279450417
5.52,1.300792217,1.206798553,5.365793705
5.53,0.483656824,0.784854889,5.483933449
5.54,0.498942614,0.785117149,5.463023663
5.55,-1.670246005,0.235219002,3.497106552
5.56,-1.708554029,-0.07730484,2.078745842
5.57,-1.333321571,-0.320338249,1.058046818
5.58,-1.012910724,-0.149208069,0.512139678
5.59,-0.472944677,0.132047653,0.361895502
5.6,-0.168123126,0.274438858,0.645538032
5.61,-0.306961775,0.453044891,1.188583732
5.62,-0.520070612,0.679904938,1.580628753
5.63,-1.028695107,0.799413681,1.594955564
5.64,-1.619158149,0.852257729,1.535781503
5.65,-1.851834178,0.92436409,1.297476172
5.66,-1.931755781,0.679873467,1.114781141
5.67,-1.917880058,0.681648254,1.080586553
5.68,-1.549777985,-0.631446838,0.974164009
5.69,-0.804378629,-1.767889023,0.710718751
5.7,-0.813632071,-1.767701149,0.683226943
5.71,0.588730156,-3.985336781,-0.13816309
5.72,0.764681578,-4.84812355,-0.502948523
5.73,0.756940484,-5.402078629,-0.85507834
5.74,0.750978708,-5.402860641,-0.844519496
5.75,-0.511151254,-5.688160896,-0.122661784
5.76,-0.908185244,-5.513476849,0.281570017
5.77,-0.702080548,-5.279105186,-0.04471162
5.78,-0.13033092,-4.882256985,-0.525391161
5.79,0.350889385,-4.44285202,-0.884071946
5.8,0.415517092,-4.200284958,-0.822849631
5.81,0.439546675,-3.821285248,-0.311004818
5.82,0.408522576,-3.822751045,-0.324803621
5.83,0.598169506,-3.414582253,-0.05190137
5.84,0.590986133,-3.125915527,-0.500651479
5.85,0.566890717,-3.12680912,-0.511775494
5.86,-0.04899624,-2.162526608,-1.320663214
5.87,-0.059496582,-2.162891865,-1.324490547
5.88,-1.309857965,-0.910782814,-0.411576271
5.89,-1.377642155,-0.465503693,-0.409045994
5.9,-1.289476871,0.010678291,-0.648093462
5.91,-1.279750824,0.010258675,-0.621098518
5.92,-1.394457221,1.247741699,-1.525092721
5.93,-1.286991596,1.714288712,-1.947038293
5.94,-0.989186525,2.21686554,-1.431084156
5.95,-0.630484462,2.609295845,-0.168041065
5.96,-0.397786737,2.939331055,0.952373087
5.97,-0.407269716,2.938707352,0.961358309
5.98,-1.105874062,3.361719131,2.193619967
5.99,-1.121280909,3.360847473,2.19955349
6,-3.045192003,3.19482708,0.81355381
6.01,-3.481722116,3.122491837,-1.754798651
6.02,-3.485765219,3.122163773,-1.732379913
6.03,-2.629481077,4.087163925,-5.418503284
6.04,-0.70055294,4.669221878,-2.500941515
6.05,-0.702091098,4.66937542,-2.459079266
6.06,1.036083341,5.30394268,0.012984268
6.07,2.131352425,5.639117241,1.814652801
6.08,2.177353144,5.780545235,3.609936237
6.09,1.98399961,4.396766663,7.454277515
6.1,2.335291147,3.125068665,7.864418983
6.11,2.313275814,3.124347687,7.873714924
6.12,3.331552982,0.305185318,4.396706104
6.13,3.191556454,-0.890900612,2.390342474
6.14,3.305877686,-1.710959435,-0.706180394
6.15,3.281429291,-1.711995125,-0.71770072
6.16,-0.169722289,-0.841086388,-3.043536186
6.17,-0.443497956,-0.178812981,-0.867033839
6.18,0.170386523,0.145835877,0.406231046
6.19,0.575918615,0.245670319,1.250747204
6.2,0.090128377,0.614063263,2.021142006
6.21,-0.532508135,1.073973656,2.005408287
6.22,-1.383995533,1.11764431,1.257881403
6.23,-1.950883508,0.589165688,0.690708935
6.24,-1.797459602,-0.830028534,0.815237939
6.25,-0.972356498,-2.433652878,0.686881065
6.26,-0.276352286,-3.809984207,0.199277028
6.27,-0.271047741,-3.80971241,0.193604246
6.28,0.256255716,-5.60033083,-0.376952052
6.29,0.402959019,-5.978135109,-0.368452132
6.3,0.577849686,-6.037416458,0.297256351
6.31,0.802273274,-5.864303112,1.048669577
6.32,0.802794457,-5.331920624,0.838073671
6.33,0.816354632,-4.785123825,0.541963577
6.34,0.573128581,-4.228693485,0.601715565
6.35,0.511488855,-3.861227989,0.431851745
6.36,0.699709415,-3.704500675,0.012232304
6.37,0.779925525,-3.399442673,-0.381005615
6.38,0.61486131,-3.082501888,-0.774836838
6.39,0.618464589,-3.081585407,-0.798087359
6.4,0.57210505,-2.163575649,-0.907017708
6.41,0.503391087,-1.343659401,-0.438018858
6.42,0.423770487,-0.45177269,-0.102158219
6.43,0.387480378,0.212581635,-0.259809375
6.44,-0.34652552,1.080136299,-0.620836258
6.45,-0.75037384,1.729537964,-1.184504747
6.46,-0.723123193,2.055110931,-1.546655893
6.47,-0.676069081,2.389889717,-1.982159972
6.48,-0.192866743,2.820126534,-2.764355421
6.49,0.42017597,3.331449509,-2.864940405
6.5,0.406919152,3.897830963,-2.266047955
6.51,0.41285497,3.897408485,-2.248120785
6.52,0.026959091,4.306778908,-1.787884951
6.53,-0.714071631,3.725289345,-1.022769332
6.54,-0.703058362,3.725880623,-1.024083376
6.55,-0.049019694,3.034667969,0.314752042
6.56,-0.046480536,3.035295486,0.30164063
6.57,0.499903768,3.12228775,0.915788889
6.58,0.100528896,3.686043739,2.825405121
6.59,-0.323482156,3.541295052,4.243429184
6.6,-0.894708753,2.841179848,5.68576479
6.61,-0.908360422,1.655135155,7.127776623
6.62,-0.098169148,0.449790001,7.665205479
6.63,1.135385752,-0.509313583,7.172114372
6.64,1.416307449,-0.51602459,5.382615089
6.65,0.434545755,0.357963562,2.801169872
6.66,0.43185699,0.357860565,2.800265074
6.67,-0.026974261,2.167756081,-0.691375017
6.68,-0.729996204,3.500034332,-0.959124088
6.69,-2.811359406,4.136762619,0.333764732
6.7,-2.786903143,4.140550613,0.294620454
6.71,-5.340010166,4.871258736,1.801063418
6.72,-5.843981743,4.541535378,2.636127949
6.73,-4.715718269,3.613775253,2.363543272
6.74,-2.740378857,1.818136215,1.922173262
6.75,0.115231276,-1.683994293,0.029604316
6.76,1.285239697,-3.180619717,-0.30321458
6.77,2.079056263,-4.660871506,-0.071085095
6.78,2.632399082,-5.791601181,0.376099706
6.79,2.593719482,-6.572349548,0.571715057
6.8,1.998711824,-6.950577736,0.536625505
6.81,1.968328953,-6.952638626,0.543684781
6.82,1.310674071,-7.103233337,0.029308736
6.83,0.677459776,-6.933221817,-0.665551066
6.84,0.678348064,-6.648749828,-0.836875081
6.85,0.534336209,-6.168115139,-1.027027369
6.86,0.147503361,-5.500455379,-0.653133273
6.87,0.1495554,-4.904207706,-0.560782075
6.88,0.011462539,-4.259968281,-0.763592482
6.89,-0.532718897,-3.706648827,-0.957887411
6.9,-1.047027588,-2.873072624,-1.319154382
6.91,-1.353302479,-2.216610432,-1.968693852
6.92,-1.550219774,-1.526547432,-2.395123243
6.93,-1.333015919,-0.58731842,-2.668712139
6.94,-1.338086963,-0.588795662,-2.616573334
6.95,-1.055649281,0.176292419,-2.166208744
6.96,-1.165133238,1.411195755,-0.353693694
6.97,-1.364540935,1.578584671,0.294917405
6.98,-1.337655187,1.430195808,0.693439603
6.99,-1.080431104,1.226948738,0.438089728
7,-0.566256106,1.148388863,-0.497451156
7.01,-0.505578995,1.395627022,-1.64310503
7.02,-0.829205692,1.959178925,-2.1513412
7.03,-1.534354448,2.659314156,-2.243222952
7.04,-2.230786562,3.364227295,-2.059628248
7.05,-2.223015308,3.365029335,-2.034894705
7.06,-2.578145981,4.000137329,-0.967671156
7.07,-1.966292977,4.728438377,0.189057842
7.08,-1.276936889,5.210424423,0.837522149
7.09,0.427146673,5.374451637,1.497247696
7.1,1.695080757,5.438319206,2.479658127
7.11,2.260769129,5.663094521,3.223391533
7.12,2.551398993,5.375991821,3.726881027
7.13,2.806933641,4.51418972,3.720019817
7.14,3.478332996,3.1083498,3.407619953
7.15,3.858626604,1.931277275,2.959791422
7.16,4.112842083,0.700638771,2.079110384
7.17,3.610182047,0.039815903,0.585588813
7.18,2.82054615,-0.182846069,-0.668781042
7.19,1.722717524,0.293405533,-0.959018409
7.2,0.975459218,0.792937279,-0.496482313
7.21,1.441976786,0.939724922,-0.363127053
7.22,1.421799183,0.937620163,-0.396527767
7.23,1.651088953,1.222483635,0.499522716
7.24,0.975347757,0.845953941,1.276947141
7.25,0.349390745,0.502924919,2.116692066
7.26,-0.591214955,-0.354602814,2.924470186
7.27,-0.358901978,-1.362368584,2.535664082
7.28,-0.313675642,-2.453209877,1.668072939
7.29,-0.674823284,-3.414169788,0.74418962
7.3,-1.060768127,-3.991709709,0.02885478
7.31,-1.22019732,-4.382426739,-0.466908038
7.32,-1.063876748,-4.818507671,-0.704447329
7.33,-0.628050506,-5.204158783,-0.463515848
7.34,-0.013536358,-5.450816631,-0.224641994
7.35,0.146047175,-5.400517941,-0.175991863
7.36,0.114769712,-5.160939693,0.055180255
7.37,0.253555894,-4.894928455,0.463905245
7.38,0.603614926,-4.573762417,0.215739727
7.39,0.649198175,-4.247740746,-0.30278185
7.4,0.501789451,-3.907247066,-0.512587547
7.41,0.483641028,-3.533200741,-0.623482108
7.42,0.342620939,-3.092136383,-0.885950744
7.43,0.316718161,-2.62950325,-1.423193336
7.44,0.141970575,-2.073507786,-1.59440136
7.45,-0.06372714,-1.507964134,-1.295755148
7.46,-0.113191366,-1.047811508,-0.781475067
7.47,0.230986476,-0.44888401,-0.397705138
7.48,0.262231857,-0.017598152,-0.27689153
7.49,0.335279435,0.538252831,-0.759011447
7.5,0.408820331,1.345541954,-1.486797333
7.51,0.196931034,2.148021698,-1.680887461
7.52,0.245853499,3.101376534,-1.649672627
7.53,0.062400103,3.819987297,-1.299524665
7.54,-0.12053594,4.098067284,-1.050109625
7.55,-0.399863839,3.95003891,-1.471194744
7.56,-1.100983739,3.596323013,-1.731958389
7.57,-2.081207991,3.659609795,-0.404092073
7.58,-1.43579936,4.077773094,0.786730111
7.59,-0.191262484,4.160754204,0.305698901
7.6,0.152157456,4.356278419,0.373509795
7.61,0.119070798,4.755833626,2.462363243
7.62,0.106296241,4.456640244,4.263754368
7.63,-0.083228409,3.25712204,5.108235836
7.64,0.120904088,2.114455223,6.079856396
7.65,0.786833465,0.893870354,6.989596844
7.66,1.186505556,0.035913467,6.434610367
7.67,0.689404488,-0.102065086,4.886340141
7.68,-0.658047199,0.356122971,2.330660343
7.69,-1.685889006,1.245716095,0.150152803
7.7,-2.342508793,2.164554596,-0.635308921
7.71,-3.747472763,3.084106445,-0.203429252
7.72,-4.186963081,3.561655998,0.540533841
7.73,-3.299296856,3.158698082,1.07021749
7.74,-2.042862892,2.322146416,0.778735697
7.75,-0.895580053,1.123632431,0.253334642
7.76,-0.3740834,0.04434967,-0.20628494
7.77,-0.115456283,-0.805480957,-0.328739792
7.78,0.553883016,-1.902446747,-0.20753333
7.79,1.396787047,-2.928473473,0.194885016
7.8,2.070475578,-3.763524532,0.459039509
7.81,2.51698041,-4.450287819,0.675612152
7.82,2.564729214,-4.801655293,0.820332706
7.83,1.841433644,-5.040124893,1.001224041
7.84,0.729602695,-5.081929207,0.901302815
7.85,0.102743089,-5.161973953,0.181944639
7.86,-0.061090678,-5.445687771,-0.492234826
7.87,-0.351779819,-5.482989311,-0.78065455
7.88,-0.547683358,-5.393345833,-0.951520681
7.89,-0.690145731,-5.30843544,-1.094847918
7.9,-0.809184551,-5.137216091,-1.122879624
7.91,-0.895248234,-4.657006264,-1.087312222
7.92,-0.785729647,-4.116855621,-1.290588856
7.93,-0.778527021,-3.538387299,-1.695580602
7.94,-0.954149365,-2.902344704,-1.902593136
7.95,-1.050875902,-2.098494053,-1.841794968
7.96,-0.967722178,-1.208036423,-1.481273413
7.97,-0.67160517,-0.554308891,-1.067008734
7.98,-0.36890316,0.214543343,-0.708211839
7.99,-0.278531045,0.940371513,-0.134516969
8,0.052825272,1.491404533,0.6308586
8.01,-0.103753179,1.99209404,0.467473805
8.02,-0.285563529,2.473711967,-0.161501229
8.03,-0.330410838,2.86906147,-0.194090143
8.04,-0.774116218,3.388669968,0.106991693
8.05,-1.540419459,3.692573547,-0.588662982
8.06,-2.866723299,3.845560074,-1.874422073
8.07,-4.139744282,3.826081276,-2.592301369
8.08,-4.609984875,3.564975739,-2.632152081
8.09,-3.993469,3.821422577,-1.811376214
8.1,-1.972249269,4.274594307,-0.101393953
8.11,0.461913347,4.314082146,0.267539531
8.12,1.798705459,4.088622093,0.687279761
8.13,2.13785696,3.844348907,1.680897117
8.14,2.469164133,3.566719055,2.447028637
8.15,2.464673758,3.569202423,2.502741575
8.16,3.244817972,2.412321091,3.335484505
8.17,2.967158079,1.632665634,4.1048069
8.18,2.753481865,1.182118416,3.636712313
8.19,2.498865366,0.666530609,2.430596828
8.2,2.190747738,0.459645271,0.603034854
8.21,1.704713821,0.743490219,-0.752469778
8.22,1.462177038,1.031978607,-0.903371036
8.23,1.717626095,1.33632946,-0.076048076
8.24,1.742551446,1.554152489,0.702904701
8.25,1.179674149,1.80785656,1.436715484
8.26,0.560685456,2.030686378,1.566186547
8.27,-0.174261034,1.882804871,1.545541525
8.28,-1.491508245,1.656384468,1.287145376
8.29,-2.57094717,0.937218666,0.891302824
8.3,-2.410218716,-0.547706604,0.395507336
8.31,-2.209364891,-1.962862968,-0.151902705
8.32,-2.087413788,-3.270115852,-0.718009591
8.33,-1.464868307,-4.309166431,-0.81537503
8.34,-1.044214725,-5.254805565,-0.353920043
8.35,-0.386984259,-5.944135666,0.036422737
8.36,-0.114416361,-6.178449631,0.152079761
8.37,-0.302124471,-6.240241051,0.760483265
8.38,0.603916049,-6.057675362,0.045202911
8.39,0.868766904,-5.793723106,-0.150455654
8.4,1.173306704,-5.290338039,-0.678157449
8.41,1.042913675,-4.731808186,-1.034520149
8.42,0.788899005,-4.04382658,-0.860313535
8.43,0.948961258,-3.367665291,-0.16039215
8.44,1.154883623,-3.021921635,-0.532070577
8.45,1.318680882,-2.55197525,-1.447926402
8.46,1.098587871,-2.036839962,-1.200981975
8.47,0.737488389,-1.476193428,-0.379774481
8.48,0.740441144,-1.475663185,-0.39575997
8.49,-0.210566104,-0.423967362,-0.368950903
8.5,0.056142658,0.139205933,-0.628751755
8.51,-0.175023794,0.637465477,-1.112136841
8.52,-0.026750803,1.13079071,-1.368181825
8.53,-0.116187811,1.71498394,-1.349121332
8.54,0.005235046,2.430836678,-1.338478088
8.55,0.054384917,3.103485107,-1.560160875
8.56,0.092263505,3.517497063,-1.678730726
8.57,-0.179068983,3.620287895,-1.693763971
8.58,-0.725014746,3.613251686,-1.548122764
8.59,-1.056409478,3.740525246,-1.144396782
8.6,-0.953236938,4.29166317,-0.100468129
8.61,-0.388772905,4.909876823,0.94739908
8.62,0.210185662,5.135365486,0.90010637
8.63,0.317386031,5.150018692,1.207151413
8.64,-0.371040672,4.532858849,2.538346052
8.65,-1.02208662,3.726892471,4.29277277
8.66,-1.540582418,2.786951065,5.640497208
8.67,-0.871515393,1.447015762,5.862693787
8.68,0.51567775,0.26725769,6.058541775
8.69,1.167959213,-0.357516289,6.243513107
8.7,0.154131919,0.167351723,5.313872814
8.71,-1.173074365,1.025450706,2.910916328
8.72,-1.721241474,2.000881195,1.137490153
8.73,-2.965811968,3.055377007,0.026497781
8.74,-4.026770592,3.916169167,-0.288879395
8.75,-4.177789688,4.288905144,-0.407490671
8.76,-2.965982914,3.845254898,-0.13803485
8.77,-1.489289165,2.750277519,0.452340901
8.78,-0.696742654,1.858662605,1.263098717
8.79,-0.222748965,0.909418106,1.601357698
8.8,0.489297509,-0.200618744,1.596308231
8.81,1.023011446,-1.469414711,1.575978756
8.82,1.407381535,-2.496605873,1.541874647
8.83,1.741490602,-3.665186405,1.290290952
8.84,1.46146822,-4.606455803,1.175023556
8.85,1.01571703,-5.162225246,0.881897807
8.86,1.122273207,-5.725604534,0.370371878
8.87,1.165220618,-6.301553249,-0.58224386
8.88,0.677158833,-6.471207619,-1.236363053
8.89,0.644536078,-6.473674774,-1.209543943
8.9,0.339197338,-6.356614113,-1.366410971
8.91,-0.134774894,-5.928264618,-0.597008824
8.92,-0.041897446,-5.550252914,-0.656968176
8.93,0.050817534,-5.114676476,-0.931965828
8.94,-0.227054894,-4.647672176,-0.946390212
8.95,-0.458863288,-4.275998116,-0.953646302
8.96,-0.959456205,-3.817713737,-0.866581917
8.97,-1.389612079,-3.215475082,-0.982966483
8.98,-1.574994683,-2.481340408,-1.575212598
8.99,-1.52392149,-1.802325249,-2.102405548
9,-1.198919415,-1.005947113,-2.110105276
9.01,-1.195467591,-0.185388565,-1.060655475
9.02,-1.466320276,0.295508385,-0.095743373
9.03,-1.397888541,0.826927185,0.103570931
9.04,-1.04368031,1.372867584,-0.511602759
9.05,-1.364651561,1.93099308,-1.285084486
9.06,-1.307596326,2.439113617,-1.841742992
9.07,-0.924107134,2.746290207,-1.514331222
9.08,-0.702372134,3.180288315,-1.025038481
9.09,-1.012606502,3.580497742,-1.112119079
9.1,-1.873834372,3.81060791,-1.666341543
9.11,-3.213635921,3.760621071,-1.792358041
9.12,-3.802242994,3.643796921,-1.590838909
9.13,-3.100794315,4.164266586,-1.101642251
9.14,-1.213822007,4.603824615,-1.078969002
9.15,0.777264595,4.627189636,-0.728589773
9.16,2.14819932,4.327147484,0.999336243
9.17,2.593889475,4.110456467,2.572529554
9.18,2.617023468,3.64939785,3.442427397
9.19,2.874764204,2.920166969,3.924729824
9.2,3.033550262,1.922324181,3.818880796
9.21,3.047603369,1.15834713,3.203615665
9.22,2.647975206,0.453828812,2.340572119
9.23,1.627321839,0.446048737,0.705982804
9.24,0.657400549,0.864584923,-0.765672445
9.25,0.399799228,1.328673363,-0.96713841
9.26,0.370983541,1.933813095,-0.429658353
9.27,0.56934309,2.52162838,0.174678221
9.28,0.934273958,3.047207832,0.342212945
9.29,1.261421561,3.156270027,0.983979464
9.3,1.259884238,3.155255318,0.951827288
9.31,1.140082359,2.112755775,1.635124326
9.32,1.119972825,1.039168358,1.552060604
9.33,0.750158906,-0.235445976,1.343535542
9.34,0.750794292,-0.236039162,1.303254366
9.35,-0.391168028,-2.431796074,-0.561013758
9.36,-0.377036929,-2.431694984,-0.588184118
9.37,-0.491557628,-4.382708549,-0.366139412
9.38,-0.624301076,-4.999748707,-0.059068717
9.39,-0.953433514,-5.501579285,0.061284058
9.4,-0.797746837,-5.893001556,0.390705466
9.41,-0.761807501,-5.891626358,0.376835346
9.42,0.232553124,-6.275658607,-0.014384571
9.43,0.366522133,-6.056154728,-0.105321273
9.44,0.534920752,-5.640151501,-0.269955516
9.45,0.600913644,-5.267152309,-0.261099428
9.46,0.506998122,-4.822289944,-0.182281986
9.47,0.633295238,-4.355837822,-0.48562187
9.48,0.657921433,-4.354076385,-0.506219864
9.49,0.231928617,-3.325231075,-1.062271953
9.5,-0.128162444,-2.722697258,-1.219710588
9.51,-0.24620688,-2.058008194,-1.362577319
9.52,-0.232616186,-2.056751251,-1.378773212
9.53,-0.069620013,-0.722054482,-1.439291
9.54,-0.06088084,-0.721411705,-1.440322042
9.55,0.176226735,0.416349411,-0.918781757
9.56,0.009872079,0.857234955,-1.027233243
9.57,-0.164951921,1.386575699,-1.271408677
9.58,-0.265896797,1.956355095,-1.335522413
9.59,-0.277214587,2.83712101,-1.371446133
9.6,-0.284055233,2.836519241,-1.366052151
9.61,-0.43019408,4.195928574,-1.86504519
9.62,-0.459231973,4.470767975,-2.169434786
9.63,-0.825440466,4.547166824,-1.976810098
9.64,-1.018078446,4.849112511,-0.673587203
9.65,-0.529461086,5.608972549,0.313470602
9.66,0.050352156,5.971474648,0.759604812
9.67,0.799266875,5.601429939,1.674246311
9.68,0.800279141,5.028156281,2.919055223
9.69,0.82301271,5.030148506,2.909519434
9.7,0.559357464,4.043707848,3.804036856
9.71,0.391814739,2.726740837,4.341743469
9.72,0.534069538,0.413428307,5.558429718
9.73,0.552842975,-0.301078796,5.395704746
9.74,0.222097039,-0.532600403,4.981616974
9.75,0.053451777,-0.264153481,4.538322926
9.76,-0.870494604,0.4515028,2.930971384
9.77,-1.707105637,1.518927574,1.195068955
9.78,-2.627954721,2.461913109,0.353798538
9.79,-4.373842239,4.21696949,0.728486061
9.8,-4.373620987,4.217752457,0.705822468
9.81,-3.178343058,4.158594131,1.881656528
9.82,-1.695780516,3.177137375,2.03907299
9.83,-0.851305723,2.092380524,1.957600355
9.84,-0.579927623,1.256816864,1.623967528
9.85,-0.298641622,0.316059113,0.999485731
9.86,-0.133363724,-0.610485077,0.461813599
9.87,-0.008647084,-1.678632736,0.097342044
9.88,0.29382211,-2.711357117,-0.001491398
9.89,0.290153623,-2.712625504,0.023178935
9.9,0.862005353,-4.751846313,-0.134426162
9.91,1.108639956,-5.323524952,-0.226388693
9.92,1.187825799,-5.852282524,-0.353677392
9.93,1.088020205,-6.278132915,-0.269782484
9.94,1.073153973,-6.28011179,-0.232355565
9.95,1.196623683,-6.904648781,-0.322274089
9.96,1.176567912,-6.906685829,-0.284642577
9.97,0.817855716,-6.800697327,-0.82917589
9.98,0.72433275,-6.43102169,-1.036894441
9.99,0.706810832,-6.432318687,-1.000023961
10,0.503194571,-5.430372715,-0.938081265
10.01,0.336972863,-5.014978409,-0.902478933
10.02,-0.053037286,-4.317026138,-0.796042442
10.03,-0.448904395,-3.564000607,-1.003134489
10.04,-0.612063348,-2.964222908,-1.654208899
10.05,-0.505175054,-2.000300884,-2.381423473
10.06,-0.53364414,-1.012019157,-2.236682653
10.07,-0.791665137,-0.243677139,-1.885588884
10.08,-0.852268577,0.67808342,-1.220696926
10.09,-0.859974086,1.482589722,-0.588989794
10.1,-1.100587845,2.358831406,-0.738375306
10.11,-1.630026698,3.020007133,-1.21980989
10.12,-2.028006554,3.540260315,-1.396998048
10.13,-1.646284461,3.773254395,-0.95362711
10.14,-1.458018661,3.874150276,-0.399614841
10.15,-1.767000556,3.878799438,-0.064863145
10.16,-2.638247967,3.631847382,-1.840054274
10.17,-3.534556866,3.328073502,-3.222832441
10.18,-4.234073639,3.45595932,-2.44219327
10.19,-2.898764372,4.254577637,-0.653673947
10.2,-0.853556216,4.739869118,-0.607518017
10.21,0.778980255,4.928840637,0.13190496
10.22,2.112608433,4.91162014,1.886615515
10.23,2.582930088,4.671375275,3.772324562
10.24,2.850709438,4.366823196,4.262456894
10.25,2.795196295,3.691173553,3.850184202
10.26,2.462375879,2.835199356,3.220804214
10.27,2.483800411,1.53248024,2.701232433
10.28,2.534950733,0.422332764,1.567862511
10.29,2.510078907,0.419891357,1.54534328
10.3,1.215860605,0.178050995,-0.2481758
10.31,0.863565743,0.633087158,-0.407962382
10.32,1.127043366,1.45451355,0.006763637
10.33,1.561435699,2.024270058,0.441516787
10.34,1.78206718,2.344600677,1.068853855
10.35,1.95527041,2.423078537,1.486659408
10.36,1.931979537,2.420305252,1.429136634
10.37,1.280558944,2.044307709,1.524635792
10.38,0.545572817,1.232965469,1.283251524
10.39,0.525654316,1.231394768,1.22207427
10.4,-0.345321506,-0.991399765,0.584034383
10.41,-0.798747838,-2.287073612,-0.318849087
10.42,-1.199093342,-3.333314419,-0.824492157
10.43,-1.177039623,-3.332950115,-0.841808021
10.44,-1.110418677,-4.871888161,-0.599824548
10.45,-1.079526424,-4.87112999,-0.609745026
10.46,0.000792116,-5.918948174,0.389790177
10.47,0.413728982,-6.140604496,0.644568026
10.48,0.519236803,-6.057999611,0.779514611
10.49,0.615367055,-5.786046505,0.803044438
10.5,0.735238075,-5.664758205,0.77355963
10.51,1.184836984,-5.627243042,0.394002616
10.52,1.341974974,-5.477211952,-0.331252366
10.53,1.372132301,-5.475541115,-0.344660699
10.54,0.599020183,-4.76252079,-0.841158927
10.55,0.628522754,-4.760515213,-0.863181353
10.56,-0.117868722,-3.50150013,-1.455250978
10.57,0.061276853,-2.824489117,-1.486920476
10.58,0.452983201,-1.867661953,-0.782083511
10.59,0.464590371,-1.866439342,-0.801185072
10.6,0.347402304,0.038209915,-0.758969784
10.61,0.155435324,1.004350662,-0.184651941
10.62,0.16697669,1.005763054,-0.205667257
10.63,-0.090187728,2.742589951,-1.364637852
10.64,-0.08580935,2.743055344,-1.36969924
10.65,-0.096651077,4.593875885,-1.639348626
10.66,-0.231386483,5.278533936,-1.318016171
10.67,-0.218830526,5.541757584,-1.047580838
10.68,-0.237817168,5.330945969,-0.808676481
10.69,-0.246576846,5.331122398,-0.829772472
10.7,-0.410914302,4.850380898,-1.04365623
10.71,-0.542368472,5.466423988,-0.448338598
10.72,0.360378563,5.867003441,0.00690496
10.73,0.375262559,5.867712975,0.015509695
10.74,-0.718140662,5.134186745,1.466392517
10.75,-0.704602182,4.113757133,2.290206432
10.76,-0.678246081,4.115499496,2.299294472
10.77,-0.584662676,1.346575737,4.000882626
10.78,0.572086573,-0.048735619,4.546122074
10.79,1.623413682,-1.10977459,4.74333334
10.8,1.741802454,-1.462817192,4.959930897
10.81,0.45891887,-0.51546669,4.458006859
10.82,-0.950381935,0.508897781,3.109394789
10.83,-2.025438309,1.564476013,2.018957615
10.84,-3.137405157,2.63445282,1.21219039
10.85,-3.916272402,3.328705788,1.027555466
10.86,-4.153274059,3.405664444,1.108571291
10.87,-3.783864021,3.099889755,1.068206191
10.88,-2.556848764,2.334528923,0.720633209
10.89,-1.172661543,1.399066925,0.47245425
10.9,-0.415489554,0.587985992,0.283640564
10.91,0.239518404,-0.259109497,0.278845787
10.92,0.23635149,-0.258673668,0.267017961
10.93,0.611115098,-1.14188385,0.840527356
10.94,1.377302408,-2.837067604,0.677469909
10.95,1.532369256,-3.795312405,0.378579438
10.96,1.681779146,-4.538371086,-0.224243611
10.97,1.127416849,-5.17173481,-0.236290067
10.98,0.731089652,-5.628078461,-0.26571846
10.99,0.625816226,-6.010718346,-0.776991487
11,0.59254086,-6.118616104,-1.140473843
11.01,0.529283285,-6.281917095,-0.690923691
11.02,0.49948287,-6.284710407,-0.667106748
11.03,-0.283581018,-6.399996758,-1.098904848
11.04,-0.53751874,-6.203944206,-1.35528028
11.05,-0.493660063,-6.038765907,-1.183549881
11.06,-0.304839164,-5.722517967,-1.267992139
11.07,-0.147872359,-5.214491844,-1.600790501
11.08,-0.241180331,-4.488340855,-1.635326266
11.09,-0.456400871,-3.58701086,-1.56967175
11.1,-0.480429709,-3.588170528,-1.555145741
11.11,-0.672203243,-2.65571928,-1.498085618
11.12,-0.750440896,-0.471309662,-1.911939859
11.13,-0.79826349,0.470708847,-1.742563248
11.14,-0.854306102,1.690796852,-1.17323041
11.15,-0.815349698,2.841803551,-0.588569701
11.16,-0.807985604,2.841362953,-0.553512454
11.17,-1.335509777,3.92329216,-0.178854421
11.18,-0.688920796,4.382640839,0.223455414
11.19,-0.323403239,4.099622726,0.009757131
11.2,-0.863379002,3.94824028,-0.613908887
11.21,-1.943507433,3.729934692,-1.616854548
11.22,-3.284729242,3.518966675,-2.611901045
11.23,-3.293646097,3.51889801,-2.617899895
11.24,-4.199712276,3.301087379,-3.139331102
11.25,-4.184027195,3.301260948,-3.13040185
11.26,-1.267136455,4.874570847,-0.049268108
11.27,1.10259676,5.049584389,0.758964479
11.28,2.207247496,4.934895515,1.725572586
11.29,2.835771322,4.659811974,3.590059519
11.3,2.991172314,4.392001152,4.784179688
11.31,2.664539099,3.379675865,5.566226482
11.32,2.655777454,3.379975319,5.59553194
11.33,3.197505713,0.870686531,4.102086544
11.34,3.314918041,-0.199855804,2.967090607
11.35,3.134908676,-1.148371696,1.760509372
11.36,3.104827166,-1.148768425,1.75818181
11.37,1.06914258,0.21804142,-1.233260393
11.38,0.52878654,0.842677116,-1.977531195
11.39,1.253311038,1.184666634,-0.846803904
11.4,1.358529329,1.729980469,0.65222013
11.41,0.771258771,2.359077454,1.613221407
11.42,0.086183369,2.919042587,1.707793593
11.43,-0.79648304,3.120248795,1.480589986
11.44,-1.766334176,2.558040619,1.741342664
11.45,-1.342316151,1.277867317,2.384665966
11.46,-1.333760977,1.278810501,2.336204529
11.47,-1.100888371,-2.24000597,0.203817308
11.48,-1.07873559,-2.239550114,0.194258034
11.49,-0.689775705,-4.755589008,-1.061286688
11.5,-0.654450417,-4.755119801,-1.056698799
11.51,0.282522142,-6.315432549,-0.307151645
11.52,0.922528148,-6.795722961,-0.001784399
11.53,0.956364632,-6.794527054,-0.012653574
11.54,0.367290974,-6.558340549,0.97395885
11.55,0.470304191,-6.163815975,0.817620874
11.56,0.758639693,-5.675917625,0.251006067
11.57,0.572945118,-5.281477928,-0.496274293
11.58,0.416843474,-4.884604931,-1.275748849
11.59,0.364739299,-4.583410263,-1.54191041
11.6,0.306288362,-4.155233383,-1.740976572
11.61,0.505997539,-3.497292995,-1.913813233
11.62,0.435601264,-2.827758312,-1.67212069
11.63,0.44396171,-2.82678175,-1.68398118
11.64,0.202991426,-1.897305489,-1.44187057
11.65,0.083936661,-0.113244057,-0.827582836
11.66,0.342467725,0.533640862,-0.491776258
11.67,0.426853925,1.360095978,-0.450267822
11.68,0.240404099,2.071531296,-0.579430401
11.69,-0.167231739,2.790118217,-0.92843616
11.7,-0.164132595,2.790273666,-0.927943468
11.71,-0.300257087,3.496462822,-1.403256178
11.72,-0.525399327,4.37974453,-2.075643778
11.73,-0.521067143,4.379720688,-2.069838285
11.74,-0.939252138,4.413603783,-1.415885687
11.75,-1.413033485,4.182271957,-0.982442021
11.76,-1.23902297,4.090179443,-0.304988116
11.77,-0.472289741,4.419584274,0.420770228
11.78,-0.057163715,4.691403389,0.575393915
11.79,-0.026074171,4.692681313,0.59951067
11.8,-0.006815791,4.603279114,2.169415474
11.81,0.187926054,4.037901878,3.490686655
11.82,0.384511292,3.218567848,4.552638054
11.83,0.720235586,1.876830101,5.160692215
11.84,0.660771668,0.692359924,5.606993675
11.85,0.663506687,0.692335129,5.617886066
11.86,0.649971366,-0.239852905,4.55675602
11.87,0.127669632,0.040866852,3.284245968
11.88,-0.558390498,0.620809555,2.538993835
11.89,-2.079072714,1.64164257,2.198751211
11.9,-2.095931768,1.640823364,2.17979002
11.91,-2.925138712,2.681948662,0.86343503
11.92,-3.621732473,3.312097549,0.226646066
11.93,-3.768889666,3.839849472,0.39711982
11.94,-2.946210384,3.254445076,0.201705933
11.95,-1.904077053,2.259554863,0.503450573
11.96,-0.798891664,0.91973877,0.935643435
11.97,0.153537273,-0.3989048,1.004960895
11.98,0.543798089,-1.528963089,1.036167026
11.99,0.86021477,-2.568340778,0.746992648
12,1.255292535,-3.59372282,0.295903951
12.01,1.137780905,-4.595600605,0.233763218
12.02,0.781044006,-5.149918079,0.889618516
12.03,0.900411546,-5.696968555,0.70496881
12.04,1.192445397,-6.204024792,-0.030610383
12.05,1.202270508,-6.551118851,-0.384729624
12.06,1.180924535,-6.83850193,-0.353326231
12.07,1.150627017,-6.840983391,-0.338464767
12.08,0.960148096,-6.726151943,-0.469280124
12.09,0.589891851,-6.369301319,-0.589195073
12.1,0.313105464,-5.969082832,-0.95971632
12.11,0.28754282,-5.970985413,-0.935412467
12.12,-0.26277858,-4.852205753,-1.155928969
12.13,-0.365467161,-4.128323555,-1.058828592
12.14,-0.38047722,-3.423611641,-1.407141685
12.15,-0.472019643,-2.426743031,-1.585561275
12.16,-0.495989412,-2.428021908,-1.557806969
12.17,-0.545740604,-0.556537628,-1.437070251
12.18,-0.675973713,0.249886513,-1.149413109
12.19,-0.919981182,1.09025383,-0.833287716
12.2,-1.031418204,1.624680519,-0.994786322
12.21,-1.006215334,1.958299637,-1.159236908
12.22,-1.001324058,1.959245682,-1.116387963
12.23,-0.824945688,2.453255653,-0.711346746
12.24,-0.787937164,2.829590797,-0.538723469
12.25,-1.124853015,3.361044884,-0.653746784
12.26,-1.878820181,3.719869614,-1.411382437
12.27,-3.107894182,3.683629036,-2.505234241
12.28,-4.084859848,3.355595589,-3.100483418
12.29,-4.63756752,2.956344604,-3.044244051
12.3,-3.63504076,3.252106667,-1.776235342
12.31,-1.897753596,3.829263687,-0.436490148
12.32,0.785445094,4.074674606,0.584483743
12.33,0.797285795,4.078558922,0.656737685
12.34,3.167646408,3.864361763,2.432431698
12.35,3.620624781,3.851261139,3.732982635
12.36,3.607464552,3.572049141,4.352984428
12.37,3.159559965,3.298849106,3.369557381
12.38,3.0443995,2.725129128,2.091005087
12.39,2.551780701,2.293896675,1.127312779
12.4,1.944780827,2.014834404,0.626053631
12.41,1.914256096,2.012094498,0.602935195
12.42,1.301470041,1.359982491,0.235389888
12.43,1.47060585,1.323040009,0.580192924
12.44,1.627289057,1.477609634,0.767784715
12.45,1.600330472,1.749686241,1.027449727
12.46,0.968007088,2.089113235,1.016509652
12.47,0.200229228,2.201543808,0.845694482
12.48,-0.364879251,1.730079651,1.003089547
12.49,-0.60732013,0.590713501,1.324302673
12.5,-1.059494138,-0.294689179,0.945549846
12.51,-1.389515996,-1.555483818,0.256190121
12.52,-1.39789319,-2.686397552,-0.049782664
12.53,-1.010860205,-3.852637291,-0.243050635
12.54,-0.593144834,-4.623435497,-0.279125571
12.55,-0.563889146,-5.307692528,-0.031098545
12.56,-0.403078646,-5.790445328,0.314567626
12.57,0.040347338,-6.095655441,0.394559324
12.58,0.300590515,-6.292802811,0.637805879
12.59,0.470507622,-6.31242609,0.996304512
12.6,0.523485184,-6.21922636,0.950777471
12.61,0.749646187,-6.032413483,0.382452071
12.62,0.926053405,-5.632302761,-0.3030397
12.63,0.78726095,-5.172154427,-0.870729208
12.64,0.591892362,-4.714494705,-1.339650035
12.65,0.630283713,-4.71199894,-1.363884926
12.66,0.573476434,-3.441033363,-1.64828825
12.67,0.803239405,-2.742920399,-1.334149837
12.68,0.811456621,-1.858803749,-1.090970039
12.69,0.813204348,-1.858613014,-1.108582854
12.7,0.424058586,0.069101334,-0.439399421
12.71,0.428045005,0.069487572,-0.451174617
12.72,-0.099399149,1.896875381,-1.105339289
12.73,-0.090396047,1.897584915,-1.104192495
12.74,-0.857797921,3.19113636,-2.006355524
12.75,-0.503299594,3.723052025,-1.335212827
12.76,-0.131244183,4.263687134,-0.613031268
12.77,-0.06553632,4.502282143,-0.77415067
12.78,-0.078490496,4.501299858,-0.783123672
12.79,-0.477992833,4.655931473,-1.959745765
12.8,-0.489037693,4.655177116,-1.970309258
12.81,-1.496037602,4.410568237,-1.48429513
12.82,-0.763811827,4.89185524,0.314675778
12.83,-0.473068416,5.114620209,0.979773939
12.84,-0.466486156,5.115059853,0.986241102
12.85,-0.124048352,4.766472816,2.565877676
12.86,-0.102121234,4.76803112,2.585516453
12.87,-0.082139313,3.043992043,3.593047857
12.88,0.094782472,1.782149315,3.985128164
12.89,0.465077847,0.527029991,4.892481327
12.9,1.125912309,-0.398636818,5.187336445
12.91,1.257930994,-0.808232307,5.220880985
12.92,0.66297555,-0.737194061,4.740303516
12.93,-0.711922705,0.054357529,3.667515993
12.94,-1.980210781,1.109440804,1.497634411
12.95,-2.928064585,2.315343857,0.057099752
12.96,-3.588569641,3.341713905,-0.06971921
12.97,-3.853055,3.88217926,0.549049974
12.98,-3.859136581,3.881789207,0.526524246
12.99,-2.881419182,3.211208344,1.260314584
13,-2.113709927,2.313394547,0.72857374
13.01,-1.302214146,1.135607719,-0.065558508
13.02,-1.298422337,1.135866165,-0.058983225
13.03,-0.160277009,-1.086041451,-0.333012879
13.04,0.261584282,-2.230946541,0.029711835
13.05,0.842469871,-3.290297508,0.251094461
13.06,1.537472486,-4.395726204,0.378833979
13.07,1.621907234,-5.228692532,0.723936498
13.08,1.739254236,-5.927669525,1.041195869
13.09,1.975863218,-6.554887772,0.760998786
13.1,1.878450513,-6.712986946,0.481828153
13.11,1.312204838,-6.612466812,0.109895095
13.12,1.272470236,-6.614790916,0.104267903
13.13,0.945453763,-6.54745388,-0.164738506
13.14,0.957157672,-6.420122147,-0.239829257
13.15,0.919058085,-6.172818184,-0.143848062
13.16,0.745551646,-5.712263107,-0.281529635
13.17,0.31722492,-5.299420357,-0.773744464
13.18,-0.001042932,-4.663719177,-1.240461826
13.19,-0.122840017,-3.939310551,-0.541344762
13.2,-0.439308614,-3.30101347,-0.82637924
13.21,-0.671465635,-2.25804472,-1.917808056
13.22,-0.697432399,-2.258854389,-1.897993326
13.23,-1.203426123,-0.138050079,-1.874284863
13.24,-1.212800741,-0.138253212,-1.839129329
13.25,-2.085548878,1.727128029,-2.137829304
13.26,-2.007402658,2.453309059,-1.792758822
13.27,-1.956787229,3.349896431,-1.268932104
13.28,-2.031365395,4.091220856,-0.536365032
13.29,-2.199260712,4.590834618,0.33830899
13.3,-1.552896976,4.525277138,0.762562096
13.31,-0.994920015,4.097818375,0.232335031
13.32,-1.000340819,4.098716736,0.26213631
13.33,-2.560346127,3.208543777,-2.221379519
13.34,-3.535990238,2.919033051,-3.554718971
13.35,-4.003482819,2.979082108,-3.687428236
13.36,-3.661136627,3.515583992,-2.526109695
13.37,-1.465150833,3.978191376,-0.626492858
13.38,0.648443103,4.450901985,0.78806597
13.39,1.607802391,4.572940826,1.190312266
13.4,1.619743347,4.57582283,1.241731405
13.41,3.343740463,4.902044296,2.769367218
13.42,4.142058372,4.248908043,3.609584332
13.43,3.812201262,3.611720085,4.432280064
13.44,3.072530746,2.690555573,4.99904108
13.45,2.607233524,1.504594803,4.354118347
13.46,2.576822519,1.503370285,4.349317551
13.47,2.042216301,-0.62400341,1.096407771
13.48,2.226210833,-1.283660889,-0.651717126
13.49,1.778473616,-0.818071365,-1.509605408
13.5,0.846959055,-0.065732002,-1.132441044
13.51,0.723322213,0.592944145,0.277932763
13.52,1.154181004,0.990242004,1.137115121
13.53,0.979878426,1.46176815,1.510577202
13.54,0.22611469,1.828227997,1.089504719
13.55,-0.587433338,2.001172066,0.798510492
13.56,-1.069338441,1.523036957,0.659357429
13.57,-0.891151786,0.13764286,0.888811648
13.58,-0.910503328,-1.178037643,0.92936188
13.59,-0.966087341,-2.555586815,0.192329556
13.6,-0.954847872,-2.555902481,0.173718959
13.61,-1.089394569,-4.526315212,-0.473556817
13.62,-1.196256876,-5.186710835,-0.448335111
13.63,-0.612019777,-5.545217991,0.14337869
13.64,-0.063404262,-6.016191006,1.039274216
13.65,-0.029540569,-6.015387058,1.035807371
13.66,0.657906056,-6.217938423,0.506456375
13.67,0.985547781,-6.085167885,0.575778723
13.68,1.156242609,-5.868588448,0.298625678
13.69,1.12567997,-5.407635212,-0.19603996
13.7,0.871186614,-4.8747015,-0.625860274
13.71,0.621786773,-4.243539333,-0.800896466
13.72,0.545126379,-3.452068806,-0.904576719
13.73,0.500272989,-2.871698856,-0.663865626
13.74,0.519549966,-2.870965481,-0.68101728
13.75,0.449049681,-1.115447044,-0.511202812
13.76,0.461868793,-1.114857674,-0.520809412
13.77,-0.349039078,0.583509445,-1.139750957
13.78,-0.493282974,1.271656036,-1.162885308
13.79,-0.325151026,1.693854332,-1.274911284
13.8,0.034508765,2.245074272,-1.517464399
13.81,0.369070917,2.843837738,-1.469703555
13.82,0.317008734,3.482885361,-1.532216072
13.83,0.166751295,4.028189659,-1.760832548
13.84,0.058036089,4.664208412,-1.916158557
13.85,-0.097801328,4.916669846,-1.923926115
13.86,-0.132211089,4.687701225,-1.639306664
13.87,-0.435574472,4.161841393,-1.2079041
13.88,-0.960155368,3.497415543,-1.050781965
13.89,-1.416435361,3.389004707,-0.494212598
13.9,-1.415424109,3.389028549,-0.499150038
13.91,-0.86381042,3.883031845,0.041825686
13.92,-0.72780329,4.262867928,0.801460385
13.93,-0.798002541,3.817357063,1.686647058
13.94,-0.763950944,3.820064545,1.727928877
13.95,-0.762821198,2.163896561,3.945664883
13.96,-0.736260533,2.166601181,3.983862877
13.97,1.09320116,-0.64246273,5.183156013
13.98,2.143584728,-1.482405663,5.478211403
13.99,2.134025097,-1.483177185,5.475041389
14,1.014708281,-0.902636528,4.114555359
14.01,-0.671323001,0.422884941,2.075151443
14.02,-2.426147461,1.94731617,0.836131215
14.03,-3.582022429,3.416783333,-0.215612456
14.04,-4.122932434,4.404925346,-0.253379434
14.05,-4.12599659,4.4041605,-0.280378521
14.06,-3.451467514,4.233316422,0.71591723
14.07,-1.825969577,3.15528965,0.515269816
14.08,-1.83007586,3.154951096,0.51056087
14.09,0.085746646,0.439653397,1.1395365
14.1,0.323571444,-0.604263306,0.840243578
14.11,0.569300115,-1.700903893,0.819289029
14.12,0.557954252,-1.701408386,0.829781175
14.13,0.946137428,-3.213031769,0.356692493
14.14,0.871445239,-3.922701836,0.62062192
14.15,0.891485095,-4.35964632,0.877206028
14.16,0.829193831,-4.720068455,0.51397872
14.17,0.884481072,-4.862509251,-0.094365597
14.18,0.731647968,-4.959283829,-0.111036673
14.19,0.582848191,-5.036806583,-0.073079556
14.2,0.672723055,-5.183648586,0.036791116
14.21,0.655327559,-5.215510368,0.20134142
14.22,0.620288432,-5.216166496,0.218678325
14.23,0.990722656,-5.161593437,-0.270822793
14.24,0.402539343,-4.733242035,-0.554569006
14.25,0.143516123,-4.340622902,-0.415872902
14.26,-0.040684849,-3.947998524,-0.532362163
14.27,-0.397238851,-3.440327168,-0.88398838
14.28,-0.345165372,-2.894113064,-1.043651819
14.29,-0.481462896,-2.359517574,-0.954880357
14.3,-0.894512773,-1.625784874,-0.674464464
14.31,-1.253919125,-0.826948166,-0.735470355
14.32,-1.473509789,-0.199809074,-0.98851192
14.33,-1.443992019,0.329957962,-1.136905909
14.34,-1.223816395,0.798171043,-1.356732488
14.35,-1.165997863,1.171105385,-1.263676643
14.36,-1.012454629,1.383692741,-0.827657282
14.37,-0.725387931,1.586340904,-0.787163496
14.38,-0.610657871,1.860478401,-0.879478753
14.39,-0.844785035,2.352046967,-1.013707638
14.4,-1.737599254,2.936361313,-0.992655575
14.41,-2.653105736,3.006894112,-1.262391329
14.42,-3.090582848,2.626599312,-1.717252016
14.43,-3.465173006,2.440168381,-1.721662998
14.44,-3.213083982,2.932090759,-1.371794462
14.45,-2.11198473,3.68170166,-1.464152932
14.46,-0.034697533,4.278081894,-1.326321363
14.47,1.500387549,4.685079575,-0.495054007
14.48,2.438288927,5.032236099,0.865099907
14.49,3.383389711,5.378960609,2.378358126
14.5,4.059740543,5.239321709,3.423592091
14.51,3.4233706,4.482971191,4.550058365
14.52,2.6292274,3.457480431,4.866135597
14.53,1.884521604,1.970051765,3.983399868
14.54,2.025145531,-0.267841339,1.6779145
14.55,1.882573009,-1.759191513,0.092206836
14.56,1.613212228,-2.33174181,-0.421960115
14.57,1.195996761,-1.43984127,-0.573100925
14.58,1.304981828,-0.424276352,0.0720191
14.59,1.816691756,0.758462906,1.36900878
14.6,1.868623853,1.820756912,2.133638382
14.61,1.012981892,3.081522942,2.191861153
14.62,0.166645289,3.571696281,2.003041744
14.63,-0.258904129,3.319927216,1.841781139
14.64,-0.53413403,2.134408951,1.470142245
14.65,-0.542406797,2.129899025,1.420562506
14.66,-0.623775184,0.718414307,0.865393162
14.67,-0.962537289,-1.910759449,-0.065837264
14.68,-0.928874195,-2.839182854,0.05987817
14.69,-0.915688813,-2.840361595,0.04159838
14.7,-0.675286651,-3.709921837,0.366407573
14.71,-0.353817761,-4.725098133,0.63326472
14.72,-0.146726415,-4.765513897,0.65088284
14.73,-0.127339572,-4.499360085,0.682523549
14.74,-0.234354824,-4.149480343,0.733415544
14.75,-0.206289589,-4.149504185,0.721041799
14.76,0.04341954,-3.462652683,0.506418049
14.77,0.213829711,-3.16877079,0.351649463
14.78,0.313963443,-2.949404716,0.248004317
14.79,0.322712928,-2.778067589,0.096394271
14.8,0.336440712,-2.779100418,0.069425553
14.81,0.4103975,-2.358716011,0.224822193
14.82,0.420918316,-2.35961628,0.199653834
14.83,0.687110424,-2.092177868,0.435588777
14.84,0.602880836,-1.824552059,0.418882638
14.85,0.490361631,-1.609324455,0.38492775
14.86,0.500341475,-1.609354019,0.374158502
14.87,0.487443626,-1.252382278,-0.007943273
14.88,0.248555437,-0.246407509,-0.930106163
14.89,0.106310427,0.338179588,-1.127001405
14.9,0.110631526,0.338544846,-1.123726368
14.91,-0.090439409,1.844880104,-0.881751061
14.92,-0.034793228,2.67591095,-0.793522477
14.93,0.187899321,3.183532715,-0.71348989
14.94,0.501112282,3.180939674,-1.047668457
14.95,0.26466918,2.775907516,-1.363004804
14.96,0.257845163,2.775421143,-1.366293311
14.97,-0.228741109,1.977637291,-1.345059156
14.98,-0.504761696,1.251813889,-0.578812003
14.99,-0.503113031,1.251815796,-0.580704093
15,0.151013553,2.192836761,0.167474508
15.01,0.150082141,2.192951202,0.171058804
15.02,-0.300997883,3.15828228,-0.232854337
15.03,-0.423325807,3.178109169,0.533213973
15.04,-0.286522716,2.92497921,1.133427382
15.05,-0.023869693,2.645699501,1.565839171
15.06,0.116226107,2.589123726,2.092439651
15.07,0.424586117,2.36230278,2.057604313
15.08,0.577215195,2.041687012,2.213374853
15.09,0.537091076,1.528845787,2.598692417
15.1,0.526617646,1.527513504,2.582378626
15.11,0.208927423,0.184930801,2.697608232
15.12,0.193411589,0.182898521,2.668976784
15.13,-0.525345922,-0.884633064,2.738471508
15.14,-0.536778331,-0.886494637,2.702960491
15.15,-1.38898623,-0.89990139,2.246924639
15.16,-1.721316934,-0.503380776,1.246169329
15.17,-1.928944826,-0.115942955,0.991960049
15.18,-1.921682358,-0.116142273,0.973908305
15.19,-1.299511909,0.218974114,1.000483751
15.2,-1.292341471,0.218785286,0.978994429
15.21,-0.364896953,0.124675751,0.880428433
15.22,-0.122890294,0.014448166,0.765441895
15.23,0.090412557,-0.256334305,0.744135976
15.24,0.370806813,-0.611413002,0.63482213
15.25,0.48957181,-0.976569176,0.569380701
15.26,0.488707244,-1.284620285,0.626262784
15.27,0.417294681,-1.504191399,0.627737403
15.28,0.193280995,-1.607413292,0.652127624
15.29,0.10596922,-1.775205612,0.529340088
15.3,-0.041414559,-1.828110218,0.436598867
15.31,-0.060497463,-1.828281879,0.416138262
15.32,-0.358906478,-1.421430588,0.283444762
15.33,-0.393178701,-1.146303177,0.27089572
15.34,-0.40987584,-1.146477699,0.257174075
15.35,-0.317722976,-0.52645874,0.399721533
15.36,-0.343617111,-0.39227581,0.286681294
15.37,-0.296053112,-0.238899231,0.088104725
15.38,-0.305304945,-0.238668442,0.075678945
15.39,-0.173870564,-0.231167793,0.162554264
15.4,0.087287515,-0.235597611,0.365143895
15.41,0.074235737,-0.235258102,0.349736512
15.42,0.419779539,-0.189435005,1.620491266
15.43,0.40783599,-0.189238548,1.609678149
15.44,0.348595858,-0.426316261,1.184750199
15.45,0.336117476,-0.426403999,1.178972721
15.46,0.362116516,-0.357251167,0.935950398
15.47,0.258906841,-0.099302292,0.213355184
15.48,0.157380253,0.050580978,0.098303437
15.49,-0.07366547,0.291264534,-0.074560612
15.5,-0.358851969,0.476703644,0.009780884
15.51,-0.590968132,0.484865189,0.150503457
15.52,-0.541126967,0.126677513,0.076002479
15.53,-0.543533206,0.125267029,0.103223681
15.54,-0.85349524,-0.551237106,-0.309945643
15.55,-0.966451168,-0.724824905,-0.718660772
15.56,-1.103415012,-0.587053299,-0.584283471
15.57,-0.974705696,-0.317378044,-0.418388873
15.58,-0.942869902,0.026684761,-0.225666657
15.59,-1.107960939,0.421159744,-0.098746657
15.6,-0.954305291,0.889961243,-0.402986646
15.61,-0.843086124,1.392262459,-0.865303218
15.62,-0.588676214,1.638360977,-0.627433538
15.63,-0.129896104,1.642724037,-0.445299685
15.64,0.207356751,1.189751625,-0.540150523
15.65,0.401142478,0.597903252,-0.377262712
15.66,0.401406676,0.597480774,-0.357845485
15.67,0.857688427,-0.619190216,-0.521230221
15.68,0.805363298,-0.957101822,-0.403299451
15.69,0.810669243,-0.957274437,-0.381774426
15.7,0.649160743,-1.02441597,-0.148156717
15.71,0.46363759,-1.005318642,-0.144181311
15.72,0.3265903,-0.892760277,-0.121940181
15.73,0.273545146,-0.801703453,-0.110220738
15.74,0.533262372,-0.775294304,-0.409943491
15.75,0.66646719,-0.650717735,-0.637889385
15.76,0.614585638,-0.339388847,-0.721983552
15.77,0.602542043,0.022222519,-0.723823488
15.78,0.916308343,0.362223625,-0.702757418
15.79,0.924571276,0.723649025,-0.385573983
15.8,0.934353471,0.941286087,-0.120889425
15.81,0.91514957,1.022395134,-0.133560106
15.82,0.788627505,0.990942955,0.006254092
15.83,0.716222048,0.753617287,-0.063559815
15.84,0.703436494,0.753380776,-0.082850792
15.85,0.294014752,0.133079529,-0.339988112
15.86,0.29232043,-0.060959816,-0.439970315
15.87,0.634630919,-0.080192566,0.097943954
15.88,0.628934443,-0.080245018,0.091712944
15.89,0.704722524,-0.188101769,-0.157319173
15.9,0.61851722,-0.221714973,-0.118584953
15.91,0.701406956,-0.245724678,0.220215127
15.92,0.70369941,-0.205071449,-0.199366689
15.93,0.443697214,-0.071014404,-0.500309229
15.94,0.348574311,0.020015717,-0.172283009
15.95,0.355213881,0.020107269,-0.155227825
15.96,0.1116862,0.084923744,-0.522380173
15.97,0.142610103,0.020542145,-0.642559946
15.98,0.222365052,-0.050995827,-0.622998536
15.99,0.229386061,-0.050668716,-0.598494768
16,0.200120568,0.059856415,-0.459230661
16.01,0.164925277,0.136876106,-0.393325061
16.02,0.159752846,0.285705566,-0.187896848
16.03,0.322120667,0.448849678,-0.183534995
16.04,0.321926594,0.449166298,-0.1647356
16.05,-0.018892497,1.062420845,-0.24748826
16.06,-0.133907318,1.153616905,-0.557960033
16.07,-0.155724257,1.012473106,-0.655956686
16.08,-0.233658522,0.670085907,-0.494290918
16.09,-0.347654283,0.327563286,-0.102024645
16.1,-0.535052538,-0.103525162,0.040588319
16.11,-0.49480921,-0.725996018,-0.091892481
16.12,-0.449765801,-1.130399704,-0.060682386
16.13,-0.308508754,-1.402913094,0.116342291
16.14,-0.092453271,-1.414323807,0.059455737
16.15,0.073000938,-1.29153347,0.052467182
16.16,0.184982047,-1.034673691,0.06373854
16.17,0.319490165,-0.763506889,-0.014856637
16.18,0.103233576,-0.212251663,-0.113367081
16.19,-0.002724171,0.085232735,-0.16663003
16.2,-0.061469197,0.32763958,-0.348726749
16.21,-0.017601728,0.390442848,-0.608866572
16.22,-0.00725165,0.414959908,-0.74198699
16.23,-0.140388221,0.389226914,-0.666619957
16.24,-0.13986361,0.389870644,-0.650524557
16.25,-0.414984554,0.246861458,-0.529415369
16.26,-0.504935861,0.171016693,-0.554896593
16.27,-0.583683133,0.143219948,-0.437763572
16.28,-0.621447504,0.091659546,-0.436537296
16.29,-0.728025913,0.035581589,-0.433612347
16.3,-0.724936247,-0.058496475,-0.428587198
16.31,-0.792248249,-0.12835598,-0.717176378
16.32,-0.774725258,-0.094723701,-0.774823368
16.33,-0.749025583,-0.09183979,-0.74473685
16.34,-0.178564966,-0.191999435,0.153681189
16.35,-0.171253502,-0.328513145,-0.001278639
16.36,-0.118157089,-0.429224014,0.009933352
16.37,-0.002516866,-0.470353127,-0.020667851
16.38,-0.112417162,-0.413697243,-0.59870261
16.39,-0.099211574,-0.35938549,-0.629446387
16.4,-0.088850856,-0.164051056,-0.056139529
16.41,-0.218466222,-0.081758499,0.019427717
16.42,-0.18029058,-0.117030144,-0.217923105
16.43,-0.223203123,-0.118896484,-0.146360457
16.44,-0.305821359,-0.145037651,-0.09967041
16.45,-0.332388103,-0.149552345,-0.227794051
16.46,-0.371299207,-0.177750588,-0.171797097
16.47,-0.2310884,-0.148230553,-0.260107756
16.48,-0.154790878,-0.14964962,-0.109516025
16.49,-0.136665702,-0.11744976,-0.083916962
16.5,-0.070409179,-0.171477318,-0.003704965
16.51,-0.048339128,-0.120240212,-0.036576152
16.52,0.068111837,-0.069067001,-0.176969409
16.53,-0.056885004,-0.089801788,-0.254742086
16.54,-0.172515214,-0.093805313,-0.124330401
16.55,-0.14426738,-0.100471497,-0.303995311
16.56,-0.128248394,-0.066513062,-0.297494113
16.57,-0.289202035,-0.090117455,-0.146450877
16.58,-0.281306505,-0.077877045,-0.10717684
16.59,-0.174791217,-0.099183083,-0.07823807
16.6,-0.078641772,-0.034333229,-0.04910928
16.61,0.006996095,-0.038906097,0.038361251
16.62,0.027720928,-0.1057024,-0.149167955
16.63,0.012220025,-0.081433296,-0.210918844
16.64,0.016002893,-0.095516205,-0.251842499
16.65,-0.028497577,-0.104857445,-0.208909273
16.66,0.041793287,-0.08079052,-0.191354454
16.67,0.041697145,-0.080764771,-0.19110775
16.68,-0.004302919,-0.025807381,0.061976314
16.69,0.018470228,0.014770508,0.137872458
16.7,0.071773291,0.057746887,0.113691151
16.71,0.074711561,0.072044373,0.030539811
16.72,0.059703469,0.029006958,-0.054589689
16.73,0.025716603,-0.071583748,-0.102374613
16.74,0.142359525,-0.143485069,-0.028641939
16.75,0.11700657,-0.162863731,0.039303839
16.76,0.103413194,-0.115253449,-0.001105964
16.77,0.032073975,0.018548965,-0.146510124
16.78,0.016880631,0.130972862,-0.094587803
16.79,-0.035827935,0.142901421,-0.135650516
16.8,-0.035096705,0.143025398,-0.134780765
16.81,0.106785715,0.01381588,0.13384974
16.82,0.106319547,0.013828278,0.134353042
16.83,0.174763948,-0.158790588,0.196935058
16.84,0.284262866,-0.046775818,-0.026405692
16.85,0.283153743,-0.047169685,-0.030240774
16.86,-0.002530694,0.101006508,0.074771345
16.87,-0.019655406,0.201272011,0.239288926
16.88,-0.259197414,0.16279316,0.179711521
16.89,-0.386881709,0.095788956,0.212549865
16.9,-0.475037396,0.069410324,0.035136819
16.91,-0.389870107,-0.023988724,-0.065944016
16.92,-0.384996891,-0.023884773,-0.068290889
16.93,-0.424518049,0.069729805,0.023584247
16.94,-0.417470455,0.070118904,0.022773504
16.95,0.016400158,0.058517456,0.145340323
16.96,0.089769661,0.070794106,0.409302682
16.97,0.093385518,0.071187973,0.411168486
16.98,-0.1182428,0.04067421,0.087523282
16.99,-0.285924614,-0.116571426,-0.012188256
17,-0.281131566,-0.115860939,-0.007428527
17.01,-0.195260942,-0.335722923,-0.339559913
17.02,-0.233571947,-0.345273972,-0.430262983
17.03,-0.237173855,-0.276126862,-0.420563042
17.04,-0.148233175,-0.152091026,-0.139696896
17.05,-0.060460091,-0.049865723,-0.097875834
17.06,-0.10260582,0.028538704,-0.015858293
17.07,-0.29143697,0.016381264,-0.028407812
17.08,-0.315645635,0.021259308,-0.1349805
17.09,-0.20741868,0.057373047,-0.31484282
17.1,-0.09499681,0.024030685,-0.154604256
17.11,0.033297479,0.071818352,0.055599153
17.12,0.009457648,0.06629467,0.143847346
17.13,0.144035518,0.07040596,0.270709515
17.14,0.139754772,0.069788933,0.266523182
17.15,0.210649908,0.12197876,0.387826979
17.16,0.02265054,0.069096565,0.264071167
17.17,0.00389266,0.069140434,0.075185359
17.18,0.004434228,0.069410324,0.077947259
17.19,0.083972275,0.069634438,0.099447727
17.2,0.113423705,0.074583054,0.139161289
17.21,0.138309836,0.079543114,0.128474116
17.22,0.199255973,0.070216179,0.075742662
17.23,0.133014441,0.036975861,0.03282392
17.24,-0.066951931,-0.010708809,-0.12368542
17.25,-0.036791205,0.051603317,-0.059271514
17.26,0.130686432,0.068256378,0.688802064
17.27,0.281857282,0.024855614,0.528887272
17.28,0.125376076,0.00326252,0.13083899
17.29,-0.080580592,-0.111494064,0.247300267
17.3,0.137589604,-0.15952301,0.369294316
17.31,0.129057765,-0.023747444,0.121949434
17.32,0.02293843,0.078633308,-0.110144913
17.33,0.080209374,0.169220924,0.116824389
17.34,0.02162081,0.125609398,0.335995883
17.35,0.075247169,0.070073128,0.462323189
17.36,-0.029497266,-0.007040024,0.457125574
17.37,-0.056632936,-0.055316925,0.327707976
17.38,-0.090069711,-0.113025665,0.079729855
17.39,-0.110666812,-0.07704258,-0.026177704
17.4,-0.11869663,-0.055260658,0.080218971
17.41,0.005458474,-0.047890663,0.128354609
17.42,0.062456369,-0.028526306,0.186297596
17.43,0.108071238,-0.018699646,0.258767545
17.44,0.189769417,0.019924164,0.27912575
17.45,0.221066535,0.015528679,0.310066462
17.46,0.137084812,0.008886337,0.290176749
17.47,0.034506857,0.057355881,0.284902811
17.48,0.127776653,0.048167229,0.114783526
17.49,0.125914902,0.048424721,0.119076848
17.5,-0.006181061,0.070124626,0.070116818
17.51,-0.121225357,0.074890137,0.150713742
17.52,-0.168224394,0.070163727,0.260094464
17.53,-0.168660998,0.070300102,0.262025118
17.54,-0.22349143,-0.01558876,0.148059666
17.55,-0.224422395,-0.058195114,0.071166813
17.56,-0.203732967,-0.048137665,0.111605704
17.57,-0.132899344,-0.035913467,0.147141039
17.58,-0.126907527,-0.009418488,0.162433147
17.59,-0.101682067,-0.021269798,0.21087569
17.6,-0.059448779,-0.054719925,0.186562896
17.61,-0.000270069,-0.09529686,0.151101828
17.62,0.001407504,-0.095098495,0.15204227
17.63,0.036559343,-0.025424957,0.225647509
17.64,0.035613239,-0.049016953,0.168624997
17.65,-0.006050766,-0.053366661,0.112745225
17.66,0.041058123,-0.03130722,0.117406189
17.67,0.095168054,-0.014048576,0.057414711
17.68,0.095312715,-0.013636589,0.061755359
17.69,0.028173327,0.075300217,0.147043705
17.7,-0.101990759,0.073172569,0.16256547
17.71,-0.150083721,0.051959991,0.01315695
17.72,-0.149248481,0.052514076,0.018610537
17.73,-0.099585474,0.029340744,-0.000525713
17.74,0.081629157,0.020460129,0.518191695
17.75,0.061152041,-0.120283127,0.228566766
17.76,-0.088424325,-0.129179001,0.11523366
17.77,-0.050723374,-0.200428009,0.191906393
17.78,0.192456216,-0.094724655,0.190125823
17.79,0.176069826,0.001279831,-0.056874454
17.8,0.068612158,0.080635071,-0.091835856
17.81,-0.003344119,0.080779076,0.149368525
17.82,-0.004549384,0.080626488,0.148535013
17.83,-0.142971873,-0.010695457,0.265782118
17.84,-0.015817761,-0.015914917,0.097488523
17.85,-0.016295552,0.05317688,-0.002409279
17.86,-0.099989891,0.103272438,0.112064064
17.87,-0.084159315,0.117609024,0.17947495
17.88,-0.03413558,0.081870079,0.133504331
17.89,0.009176135,0.015201569,0.156526864
17.9,0.009884,0.015713692,0.161301255
17.91,-0.039851248,-0.007656097,0.071077406
17.92,0.049061656,-0.021373749,0.099017024
17.93,0.012672603,-0.008749008,0.223312199
17.94,0.011870921,-0.008199692,0.229484737
17.95,0.005969405,-0.002841949,0.161619484
17.96,-0.028772712,-0.035793304,0.050650299
17.97,-0.046851814,-0.037765503,0.021934569
17.98,-0.098640561,0.008019447,0.066564083
17.99,-0.099948704,0.008278847,0.069898784
18,-0.141825378,0.037249565,0.111144424
18.01,-0.17635411,0.075746536,0.070613503
18.02,-0.231409311,0.085582733,0.054019511
18.03,-0.230344594,0.03081131,0.037026286
18.04,-0.173228681,-0.011911392,0.087408245
18.05,-0.079880714,-0.030627251,0.1021837
18.06,-0.058450401,-0.003890038,0.257999599
18.07,-0.022249579,0.070711136,0.315134287
18.08,-0.098780274,0.02077198,0.352967918
18.09,-0.03359133,0.001976013,0.280425251
18.1,-0.031026125,0.002314568,0.28210932
18.11,0.028633654,-0.061998367,0.149947822
18.12,0.030393958,-0.061738014,0.151367009
18.13,-0.037507951,0.079612732,0.297388554
18.14,-0.035989642,0.079663277,0.296924353
18.15,-0.082432866,0.120566368,0.187851667
18.16,-0.195380926,0.132780075,0.219946265
18.17,-0.149403155,0.089993477,0.065565228
18.18,-0.146484673,0.090406418,0.06797874
18.19,-0.160217345,0.038234711,0.013284445
18.2,-0.216332078,-0.021158218,-0.022895098
18.21,-0.054676592,-0.042285919,0.287764311
18.22,0.167402893,-0.104431152,0.579895675
18.23,0.167674989,-0.104541779,0.578585088
18.24,-0.030290484,-0.138195038,0.320580423
18.25,-0.074115276,-0.174368858,0.42966038
18.26,0.05062747,-0.100528717,0.070047617
18.27,-0.042511106,-0.040634155,-0.230596304
18.28,-0.082875133,0.065032959,0.117999136
18.29,0.021919608,0.091516495,0.350399852
18.3,0.089187026,0.146471977,0.284520447
18.31,-0.021410286,0.134321213,0.276020169
18.32,-0.114361167,0.115068436,0.308273852
18.33,-0.184438169,0.134231567,0.245002151
18.34,-0.216856241,0.117783546,0.078261018
18.35,-0.188042402,0.082619667,-0.034961462
18.36,-0.094054699,0.019046783,0.07704258
18.37,-0.030862033,-0.070882797,0.236444056
18.38,0.030270994,-0.184868813,0.236682892
18.39,0.035798252,-0.183935165,0.241913796
18.4,0.017054796,-0.221209526,0.022964358
18.41,0.006660402,-0.170002937,-0.030849695
18.42,0.011862695,-0.044665337,0.001312017
18.43,0.013033509,-0.044282913,0.00408566
18.44,-0.041864157,0.03241539,0.114794493
18.45,-0.172068834,0.099301338,0.231372833
18.46,-0.122355521,0.099133492,0.053031445
18.47,-0.209475279,0.06307888,-0.005093932
18.48,-0.259832501,0.0271101,0.066186547
18.49,-0.249538779,-0.035284042,0.167458773
18.5,-0.257651329,-0.045012474,0.227371752
18.51,-0.092987418,-0.064436913,0.214020371
18.52,-0.105806112,0.019099236,0.282345057
18.53,-0.111155927,-0.024291992,0.300036848
18.54,-0.109100163,-0.024582863,0.295926511
18.55,-0.118445277,-0.039216042,0.2318452
18.56,-0.108490646,-0.022646904,0.170781434
18.57,0.001856327,-0.022839546,0.203032374
18.58,0.03704679,-0.025568008,0.244287491
18.59,-0.000200391,-0.021203995,0.385643423
18.6,0.00054425,-0.02162838,0.380983651
18.61,0.017286658,0.018774986,0.157691896
18.62,-0.016403556,0.004149437,0.117200911
18.63,-0.076840639,0.06621933,0.084643841
18.64,-0.032400966,0.039719582,0.028770626
18.65,-0.029740632,-0.013203621,-0.029489875
18.66,-0.032199383,-0.013475418,-0.030459046
18.67,-0.266319215,0.094103813,-0.08823204
18.68,-0.267299473,0.093966484,-0.089019418
18.69,-0.150356114,0.093837738,0.353060484
18.7,-0.124267221,0.060352325,0.365578353
18.71,-0.150589943,-0.008973122,0.500638604
18.72,-0.14009279,-0.114246368,0.368972778
18.73,-0.052350819,-0.162038803,0.213230372
18.74,-0.041124463,-0.097306252,-0.002572298
18.75,-0.051675498,-0.042090416,0.026743472
18.76,0.04704392,0.034645081,0.283706605
18.77,0.095511079,0.094161987,0.600053728
18.78,0.092666805,0.093511581,0.595654547
18.79,0.021053731,0.171811104,0.578261733
18.8,-0.295539677,0.092082977,0.404162049
18.81,-0.192198932,0.017191887,0.210371554
18.82,-0.150675297,-0.021601677,0.049301207
18.83,-0.144062161,-0.009780884,0.080096006
18.84,-0.024651825,-0.091117859,0.20381093
18.85,0.082284927,-0.17472744,0.242768765
18.86,0.052533329,-0.160067558,0.12031287
18.87,0.054141939,-0.1596241,0.123587966
18.88,0.045939624,-0.013154984,0.071657896
18.89,0.065575778,0.046933174,0.186130583
18.9,-0.045295596,0.09235096,0.312821388
18.91,0.030248523,0.116071701,0.246917486
18.92,-0.082274675,0.111078262,0.129183054
18.93,-0.120096088,0.091882706,0.122895122
18.94,-0.14039129,-0.011041641,0.066555977
18.95,-0.159750342,-0.058844566,0.148957908
18.96,-0.066401124,-0.113909721,0.252009332
18.97,0.038501561,-0.145165443,0.289322913
18.98,0.066693962,-0.152409554,0.310506642
18.99,-0.048333287,-0.104613304,0.362591505
19,0.005094528,-0.085481644,0.115155876
19.01,-0.040060878,-0.138050079,0.001031458
19.02,-0.040191233,-0.137941361,0.002143204
19.03,0.121683359,-0.114024162,0.25398922
19.04,0.084074974,-0.154889107,0.399537325
19.05,0.082684696,-0.155140877,0.398147881
19.06,0.042932272,-0.083704948,0.282621265
19.07,0.051117897,-0.0792799,0.141189039
19.08,0.039697528,-0.012504578,0.056089461
19.09,0.013395309,0.035182953,-0.011254787
19.1,-0.02033776,0.0900774,0.101403594
19.11,-0.023069561,0.08983326,0.100868166
19.12,-0.137598097,0.003395081,0.116537988
19.13,-0.239520133,-0.013571739,0.007692039
19.14,-0.299649417,0.058144569,0.014045358
19.15,-0.298800409,0.058082581,0.012669384
19.16,-0.223442376,0.067666054,0.079047441
19.17,0.025938571,0.010225296,0.165320814
19.18,0.025677264,0.010211945,0.165204465
19.19,0.104588687,-0.076176643,0.491467178
19.2,0.002724767,-0.148014069,0.126617312
19.21,0.004697502,-0.147838593,0.126946449
19.22,0.020931542,-0.061339378,-0.034145772
19.23,-0.025793612,0.027405739,0.299506009
19.24,0.005286634,0.089530945,0.410691381
19.25,0.002292335,0.036538124,0.341044664
19.26,-0.19946152,0.019446373,0.163307309
19.27,-0.100793541,-0.007069588,0.024554014
19.28,-0.156029701,-0.059939384,0.003695369
19.29,-0.144001603,-0.036064148,0.103433013
19.3,0.009924054,-0.004921913,0.103051364
19.31,0.01062727,-0.004751205,0.104411542
19.32,0.169650972,0.041051865,0.367865861
19.33,0.077243984,0.027158737,0.209025264
19.34,0.078906357,0.02784729,0.214764655
19.35,-0.015106738,-0.02165699,0.005776882
19.36,-0.057034552,0.007759094,0.028429985
19.37,-0.056772411,0.008255005,0.033175111
19.38,0.002339184,0.087548256,0.216090977
19.39,0.001106977,0.087717056,0.218620181
19.4,-0.037817776,0.114248276,0.211375356
19.41,-0.335906446,0.093067169,0.017679811
19.42,-0.294813156,-0.042750359,-0.092749834
19.43,-0.291596234,-0.041937828,-0.087229013
19.44,-0.176186502,-0.117854118,0.051555753
19.45,-0.052012503,-0.141386032,0.140233874
19.46,-0.05100745,-0.141150475,0.141820908
19.47,-0.038514972,-0.109859467,0.229379594
19.48,-0.093016326,-0.073746681,0.257198989
19.49,-0.082787454,-0.131027222,0.205815017
19.5,-0.058028996,-0.130871773,0.110830128
19.51,-0.058192968,-0.130833626,0.111337602
19.52,-0.078162551,-0.106958389,0.103996337
19.53,-0.055461049,-0.020929337,0.220562279
19.54,-0.05674696,0.007680893,0.160482705
19.55,-0.146625221,0.034049988,0.032417595
19.56,-0.147561014,0.034315109,0.035623729
19.57,-0.115458369,0.044093132,-0.019022107
19.58,-0.115140557,0.056124687,0.179364801
19.59,-0.11763972,0.056020737,0.179982066
19.6,-0.084539771,0.041490555,0.149181485
19.61,-0.307397544,0.024614334,-0.094430685
19.62,-0.307828307,0.024751663,-0.092651486
19.63,-0.257480741,-0.03963089,-0.085407853
19.64,0.005022347,-0.049042702,0.297235847
19.65,0.009821236,-0.120834351,0.239238918
19.66,0.006704509,-0.120753288,0.242079198
19.67,0.113905132,-0.087333679,0.693161964
19.68,0.007288277,-0.027750015,0.20062536
19.69,-0.199615002,0.05833149,-0.209132314
19.7,-0.179492533,0.096596718,-0.01958251
19.71,-0.122997761,0.189518929,0.313634515
19.72,-0.127680957,0.188774109,0.309745073
19.73,0.039268136,0.097063065,0.292095542
19.74,0.034256697,0.09647274,0.289677382
19.75,0.006205916,-0.023615837,0.082851529
19.76,-0.011338949,-0.052323341,-0.118396282
19.77,-0.014017522,-0.05205822,-0.114383459
19.78,0.002961397,0.012776375,0.192956269
19.79,-0.058704257,0.087052345,0.666271567
19.8,0.128350258,0.089318275,0.668718457
19.81,0.244293809,0.067532539,0.199589551
19.82,0.158484101,0.094078064,0.091540813
19.83,0.037208319,0.089746475,0.091010451
19.84,0.014541745,0.095108032,0.0385921
19.85,0.070278049,-0.004909515,-0.052321553
19.86,0.065401673,-0.00446701,-0.045400858
19.87,0.027151525,-0.016132355,0.010217309
19.88,0.003225923,-0.006390572,0.050349474
19.89,-0.135356069,0.008214951,0.105213106
19.9,-0.093362331,0.001327515,0.088308692
19.91,-0.050877869,0.006577492,0.029435873
19.92,-0.062610388,0.028659821,0.102338314
19.93,-0.06660074,-0.030714035,0.184014261
19.94,-0.044074297,0.034312248,0.360394239
19.95,0.055259228,0.060811996,0.316989183
19.96,0.053513229,0.060943604,0.319123268
19.97,-0.014398813,0.020440102,0.270913899
19.98,-0.004996777,0.00642395,0.070569277
19.99,0.049935043,-0.060011864,-0.14680028
20,-0.031760812,-0.020903587,-0.01781714
20.01,0.058900714,0.006098747,0.028876901
20.02,0.040562272,0.042570114,0.122943282
20.03,0.038785338,0.043004036,0.127457619
20.04,0.005798399,0.062517166,0.243923485
20.05,-0.022009313,0.05079174,0.268369436
20.06,-0.008700132,0.034297943,0.067571163
20.07,-0.026714504,-0.041901588,-0.062376857
20.08,-0.142338753,-0.060584068,-0.077240586
20.09,-0.209523678,-0.060127258,-0.286480904
20.1,-0.209455013,-0.059644699,-0.282631874
20.11,-0.029550612,0.043655396,0.115108252
20.12,-0.030476511,0.043604851,0.115185499
20.13,0.16424951,0.031169891,0.806610704
20.14,-0.042199731,-0.066950798,0.179805756
20.15,-0.026215792,-0.157764435,0.059472919
20.16,-0.079224765,-0.049931526,0.105836272
20.17,-0.064978004,-0.052363396,-0.208001971
20.18,-0.065935194,-0.052206039,-0.206284046
20.19,0.02463609,0.033773422,0.293723047
20.2,-0.04634732,0.090510368,0.533903599
20.21,-0.005435526,0.041703224,0.420746744
20.22,-0.026701272,-0.007043839,0.209899902
20.23,-0.154695511,-0.036499023,0.124047041
20.24,-0.156977475,-0.037092209,0.120130777
20.25,-0.138847888,0.024674416,0.119015455
20.26,-0.185362995,0.100904465,0.173712194
20.27,-0.053919792,0.160378456,0.244873524
20.28,0.06301707,0.121827126,0.257343531
20.29,0.062248707,0.100246429,0.137605786
20.3,0.011723399,0.04792881,0.064286947
20.31,-0.044437408,-0.0111866,0.05791533
20.32,-0.04272449,-0.010404587,0.06366694
20.33,-0.015336454,-0.127090454,0.077955842
20.34,0.073101461,-0.092967987,0.05903542
20.35,0.023367465,-0.044710159,0.158775806
20.36,0.042587459,-0.03027916,0.241794467
20.37,0.02776742,-0.020981789,0.152150154
20.38,-0.046671569,-0.002152443,0.177183032
20.39,-0.226067066,-0.040735245,0.259628356
20.4,-0.189183176,-0.06497097,0.250750363
20.41,-0.106611311,-0.046048164,0.165591836
20.42,-0.110449374,0.006367683,0.22400254
20.43,-0.092316926,0.089840889,0.362996161
20.44,-0.016189635,0.101349831,0.320976079
20.45,-0.016792297,0.100877762,0.317291796
20.46,-0.019363105,0.100636482,0.190848887
20.47,0.0138551,0.100475311,0.136995316
20.48,0.020873964,-0.026668549,0.235571563
20.49,-0.036857188,-0.00772953,0.157304049
20.5,-0.015770793,-0.000751495,0.205972374
20.51,-0.129725277,-0.010659218,0.388283968
20.52,-0.018479168,-0.020820618,0.338405848
20.53,-0.018131912,-0.021370888,0.226996839
20.54,-0.020429075,-0.021759033,0.224767983
20.55,-0.013317466,0.040229797,0.103913903
20.56,-0.11563468,-0.010210991,0.041112185
20.57,-0.222200275,-0.022220612,-0.171733499
20.58,-0.261113107,0.011381149,-0.16604948
20.59,-0.261105537,0.011407852,-0.165779352
20.6,0.027880996,0.032725334,0.567602992
20.61,0.081121832,-0.049093246,0.584073067
20.62,-0.118985653,-0.097306252,0.071939707
20.63,-0.133248985,-0.15472126,0.153720915
20.64,-0.127469361,-0.147603989,0.356210172
20.65,-0.095962763,-0.082933426,-0.181185722
20.66,-0.093865514,-0.082501411,-0.178373098
20.67,-0.004088104,0.018334389,-0.047362566
20.68,0.02840969,0.085129738,0.209632635
20.69,0.056906611,0.096506119,0.301445305
20.7,0.053029209,0.095637321,0.295756161
20.71,0.050113291,0.128281593,0.382964969
20.72,-0.183716834,0.192238808,0.133477747
20.73,-0.18636477,0.163291931,-0.06460166
20.74,-0.212497234,0.0891819,-0.097331166
20.75,-0.135038495,0.022423744,0.108180046
20.76,-0.134143829,0.02270031,0.110176206
20.77,-0.075376868,-0.084545136,-0.067981839
20.78,-0.070928574,-0.064596176,-0.164960027
20.79,0.010090888,-0.03512001,-0.142659903
20.8,0.011723757,-0.034496307,-0.138091326
20.81,0.11127314,0.037722588,0.211791217
20.82,0.069382668,0.045124054,0.253726721
20.83,0.05587393,0.038093567,0.223514676
20.84,0.051252276,0.002262115,0.147533298
20.85,0.043614984,-0.040775299,-0.012109876
20.86,0.042556405,-0.040669441,-0.010713935
20.87,-0.087995827,-0.05739212,0.076356769
20.88,-0.09131074,-0.033395767,0.055654049
20.89,-0.092061579,-0.033398628,0.055980802
20.9,-0.173420727,-0.064650536,0.133884192
20.91,-0.173184276,-0.064934731,0.13143146
20.92,-0.287663817,0.049757004,0.232099831
20.93,-0.288704872,0.097303391,0.156789601
20.94,-0.183754027,0.118720055,0.075721741
20.95,-0.143058717,0.202496529,0.048077703
20.96,-0.125670254,0.183415413,0.234079957
20.97,-0.12177968,0.183553696,0.233384371
20.98,-0.096170545,0.104714394,0.369477511
20.99,0.074721903,0.054656029,0.338688612
21,0.186793,-0.079108238,0.297394335
21.01,0.17555204,-0.0574646,0.463027716
21.02,0.191610515,-0.033761978,0.552379966
21.03,0.230466932,0.011210442,0.412258863
21.04,0.138603747,-0.03015995,0.228577912
21.05,-0.010868251,-0.119274139,-0.049839973
21.06,-0.131600738,-0.153305054,-0.131539941
21.07,-0.235227525,-0.072389603,-0.084174037
21.08,-0.163725972,0.003584862,0.273098588
21.09,-0.143368423,0.103259087,0.470520079
21.1,0.087066919,0.126255035,0.444995225
21.11,-0.09529233,0.092008591,0.426660061
21.12,-0.133953691,0.081838608,0.580628574
21.13,-0.172801316,0.081156731,0.459800839
21.14,-0.094632089,-0.007946968,0.004452705
21.15,0.007390499,-0.079774857,-0.178274393
21.16,0.007782459,-0.079669952,-0.177561879
21.17,0.083485931,-0.08254528,0.556035638
21.18,0.098328024,-0.033124924,0.699885249
21.19,0.084251523,-0.00066185,0.576388061
21.2,0.08215189,-0.001673698,0.568153918
21.21,-0.074143171,-0.047890663,0.166665316
21.22,-0.074230254,-0.048355103,0.162372589
21.23,-0.082946956,-0.13000679,0.128564
21.24,-0.081778228,-0.041630745,0.298441947
21.25,0.06784609,-0.001221657,0.402730942
21.26,0.103947014,-0.044665337,0.167152107
21.27,-0.013732851,-0.030385017,0.104338646
21.28,-0.166420221,-0.071044922,-0.005695701
21.29,-0.237424016,0.029673576,0.01700902
21.3,-0.237063348,0.029748917,0.017444491
21.31,-0.089205444,0.084686279,0.035714865
21.32,-0.110176027,0.089152336,0.172382653
21.33,0.019790024,0.09585762,0.360314608
21.34,0.075325698,0.078604698,0.346982539
21.35,-0.079265118,0.078246117,0.269991159
21.36,-0.079072773,0.078009605,0.267585278
21.37,-0.133359611,-0.065953255,0.149306119
21.38,0.015811086,-0.243491173,0.164620578
21.39,0.046758682,-0.241649628,0.195314288
21.4,-0.001913011,-0.179981232,0.072791457
21.41,-0.070291817,-0.087233543,0.151094794
21.42,-0.072104722,-0.087934494,0.145103395
21.43,0.001758963,-0.067118645,0.141573608
21.44,-0.030753076,-0.036277771,-0.047331989
21.45,-0.031557679,-0.036472321,-0.048877478
21.46,-0.100846708,-0.130037308,0.128914952
21.47,-0.100576669,-0.130268097,0.126387477
21.48,0.052317619,-0.190401077,0.185987234
21.49,0.096743822,-0.147701263,0.261502326
21.5,0.018094659,-0.064504623,0.414517403
21.51,0.061250418,-0.017335892,0.200158119
21.52,-0.047319829,0.075363159,0.060591817
21.53,-0.112789661,0.074648857,-0.057593763
21.54,-0.194499463,0.021262169,-0.195058048
21.55,-0.295528919,0.073278427,0.022166431
21.56,-0.24436906,0.065363884,0.063020706
21.57,-0.152446002,-0.038257599,0.190924645
21.58,-0.04915753,-0.115532875,0.565610707
21.59,0.018355727,-0.161798477,0.591940343
21.6,0.033364445,-0.160163879,0.359647989
21.61,0.032311708,-0.160717964,0.354206085
21.62,-0.031956971,-0.019845009,0.162890434
21.63,-0.056224436,0.068519592,-0.102721393
21.64,-0.057707369,0.068236351,-0.105061233
21.65,-0.041338712,0.077266693,0.438735664
21.66,-0.193521768,0.066998482,0.37544179
21.67,-0.160695672,0.011385918,0.102707446
21.68,-0.084492981,0.039717674,0.073451877
21.69,-0.092080772,0.010652542,0.317781389
21.7,-0.106420308,0.041377068,0.340808272
21.71,-0.067392915,0.065076828,0.092295349
21.72,0.093661577,0.182400703,-0.002448082
21.73,0.10034737,0.141895294,0.305178165
21.74,0.097960174,0.077403069,0.246028483
21.75,0.12445128,0.03943634,-0.105877459
21.76,0.029251724,-0.060469627,0.033976316
21.77,-0.091453642,-0.081339836,0.113738298
21.78,-0.091715783,-0.016031265,-0.001096547
21.79,-0.044547826,0.006139755,-0.051289976
21.8,-0.069491595,0.06891346,0.196547091
21.81,-0.154185206,0.081144333,0.329024732
21.82,-0.094768465,0.083734512,0.19250077
21.83,-0.095135242,0.084078789,0.196307123
21.84,-0.111386061,0.022334099,0.005011082
21.85,-0.183683157,-0.051465988,0.037458777
21.86,-0.207870901,-0.161233902,-0.031497121
21.87,-0.112197608,-0.172917366,0.015777469
21.88,-0.143557668,-0.134496689,0.176395536
21.89,-0.177233368,-0.07710743,0.25363785
21.9,-0.175009847,-0.077303886,0.250519991
21.91,-0.027131557,-0.01292038,0.234876096
21.92,-0.095283657,-0.039463043,0.162745118
21.93,-0.028789699,-0.027685165,0.061647296
21.94,-0.027202725,-0.027817726,0.059382856
21.95,-0.075716913,-0.003917694,0.093889475
21.96,0.004351556,-0.003957748,0.164738059
21.97,0.119879067,0.024813652,0.193906009
21.98,-0.014118791,0.07043457,0.391457617
21.99,-0.146780998,0.046672821,0.394958973
22,-0.127771825,0.070877075,0.245894253
22.01,-0.237890989,0.052083969,0.037833691
22.02,-0.166015506,-0.059951782,-0.121080637
22.03,-0.324791998,-0.045164108,-0.306616008
22.04,-0.303737223,0.0030756,-0.215082347
22.05,0.020805031,0.039166451,0.296008706
22.06,0.175620407,0.08445549,0.739562273
22.07,0.038769424,0.072281837,0.589218736
22.08,-0.015155286,0.009954453,0.542451441
22.09,-0.012871832,0.00985527,0.540153086
22.1,-0.033646762,-0.059638023,0.356003285
22.11,-0.137835234,-0.05701828,-0.282847822
22.12,-0.135121882,-0.056853294,-0.282456815
22.13,-0.003944159,-0.052424431,0.171377659
22.14,-0.060168087,0.071557999,0.525538087
22.15,-0.061213523,0.071091652,0.52111268
22.16,-0.10480696,0.027700424,0.173499286
22.17,-0.104836762,0.027661324,0.173119366
22.18,-0.130666435,-0.020029068,-0.071715176
22.19,-0.179297,-0.012542725,0.019364238
22.2,-0.034311026,-0.012197495,0.115668833
22.21,0.005009204,-0.028608322,0.193174064
22.22,0.006429017,-0.028188705,0.196760654
22.23,0.01043129,-0.018143654,0.253513455
22.24,0.037887096,-0.055866241,0.093828142
22.25,-0.044936389,0.064305305,0.191386521
22.26,-0.111490309,0.074211121,0.216298997
22.27,-0.111254454,0.074516296,0.219296396
22.28,-0.02566734,0.07470417,0.202511847
22.29,-0.000603676,0.072553635,0.071530998
22.3,-0.106735289,0.07271862,0.102246761
22.31,-0.188405126,-0.039689064,0.077441752
22.32,-0.187981069,-0.056208611,0.211320579
22.33,-0.141279876,-0.115890503,0.32992661
22.34,-0.139034748,-0.115721703,0.330500007
22.35,-0.148225576,-0.101185799,0.11764276
22.36,-0.145115912,-0.101011276,0.117877126
22.37,-0.182685226,-0.045936584,0.118669808
22.38,-0.215909094,0.025783539,0.175995171
22.39,-0.068251789,-0.007884979,0.113755167
22.4,0.004464924,0.075695992,0.228389919
22.41,-0.025826216,0.010801315,0.194154739
22.42,-0.024919927,0.010621071,0.191894949
22.43,-0.084011972,0.041588783,0.328569174
22.44,-0.248313785,0.022258759,0.465142876
22.45,-0.247061193,0.022047997,0.462462217
22.46,-0.026851654,-0.049825668,0.155500591
22.47,-0.027695954,-0.049947739,0.154765844
22.48,-0.014654219,-0.086093903,0.1338166
22.49,-0.033156633,-0.081688881,0.252823114
22.5,-0.078184843,-0.053444862,0.205641508
22.51,-0.065960884,-0.027590752,0.18252188
22.52,-0.221501857,0.034250259,-0.105475426
22.53,-0.222451121,0.034106255,-0.106535196
22.54,0.073034614,0.050643921,0.354037762
22.55,0.070858151,0.050193787,0.350279272
22.56,0.022640139,0.018404961,0.521899104
22.57,0.030662686,-0.015516281,0.326699793
22.58,-0.135851622,0.015164375,0.564509988
22.59,-0.039497525,0.050554276,0.422046721
22.6,-0.010418743,-0.007278442,-0.288496912
22.61,-0.010663658,-0.007230759,-0.28791064
22.62,-0.193818033,0.042901993,0.180386484
22.63,-0.195697278,0.042410851,0.175949335
22.64,-0.050316334,0.05373764,0.326103151
22.65,0.01370576,-0.140796661,0.175161123
22.66,0.011141777,-0.141356468,0.170224845
22.67,-0.160249025,-0.045984268,0.013253808
22.68,-0.091443986,-0.003096581,0.114087522
22.69,-0.032245904,0.037412643,0.188967764
22.7,0.029010087,0.070815086,0.183231056
22.71,0.164557904,0.061246872,0.255701125
22.72,0.119941175,0.066073418,0.158950985
22.73,0.080311179,0.011175156,0.128113508
22.74,0.079241484,0.011428833,0.131483853
22.75,0.046765417,0.016273499,0.230938017
22.76,0.008752257,-0.065206528,0.295856416
22.77,0.006228298,-0.065413475,0.294877946
22.78,0.027222425,-0.024964333,0.130864263
22.79,-0.06201303,-0.037219048,0.038210094
22.8,-0.06445545,-0.037503242,0.03628993
22.81,-0.241869718,-0.001773834,0.051062465
22.82,-0.200435489,-0.004288673,-0.005828381
22.83,-0.19960019,-0.004357338,-0.00687933
22.84,-0.05256483,0.002754211,0.281418026
22.85,-0.051933825,0.00259304,0.279226661
22.86,0.024918824,0.059900284,0.373014987
22.87,0.054005206,0.064457893,0.394244939
22.88,0.051534086,0.064196587,0.32889235
22.89,0.050860137,0.063855171,0.325378776
22.9,0.068688929,0.063433647,0.278020084
22.91,-0.066820472,0.062851906,0.226619959
22.92,-0.137329996,0.06240654,0.250744045
22.93,-0.190590918,0.057094574,0.472343206
22.94,-0.190704018,0.056469917,0.464787126
22.95,-0.107360333,0.024722099,0.517563105
22.96,-0.149612606,0.055279732,0.419036806
22.97,-0.147965431,0.054850578,0.41298759
22.98,-0.219431371,-0.043457031,0.193984032
22.99,-0.170579732,-0.060288429,0.059635818
23,-0.167556882,-0.060323715,0.057405293
23.01,-0.160215408,-0.139340401,-0.070975959
23.02,-0.258208603,0.023441315,0.14985913
23.03,-0.025010377,0.095176697,0.493726462
23.04,-0.022982091,0.095056534,0.49102363
23.05,0.18193236,0.138100624,0.70018661
23.06,-0.007744431,0.056686401,0.074109435
23.07,0.007686794,-0.072458267,0.094305873
23.08,-0.025485545,-0.002959251,0.320032328
23.09,0.104863316,-0.084417343,-0.011613846
23.1,0.104639739,-0.084245682,-0.009326041
23.11,0.087045968,-0.062648773,-0.005892515
23.12,0.084931165,-0.005372047,0.261252701
23.13,-0.073166579,-0.008079529,0.38330701
23.14,-0.090485245,-0.001283646,0.164719641
23.15,-0.134222448,0.015211105,-0.061946094
23.16,-0.095630199,0.039051056,-0.061873615
23.17,-0.096686155,0.039106369,-0.06042403
23.18,0.017956138,-0.03487587,0.071940839
23.19,-0.010078698,0.049229622,0.233415723
23.2,0.190049827,-0.041353226,0.235012531
23.21,0.217638627,0.002222061,0.120747745
23.22,0.006064981,0.038682938,0.047703445
23.23,-0.047290683,0.020106316,-0.094808102
23.24,-0.005244195,0.042237282,0.002406538
23.25,-0.004751444,0.042689323,0.007718086
23.26,0.004038304,0.016805649,-0.070062697
23.27,-0.026043504,0.122436523,-0.015889466
23.28,-0.063613027,0.062803268,0.054843307
23.29,-0.152894735,-0.015912056,0.070702851
23.3,-0.267360747,-0.070624352,0.103544533
23.31,-0.20132184,-0.137206078,0.170148015
23.32,-0.254460365,-0.189455986,0.262750089
23.33,-0.208597451,-0.198607445,0.088809669
23.34,-0.205430806,-0.198235512,0.091534734
23.35,-0.281030893,-0.075777054,-0.054876149
23.36,-0.210997015,0.065672874,-0.02337712
23.37,-0.1248689,0.080004692,0.032472253
23.38,-0.153687984,0.079931259,0.10687542
23.39,0.009258837,0.168482781,0.219901502
23.4,-0.000743896,0.137310028,0.297213972
23.41,-0.065420061,0.082298279,0.262939513
23.42,-0.055218756,-0.018090248,0.311045945
23.43,0.035677671,-0.130439758,0.249516666
23.44,0.106635779,-0.214127541,0.146959186
23.45,0.10682109,-0.214111328,0.147058547
23.46,0.068017572,-0.159229279,0.162032783
23.47,0.019503146,-0.032708168,0.330414236
23.48,0.017717451,-0.033131599,0.326428354
23.49,-0.051537037,-0.114936829,0.050262094
23.5,-0.151599616,-0.129683495,-0.094662726
23.51,-0.093288541,0.01119709,-0.045411646
23.52,0.016962141,-0.017938614,0.116301358
23.53,0.013942212,-0.01834774,0.113142014
23.54,0.165039182,-0.112181664,0.323521495
23.55,0.094852209,-0.141482353,0.28411895
23.56,0.101604372,-0.149232864,0.184553206
23.57,0.05596745,-0.032524109,0.139288366
23.58,0.035094827,0.06022644,-0.126936615
23.59,0.031015456,0.05977726,-0.130061448
23.6,0.062202841,0.104793549,0.103732884
23.61,-0.12029469,0.154614449,0.263931334
23.62,-0.125401378,0.154111862,0.260463953
23.63,-0.156796843,0.036208153,0.172164142
23.64,-0.161996752,0.035582542,0.167203307
23.65,-0.163878262,-0.067858696,0.04362005
23.66,-0.09152326,-0.113669395,0.02629143
23.67,-0.121587306,-0.042139053,0.195716858
23.68,-0.059562355,-0.056764603,0.307366371
23.69,-0.059524924,-0.057017326,0.30404222
23.7,0.100016147,-0.069426537,0.605434001
23.71,0.003462195,-0.040923119,0.018702269
23.72,0.002132684,-0.041082382,0.017297089
23.73,-0.035610408,0.054487228,-0.151791513
23.74,-0.083009541,0.066236496,-0.057884574
23.75,-0.173423111,0.159373283,0.17206645
23.76,-0.122040898,0.15436554,0.234660745
23.77,-0.130218536,0.13511467,0.068761408
23.78,-0.152484834,0.118354797,0.066719532
23.79,-0.123665571,0.053724289,0.107620418
23.8,-0.097387016,-0.01330471,0.107635617
23.81,-0.097299635,-0.013343811,0.107069194
23.82,-0.094769984,-0.087650299,0.134671211
23.83,0.003700972,-0.083022118,0.163537622
23.84,-0.03648442,-0.111871719,0.135434747
23.85,-0.035793781,-0.11193943,0.133964717
23.86,-0.111773133,-0.131153107,0.164009452
23.87,0.017030776,-0.133576393,0.094393075
23.88,-0.01676324,-0.112166405,0.155074239
23.89,0.028139949,-0.15542984,0.205696583
23.9,-0.061102867,-0.12214756,0.279731005
23.91,0.069963545,-0.086523056,0.242478967
23.92,0.06833595,-0.086901665,0.238456309
23.93,0.092985153,-0.041727066,0.265996426
23.94,0.091199726,-0.042100906,0.262043864
23.95,-0.030213237,-0.025726318,0.317518592
23.96,-0.032086313,-0.026105881,0.313288987
23.97,-0.008034199,-0.122263908,0.146535099
23.98,-0.168459892,-0.096333504,-0.020745397
23.99,-0.268799871,0.008616447,-0.030010819
24,-0.270246565,0.008084297,-0.036682606
24.01,-0.185202688,0.031484604,0.075883091
24.02,-0.234853178,-0.033717155,0.222129852
24.03,0.007390112,-0.072662354,0.845760405
24.04,0.146181539,-0.119072914,0.701799154
24.05,-0.08575061,-0.08399868,0.367169738
24.06,-0.081978917,-0.014997482,0.134510309
24.07,-0.068351269,-0.032002449,-0.172250152
24.08,-0.067707151,-0.032085419,-0.17378509
24.09,-0.114132166,0.044335365,0.400802374
24.1,-0.017110497,0.00804615,0.429022342
24.11,-0.109424472,-0.064156532,0.060144603
24.12,-0.222469747,-0.078734398,0.013732195
24.13,-0.222406924,-0.078989029,0.009710133
24.14,-0.095878929,-0.067280769,0.072755814
24.15,-0.046041638,-0.053060532,0.022611141
24.16,-0.040895671,-0.000386238,-0.056494057
24.17,-0.033155173,0.004444122,0.185514718
24.18,0.018017143,-0.019459724,0.21914801
24.19,0.019058168,-0.019302368,0.220999211
24.2,0.005990177,-0.035749435,-0.069406092
24.21,-0.083152771,-0.047370911,-0.198752642
24.22,-0.122078508,-0.082959175,-0.189811707
24.23,-0.048279256,-0.01556778,-0.176062882
24.24,-0.188199401,0.044535637,0.097631991
24.25,-0.069021463,0.044708252,-0.003609121
24.26,-0.067339212,0.045036316,0.000328779
24.27,-0.179282188,0.01197052,-0.257825732
24.28,-0.24475041,-0.066495895,-0.476873517
24.29,-0.240324706,-0.065810204,-0.469337225
24.3,-0.142727763,-0.132249832,-0.355265617
24.31,-0.138426572,-0.201242447,-0.181530595
24.32,-0.103586316,-0.11950016,-0.22173065
24.33,-0.093314052,-0.085699081,-0.322515905
24.34,-0.160173744,-0.123685837,-0.285956562
24.35,-0.105008513,-0.142519951,-0.397672653
24.36,-0.103040725,-0.142107964,-0.392857373
24.37,-0.098620445,-0.139248848,-0.392270744
24.38,-0.077418983,-0.081276894,-0.228237331
24.39,-0.075893372,-0.080899239,-0.223785043
24.4,-0.064812303,-0.080576897,-0.220094979
24.41,-0.204847038,-0.123373032,-0.223836064
24.42,-0.153142184,-0.151813507,-0.208502531
24.43,-0.152253419,-0.151583672,-0.206035852
24.44,-0.201647669,-0.122639656,-0.440761387
24.45,-0.172065884,-0.148734093,-0.433030367
24.46,-0.281419545,-0.165307045,-0.351770639
24.47,-0.425310791,-0.150714874,-0.534469783
24.48,-0.344173849,-0.126270294,-0.600004375
24.49,-0.324106813,-0.080093384,-0.60854876
24.5,-0.228937507,-0.103145599,-0.085880458
24.51,-0.34594968,-0.210371018,0.111760497
24.52,-0.197483182,-0.312977791,0.084541976
24.53,-0.145828933,-0.351016998,-0.024506927
24.54,-0.216010094,-0.326813698,-0.600728095
24.55,-0.330480665,-0.314328194,-0.841494203
24.56,-0.151447743,-0.224990845,-0.385762096
24.57,-0.142153978,-0.128815651,0.131142199
24.58,-0.26919359,-0.145539284,0.2546736
24.59,-0.236066878,-0.229395866,-0.207172334
24.6,-0.322556317,-0.368225098,-0.480983555
24.61,-0.307197332,-0.423165321,-0.503273845
24.62,-0.350904942,-0.420617104,-0.527968228
24.63,-0.344920039,-0.420243263,-0.527344585
24.64,-0.39014554,-0.345609665,-0.328418136
24.65,-0.407504916,-0.287652969,-0.261250973
24.66,-0.519289374,-0.167285919,-0.286600769
24.67,-0.456948221,-0.156831741,-0.362986207
24.68,-0.444199503,-0.158198357,-0.426103652
24.69,-0.464402199,-0.262444496,-0.290357947
24.7,-0.426574767,-0.369139671,-0.182319284
24.71,-0.413102984,-0.368290901,-0.182122886
24.72,-0.407023013,-0.647744179,-0.248898864
24.73,-0.419888318,-0.752531052,-0.221703589
24.74,-0.52338177,-0.756848335,-0.242017984
24.75,-0.508215487,-0.75630188,-0.248547673
24.76,-0.849620581,-1.004498482,-0.486337662
24.77,-0.84599942,-1.204311371,-0.739587069
24.78,-0.759455323,-1.389237404,-0.844572663
24.79,-0.599464834,-1.432324409,-0.590125442
24.8,-0.451151371,-1.372375488,-0.43454963
24.81,-0.230960488,-1.27684021,-0.478100002
24.82,-0.231564283,-1.279313087,-0.511764407
24.83,0.109386742,-1.248490334,-0.675843716
24.84,0.439543307,-1.349939346,-0.828642368
24.85,0.643555701,-1.44940567,-0.789373994
24.86,0.701819897,-1.566016197,-0.663326621
24.87,1.151383162,-1.604056358,-0.520228505
24.88,1.823656559,-1.692797661,-0.384438247
24.89,1.782804966,-1.698239326,-0.448091507
24.9,1.777889013,-1.711165428,-0.028455019
24.91,1.487938762,-1.637487411,0.041363835
24.92,1.305574059,-1.632496834,-0.665420294
24.93,0.853105903,-1.478100777,-1.660255551
24.94,0.586882472,-1.274622917,-2.261950493
24.95,0.262924463,-0.876003265,-2.348585129
24.96,0.196209759,-0.875857353,-2.441085577
24.97,-0.429838896,-0.151367188,-2.602470398
24.98,-0.081331193,-0.014648438,-2.039240837
24.99,0.121659979,0.058608055,-0.741573274
25,0.064209364,0.063800812,-0.832724214
25.01,0.254404694,0.072218895,-0.15822643
25.02,-0.041749768,0.031043053,-0.791750968
25.03,-0.06345176,-0.303528786,-0.689817488
25.04,0.108455479,-0.425820351,-1.027511001
25.05,0.09119463,-0.635102272,-1.532209635
25.06,0.073913664,-0.559913635,-1.470499516
25.07,0.017762393,-0.37347889,-1.194677472
25.08,0.177783251,0.017033577,-0.659273505
25.09,0.158635527,0.431823731,-0.100697398
25.1,0.115178078,0.45608902,-0.233911634
25.11,-0.150476962,1.327062607,0.744054675
25.12,0.043390751,1.740771294,0.673329353
25.13,0.029235065,1.763957977,0.565652847
25.14,0.525118291,2.296362877,0.595646858
25.15,0.950734675,2.378503799,0.643167257
25.16,1.222448587,2.348680496,0.345994949
25.17,1.203636289,2.372426033,0.255761147
25.18,0.53605336,2.705526352,0.275009155
25.19,0.522963822,2.730158806,0.187111855
25.2,-0.921421766,3.189352989,-0.675838947
25.21,-0.921505094,3.211275101,-0.751632452
25.22,-1.849495053,3.517004013,-1.385014176
25.23,-1.843620539,3.537116051,-1.45213449
25.24,-1.883639336,3.571770668,-0.840967894
25.25,-1.267214417,2.420969963,0.77772212
25.26,-1.316170335,1.265542984,1.898918629
25.27,-1.302399874,1.286307335,1.834596395
25.28,-1.313858628,0.0289011,2.783625603
25.29,-0.998633623,-3.873958111,3.66713047
25.3,-1.818288565,-4.58869648,4.472822189
25.31,-1.830837965,-4.664571285,4.798206806
25.32,-1.071380615,-3.631604195,4.083812237
25.33,-0.662805617,-1.08398819,3.84266758
25.34,-0.029727608,1.092759132,3.096358776
25.35,0.454950839,3.513853073,2.590582371
25.36,0.463137627,3.553201675,2.498100996
25.37,-0.51179862,7.952424049,2.960543871
25.38,-0.462800473,7.979995728,2.89434433
25.39,-1.381998897,9.78767395,4.490369797
25.4,-2.525502682,13.33149529,5.331582069
25.41,-2.882507563,14.08248901,3.561655045
25.42,-3.505713224,14.8552351,1.680518627
25.43,-2.504491806,12.78077221,1.084921837
25.44,-2.04142499,10.70863914,0.41268301
25.45,-0.554303646,7.776515961,0.773101807
25.46,0.36813423,5.501631737,1.230587959
25.47,0.347538292,5.480781555,1.276254177
25.48,1.974261165,0.994803429,2.803674221
25.49,3.15705204,-1.263602257,3.115680695
25.5,3.102472782,-1.299939156,3.201552629
25.51,2.779668331,-5.614321709,-0.397805452
25.52,1.041152596,-7.732549191,-2.794122458
25.53,-0.560978949,-9.55085659,-3.737746
25.54,-1.351424813,-11.0431366,-3.593571424
25.55,-1.396558404,-11.07356739,-3.505344868
25.56,-1.155305624,-12.21899414,-2.487682343
25.57,-0.938057661,-13.56710815,-2.463514328
25.58,-0.984591603,-14.15767479,-3.199439049
25.59,-0.738775849,-14.33127308,-4.442781448
25.6,-0.25732708,-13.84716225,-5.381841183
25.61,0.478440583,-13.0293417,-6.410050392
25.62,1.29766953,-12.16543007,-6.236367226
25.63,2.144071817,-10.77476597,-5.138284683
25.64,3.528213024,-8.551581383,-5.182173252
25.65,3.47110796,-8.523230553,-5.246728897
25.66,3.360321045,-5.321203709,-4.309406281
25.67,4.600729942,-2.474478245,-4.304737568
25.68,6.074097633,0.690711975,-4.672370911
25.69,7.657750607,8.562140465,0.663544416
25.7,7.561695099,8.56049633,0.703327656
25.71,1.877393961,13.94376373,8.87305069
25.72,-0.68368572,14.37823868,9.652490616
25.73,-0.303431213,13.2175312,8.150666237
25.74,-1.075320244,11.15583611,4.162248611
25.75,-1.002480984,11.13103676,4.206465721
25.76,-1.549081683,8.103355408,-2.57188201
25.77,-1.960255861,7.844460487,-1.2752316
25.78,-2.261314154,7.865525246,-0.393574715
25.79,-1.865122914,8.306814194,1.841307402
25.8,-1.985292912,7.313494682,4.71773243
25.81,-1.913835287,7.332166672,4.652843475
25.82,-1.422427416,1.897651672,6.481168747
25.83,-1.383380771,1.899299622,6.470972061
25.84,-0.607665181,-9.549230576,8.768032074
25.85,-2.591640949,-13.20695114,2.165798664
25.86,-5.210577965,-14.46508217,-6.934409142
25.87,-6.600515366,-14.01954651,-12.19293404
25.88,-4.884656906,-12.16582108,-10.28171921
25.89,-5.045251846,-12.47584248,-4.799458504
25.9,-6.650332451,-11.88891411,0.320111036
25.91,-6.664671421,-11.84856796,0.209326267
25.92,-6.111373425,-11.29935932,2.861742973
25.93,-1.951340318,-9.618796349,0.674286366
25.94,-1.974853873,-9.589125633,0.602365494
25.95,-2.067169905,-7.745776653,0.353621244
25.96,-1.119969964,-5.47399044,-0.680815458
25.97,0.763724446,-1.773179054,-2.272466183
25.98,2.637765884,2.121818542,-0.399332285
25.99,2.23901701,9.512411118,5.004348755
26,2.238072157,9.545386314,4.926961899
26.01,1.584852219,10.82339191,9.23731041
26.02,-0.547052562,12.10996246,18.97628403
26.03,-3.48077631,12.43440056,17.95573425
26.04,-3.442979813,12.42681599,17.96823883
26.05,-9.355066299,14.45739555,-1.253287077
26.06,-7.635364532,13.46270084,-4.389147758
26.07,-4.787043571,11.92687893,-0.998506784
26.08,-4.780776978,11.91271877,-0.965320587
26.09,0.786477745,6.730946541,5.193318367
26.1,3.004488707,3.904108047,5.65433979
26.11,4.145948887,1.985871315,4.241184235
26.12,3.555971622,-0.027579308,3.119723558
26.13,2.423833847,-2.235643864,3.162193298
26.14,2.394624472,-2.266538143,3.243554115
26.15,2.430912971,-7.175761223,1.401991367
26.16,3.302653313,-9.939549446,-0.038610458
26.17,3.245127201,-9.971564293,0.058326721
26.18,3.698908091,-12.47920036,-2.14826107
26.19,1.239403009,-14.58939743,-6.685985565
26.2,1.202832103,-14.61829376,-6.590439796
26.21,1.163387537,-14.701231,-7.937242508
26.22,1.834691763,-14.21061325,-3.515868902
26.23,1.206295133,-12.88716412,1.331449747
26.24,0.143718422,-11.13702202,2.941701412
26.25,0.044553161,-11.09281063,2.84698844
26.26,-3.498668909,-8.858694077,-1.845155001
26.27,-4.400751591,-7.993861198,-6.599056721
26.28,-4.430260181,-8.01111412,-6.539001465
26.29,-5.092344761,-5.945756435,-10.54221725
26.3,1.249611735,2.540951729,-4.612305641
26.31,8.660360336,3.322538376,-1.08246088
26.32,13.61161709,4.554627419,2.034960985
26.33,13.43732834,4.593716621,2.011561394
26.34,9.133688927,8.445492744,13.14066696
26.35,3.190523386,10.56636524,14.64360046
26.36,0.34649992,12.90608215,11.85450935
26.37,1.199286938,13.89146233,9.767286301
26.38,-0.499603152,14.81783962,5.646479607
26.39,-3.154690742,15.75285339,1.934841394
26.4,-3.0373106,15.72061539,1.969466686
26.41,-2.433977604,13.81647491,2.556425095
26.42,-1.151721597,11.03978825,6.223098755
26.43,-0.299211443,6.985364914,8.649487495
26.44,0.025567651,3.903466225,8.122549057
26.45,-0.46842885,-0.374298096,7.843062401
26.46,0.530766845,-5.090804577,5.528561115
26.47,-0.257508636,-8.392645836,1.713504076
26.48,-2.947574615,-10.5383625,-1.938328505
26.49,-4.961304665,-11.70656967,-4.724948883
26.5,-5.385472298,-12.24545479,-6.350765228
26.51,-4.462358475,-12.94831467,-5.52793932
26.52,-3.677135944,-13.37583828,-2.997403383
26.53,-3.663786411,-13.38851357,-2.951017857
26.54,-4.555263519,-14.65331745,0.222851038
26.55,-4.561825752,-14.6482563,0.204393148
26.56,-4.591067791,-14.72360229,-1.284433007
26.57,-4.550604343,-14.27197742,-1.623270988
26.58,-3.310547829,-12.75760651,-2.307222843
26.59,-2.607693911,-10.42494678,-2.640844107
26.6,-2.338484287,-8.052541733,-2.587012529
26.61,-2.326386929,-8.044187546,-2.619822741
26.62,-1.719675541,-1.621324062,-0.031391144
26.63,1.864768982,1.580834389,3.453138351
26.64,4.194387436,4.072651863,6.328787327
26.65,2.750001192,8.627423286,6.44190979
26.66,2.787971735,8.651960373,6.355340958
26.67,-3.327428579,17.60614204,5.469624043
26.68,-2.978029251,20.10199738,13.22278595
26.69,-3.263786316,20.89281654,18.26768112
26.7,-4.441023827,20.55986023,13.40714455
26.71,-7.246855736,19.18367767,2.205250025
26.72,-7.470049381,15.21042442,-3.859649897
26.73,-4.477751732,10.02382374,-2.137660265
26.74,-4.517271519,10.0115366,-2.095624924
26.75,-0.050950959,1.70232296,2.215974331
26.76,1.493069649,-1.342690468,3.92794466
26.77,2.843514919,-3.264606476,5.803431511
26.78,2.79864049,-3.27517128,5.844978333
26.79,4.253223896,-4.829167366,5.463188648
26.8,3.0929389,-7.378234386,1.118041992
26.81,1.588970065,-9.185670853,-1.934509516
26.82,0.339088261,-11.0988884,-3.297771931
26.83,0.329578102,-11.11744308,-3.224775314
26.84,-1.124348879,-13.54557991,-3.476287842
26.85,-1.135944843,-13.56211662,-3.407367945
26.86,-0.420106411,-15.84532356,-2.026361227
26.87,0.079862416,-16.32386971,-1.645471096
26.88,1.571259499,-16.72659111,-2.534953833
26.89,2.026197433,-15.53460121,-3.639803886
26.9,0.876059234,-13.2389822,-3.931334019
26.91,-0.543984771,-9.928999901,-5.067806244
26.92,-0.926604986,-7.096353054,-6.684425354
26.93,-0.232752502,-4.900723934,-7.084033489
26.94,1.553103209,-2.340293884,-6.173275948
26.95,7.229212284,3.57365799,-0.545869589
26.96,11.98350716,7.078019142,4.846647263
26.97,11.24711323,10.02745724,5.434464931
26.98,6.723127365,11.3840847,5.440227985
26.99,6.628996849,11.40185642,5.438462257
27,-2.350188971,14.79486942,10.44282913
27.01,-0.983893812,16.05567169,10.17356586
27.02,0.139579773,16.0410347,4.788618088
27.03,-1.58621192,16.31728363,0.01179719
27.04,-1.512774587,16.30008888,0.029900551
27.05,-2.495087862,16.14458084,-1.136949658
27.06,-1.850495338,12.23414612,5.090011597
27.07,-1.864112973,9.354381561,9.122741699
27.08,-1.834247947,9.361570358,9.080173492
27.09,0.186480999,2.447727203,9.512481689
27.1,0.220325708,2.424008369,9.583604813
27.11,-0.820389748,-5.13766861,4.578916073
27.12,-3.707795382,-8.835144997,-0.367669463
27.13,-5.298028946,-11.20663166,-3.067332029
27.14,-4.652629852,-13.63014889,-4.797468185
27.15,-3.473588228,-14.81688499,-5.992486954
27.16,-3.422572613,-15.04222679,-6.056921959
27.17,-4.350820065,-14.65228271,-3.693613291
27.18,-3.722791672,-13.68563271,-1.274386764
27.19,-4.090363503,-13.57569313,2.377903461
27.2,-4.285182953,-12.85093689,3.159572124
27.21,-4.307578087,-12.83518696,3.084798336
27.22,-4.790122032,-12.53647614,-0.70207715
27.23,-4.810572624,-12.52599621,-0.745954633
27.24,-2.916166067,-10.10252762,-2.258675098
27.25,-2.740893841,-8.067569733,-1.636481881
27.26,-2.390276194,-5.208648205,-1.060141325
27.27,-0.00940764,-1.518296242,0.608443499
27.28,3.966542721,3.458247185,3.636263609
27.29,3.132873535,7.357818604,2.87125659
27.3,0.619001448,12.75614738,2.839105606
27.31,-0.786928475,16.8692131,9.206605911
27.32,-1.354408264,17.81191254,19.39076996
27.33,-4.161286354,17.71831322,20.53144264
27.34,-7.259856224,17.61601639,10.12161636
27.35,-9.204256058,17.30267334,-1.125032187
27.36,-9.180720329,17.2812252,-1.047996521
27.37,-5.986588478,12.03331757,-4.282625198
27.38,-6.008812428,12.03157234,-4.268579006
27.39,0.490153968,4.621393204,1.568334103
27.4,-0.335945487,3.366152763,3.340127468
27.41,-0.927599907,1.744586945,3.90941
27.42,0.298591197,-0.289297104,4.407582283
27.43,1.812385678,-2.162111282,5.008842468
27.44,1.754269361,-2.160093307,5.023424149
27.45,2.933766365,-4.107422829,4.276439667
27.46,1.753311992,-8.559661865,0.578098774
27.47,1.212904572,-11.05704498,-1.31817019
27.48,1.628177166,-13.39053535,-2.522959709
27.49,1.682021976,-14.72762012,-3.507101536
27.5,1.814614415,-15.26903343,-4.272701263
27.51,1.761723995,-15.27589798,-4.211919785
27.52,2.082376003,-15.68386936,-3.935771227
27.53,1.698464274,-14.68492222,-1.089615822
27.54,1.616917372,-14.66032124,-1.140659571
27.55,-1.414469123,-10.42879963,-0.917061329
27.56,-3.593352079,-8.650052071,-2.304381847
27.57,-4.522844315,-7.323045731,-5.206319809
27.58,-3.606474876,-5.757612228,-8.479086876
27.59,-0.943751097,-1.744514465,-7.616057396
27.6,5.432650566,2.206510544,-0.034758091
27.61,10.79334354,5.067274094,4.704371929
27.62,11.21292496,8.095973969,1.450195789
27.63,11.09274864,8.124311447,1.437035561
27.64,9.834421158,10.46342373,1.216520786
27.65,0.999902725,16.13230515,10.97396278
27.66,-2.636381149,19.56053162,10.9571867
27.67,-3.584785461,21.08317184,7.55372715
27.68,-3.990787983,19.83974457,2.793274403
27.69,-1.801623821,16.57821274,1.695198536
27.7,-1.039983273,13.93890953,3.75982523
27.71,-0.28903544,10.20533371,5.64584446
27.72,0.284336329,6.430381775,6.581184387
27.73,-0.230364561,3.427014351,6.44379282
27.74,-1.31901145,0.028983116,7.00325346
27.75,-1.248329043,-0.005123138,7.095832348
27.76,-3.125003576,-6.519099236,4.566548347
27.77,-3.054112196,-6.566688538,4.734541416
27.78,-3.941359043,-12.74919128,-2.555604696
27.79,-3.754663229,-13.86875725,-5.034667969
27.8,-3.461004496,-13.82887459,-6.84089613
27.81,-3.381912708,-13.85055351,-6.759198189
27.82,-4.340668678,-13.53499413,-4.219429016
27.83,-4.574792862,-13.131217,-0.711090446
27.84,-6.061102867,-13.89170074,2.9468503
27.85,-6.959108353,-14.01647758,4.06003952
27.86,-6.74133873,-13.89655495,1.903796554
27.87,-5.652060032,-13.37371826,-1.621727824
27.88,-4.631229401,-12.10394669,-2.704014778
27.89,-4.638393879,-12.09487915,-2.743140459
27.9,-3.818888187,-10.11600971,-1.620751858
27.91,-4.348117828,-4.230529308,-0.303665996
27.92,-3.477892876,1.159502983,1.633507729
27.93,1.941293716,7.098733902,4.99518013
27.94,3.617463589,9.589074135,7.53127861
27.95,3.63602972,9.617794991,7.405234337
27.96,-0.862598896,16.89350128,9.377619743
27.97,0.428825975,15.80600739,15.67418003
27.98,-0.511587083,16.25618172,17.45366669
27.99,-0.501280487,16.27329445,17.39332581
28,-4.66189003,17.13029099,11.79533291
28.01,-8.055438995,17.72400284,1.8686409
28.02,-7.546466351,15.62321472,-3.498954535
28.03,-4.992639542,11.97174835,-3.461924076
28.04,-0.759168565,4.882493973,0.553067923
28.05,-0.53066951,2.254062653,2.053888798
28.06,-1.369573355,0.398256302,3.328422785
28.07,-1.359121442,-1.640271187,4.589365005
