Time (s),Linear Acceleration x (m/s^2),Linear Acceleration y (m/s^2),Linear Acceleration z (m/s^2)
0,-0.010554492,-0.117349625,0.233448327
0.01,0.093513191,-0.088693619,0.423424959
0.02,0.092421308,-0.088738441,0.422601402
0.03,-0.134616584,0.023869514,-0.001343161
0.04,-0.152538881,0.024044037,0.063869089
0.05,-0.054976344,-0.021194458,0.116317868
0.06,-0.01245667,-0.037646294,0.112917349
0.07,0.111091599,-0.054073334,-0.057280451
0.08,0.06115289,-0.020207405,0.067929387
0.09,0.025026873,0.02553463,0.164564103
0.1,-0.078497723,0.025726318,0.165581614
0.11,-0.05280076,0.021077156,0.292210907
0.12,0.006148949,0.011566162,0.294572383
0.13,-0.164804637,-0.041068077,0.233779609
0.14,-0.248077616,-0.0649786,0.043415457
0.15,-0.177455291,-0.084043503,-0.101094544
0.16,-0.176900581,-0.083963394,-0.099107176
0.17,-0.219143555,-0.019325256,0.014858246
0.18,-0.141626015,-0.009776115,0.183422014
0.19,0.067500368,0.026137352,0.249946147
0.2,-0.074765846,0.026148796,0.350095958
0.21,0.083415508,-0.009714127,0.296823353
0.22,0.218549669,-0.033588409,0.127934009
0.23,0.27346164,-0.134092331,0.019555032
0.24,0.272877991,-0.134031296,0.021448314
0.25,-0.07166554,-0.112415314,-0.268693924
0.26,-0.154086843,-0.035703659,-0.252696842
0.27,-0.181117207,-0.071579933,-0.027540326
0.28,-0.117297694,0.02649498,0.664681673
0.29,-0.119689256,0.026267052,0.660365522
0.3,0.035286352,-0.086449623,0.934653878
0.31,-0.076890007,-0.076893806,0.236532196
0.32,-0.238497064,-0.07683754,-0.091845363
0.33,0.142653018,0.002138138,-0.172563314
0.34,0.138964951,0.002102852,-0.171618134
0.35,0.091845036,0.085803986,0.311982691
0.36,0.075312644,0.128630638,0.839079261
0.37,0.070100755,0.128278732,0.832202971
0.38,-0.035441831,0.00347805,0.283215702
0.39,-0.205251649,-0.025420189,0.113425091
0.4,-0.108192816,-0.056676865,0.034943104
0.41,-0.112039849,-0.056825638,0.03327018
0.42,-0.000770837,-0.064105988,0.151843518
0.43,-0.034889162,-0.023487091,0.273616582
0.44,-0.0372857,-0.02353096,0.273755699
0.45,-0.069966972,0.031607628,0.173645601
0.46,0.048676193,0.048470497,0.146301284
0.47,0.048142821,0.048628807,0.151031241
0.48,0.041341111,0.027277946,0.115652397
0.49,-0.003612638,0.025071144,0.085214108
0.5,-0.017494589,0.025267601,0.013837546
0.51,-0.06776531,-0.022455215,0.013415962
0.52,-0.097082868,-0.058236122,0.167827845
0.53,-0.107736081,-0.122797966,0.173206702
0.54,-0.109055921,-0.122731209,0.175453022
0.55,-0.139027894,-0.096348763,0.139157116
0.56,-0.174169183,-0.158557892,0.145975143
0.57,-0.175828651,-0.158655167,0.144533128
0.58,-0.115255073,-0.070220947,0.318062037
0.59,-0.133882552,-0.003358841,0.196861938
0.6,-0.207096115,0.025243759,0.060319364
0.61,-0.202990875,0.025197029,0.097271681
0.62,-0.129195333,0.025164604,0.173207492
0.63,0.121330224,0.025152206,0.238266751
0.64,0.114557527,0.025167465,0.298882335
0.65,0.101107895,0.025164604,0.220788956
0.66,-0.043719694,0.015593529,0.176392555
0.67,-0.219431132,-0.001134872,0.055303365
0.68,-0.219612047,-0.00108242,0.05682838
0.69,-0.138757318,0.027762413,-0.183754265
0.7,-0.105726734,0.025496483,-0.132641047
0.71,0.106123976,-0.115761757,0.835059822
0.72,0.007971346,-0.144676209,0.402900934
0.73,-0.180737317,-0.159130096,-0.084310561
0.74,-0.197941482,-0.094406128,-0.020024717
0.75,-0.004393339,-0.101595879,0.277052999
0.76,0.006695405,-0.101654053,-0.08816272
0.77,-0.116942301,-0.017873764,-0.042583823
0.78,-0.080538571,0.025097847,0.381228626
0.79,-0.082817331,0.024847031,0.375168294
0.8,-0.080131009,0.03183651,0.29144305
0.81,-0.081430703,0.031726837,0.289442241
0.82,-0.070613474,0.024537086,0.057149649
0.83,0.031114027,-0.001852989,0.19324103
0.84,-0.045164555,-0.021053314,0.259333819
0.85,-0.02060768,-0.047435761,0.23230353
0.86,0.082814984,-0.016355515,0.186511874
0.87,-0.178287163,0.026720047,0.24702692
0.88,-0.245944992,0.014777184,0.295896769
0.89,-0.025602713,-0.02348423,0.138939604
0.9,-0.107827261,0.022062302,0.085923523
0.91,-0.074382827,0.010134697,0.159175679
0.92,0.05206424,-0.042531967,0.219138339
0.93,0.04153233,-0.006640434,0.240599737
0.94,0.0357875,0.005310059,0.304746568
0.95,-0.101451889,0.021986008,0.303245515
0.96,-0.098941877,-0.011561394,0.179913521
0.97,-0.134317651,-0.009139061,0.080209106
0.98,-0.248243913,-0.049781799,0.165102959
0.99,-0.246648163,-0.049746513,0.165512115
1,-0.13547574,-0.109525681,-0.038668841
1.01,-0.099009529,-0.102272987,-0.082535088
1.02,-0.096848771,0.024637222,0.286605835
1.03,0.004567087,0.024608612,0.307137847
1.04,-0.117010459,0.055733681,0.302393705
1.05,-0.079850152,0.024680138,0.274788797
1.06,-0.023588821,-0.020716667,0.092662483
1.07,0.005494639,-0.104366303,-0.009094298
1.08,-0.002272114,-0.188070297,-0.207035929
1.09,-0.035042241,-0.211948395,-0.125990123
1.1,-0.087421313,-0.073163033,0.004628241
1.11,-0.14660123,0.094310761,0.133801654
1.12,-0.146873906,0.094244003,0.131772205
1.13,-0.079114974,0.063080788,0.324218512
1.14,-0.040621579,0.027207375,0.313441902
1.15,-0.222226098,0.020101547,-0.227903366
1.16,-0.199886754,0.025081635,-0.161047339
1.17,-0.12951757,0.04196167,0.167214319
1.18,0.111009985,0.025247574,0.244938776
1.19,0.09198001,0.046852112,0.134010062
1.2,0.12565738,0.11873436,0.326195598
1.21,0.077107571,0.173704147,0.496572018
1.22,0.051761962,0.099311829,0.471235275
1.23,-0.074694961,0.029705048,0.378920794
1.24,-0.130741209,0.024791718,0.284800053
1.25,-0.07142967,-0.073439598,0.158816576
1.26,-0.181675628,-0.080622673,0.137208462
1.27,-0.19241716,-0.044603348,0.153822184
1.28,-0.187858999,0.020202637,0.076135576
1.29,-0.21114862,0.085148811,-0.34580937
1.3,-0.206250623,0.085704803,-0.33322522
1.31,-0.176634476,0.115053177,-0.054400742
1.32,-0.093969926,0.082159996,-0.048686087
1.33,-0.088662475,0.082795143,-0.036262095
1.34,0.069180064,0.011534691,0.118433118
1.35,0.217578262,-0.081409454,0.223151371
1.36,0.217585862,-0.081143379,0.228916511
1.37,0.042831287,-0.169568062,0.404825479
1.38,-0.048315421,-0.179042816,0.277761668
1.39,-0.103703752,-0.212522507,0.250047445
1.4,-0.146676213,-0.250822067,0.290806234
1.41,-0.127017558,-0.317939758,0.025665462
1.42,-0.327888846,-0.27966404,0.005614609
1.43,-0.403001338,-0.169570923,-0.060523659
1.44,-0.360050619,-0.045093536,-0.190939099
1.45,-0.331678867,0.029150963,-0.107655048
1.46,-0.284015536,0.127329826,0.09043029
1.47,-0.03787148,0.306913376,0.181093574
1.48,0.03741838,0.397985458,0.385871261
1.49,0.141528383,0.366997719,0.390859067
1.5,0.104166627,0.297761917,0.409104168
1.51,0.062171802,0.144751549,0.401285231
1.52,-0.049040437,-0.010665894,0.170588315
1.53,-0.10454984,-0.070317268,0.109848112
1.54,-0.180894345,-0.096459389,0.239304274
1.55,-0.201419964,-0.153821945,0.412498713
1.56,-0.170182839,-0.271175385,0.556592464
1.57,-0.118216723,-0.35519886,0.750069499
1.58,-0.31257242,-0.410596848,0.383306652
1.59,-0.351081789,-0.250370026,0.180683166
1.6,-0.168343395,-0.202635765,-0.246422321
1.61,-0.204708949,-0.125992775,-0.434767991
1.62,-0.047712788,-0.022948265,-0.235828668
1.63,-0.047625989,-0.023101807,-0.239511758
1.64,0.070789546,0.045993805,0.297272474
1.65,0.150558516,0.220416069,0.586851955
1.66,-0.022648469,0.224986076,0.373820692
1.67,-0.147158071,0.153036118,0.371181577
1.68,-0.109988406,0.07645607,0.23503463
1.69,-0.106051564,-0.033527374,0.137095511
1.7,-0.063600883,-0.148238182,0.306329578
1.71,0.128923088,-0.27978611,0.222877681
1.72,0.226181775,-0.296433449,0.024550855
1.73,0.138179079,-0.293959618,0.051154912
1.74,0.035436347,-0.284403801,0.248096287
1.75,0.062054887,-0.176752091,0.239655599
1.76,0.059661567,-0.176885605,0.238121793
1.77,-0.329402208,0.028938293,0.129042655
1.78,-0.329850256,0.028876305,0.127585441
1.79,-0.413377166,0.064772606,-0.004311889
1.8,-0.238145918,0.131816864,0.086505145
1.81,-0.168168038,0.050410271,0.110139847
1.82,-0.231925592,0.048032761,0.081063092
1.83,-0.206079647,0.028927803,0.09820354
1.84,-0.124713823,0.036131859,0.200658768
1.85,-0.081871212,0.028940201,0.304645538
1.86,0.042215988,0.03370285,0.348488987
1.87,-0.052277818,0.028871536,0.4739739
1.88,0.002535284,-0.028656006,0.478295475
1.89,0.039841741,-0.162825584,0.315180361
1.9,0.002375349,-0.172452927,0.222387061
1.91,0.132077098,-0.234777451,0.163289547
1.92,0.226569459,-0.198949814,0.183142915
1.93,-0.005548865,-0.184729576,0.128064722
1.94,-0.190618813,-0.158528328,-0.18339318
1.95,-0.190600991,-0.158561707,-0.18421793
1.96,-0.276520491,-0.026893616,-0.242237568
1.97,-0.236186013,0.028120995,0.333769679
1.98,-0.019565478,0.001614571,0.361855745
1.99,0.140829086,0.02779007,0.887892485
2,0.138730943,0.027561188,0.883406282
2.01,-0.015045092,-0.046720505,0.211844385
2.02,0.102844879,-0.10416317,-0.098885268
2.03,0.09572956,-0.060928345,-0.172294766
2.04,0.095260188,-0.060778618,-0.16850704
2.05,-0.041114911,0.001412392,0.501881659
2.06,0.034858391,0.027558327,0.551495731
2.07,-0.078676075,-0.022918701,0.313497603
2.08,-0.116327107,0.010476112,0.079248607
2.09,-0.172060028,-0.056628227,0.17149134
2.1,0.034642577,-0.078194618,0.132273436
2.11,0.056793392,-0.090139389,0.161555931
2.12,0.077235579,-0.123581886,0.229755327
2.13,0.042256698,-0.101966858,0.333931953
2.14,-0.105020464,-0.032476425,0.164562717
2.15,-0.103340849,-0.032333374,0.1668704
2.16,-0.135058329,-0.003379822,-0.082468688
2.17,-0.17163682,-0.012742996,0.048991829
2.18,-0.093796045,0.028148651,0.07214886
2.19,-0.088051215,0.059474945,0.056982845
2.2,-0.06790714,0.071620941,0.156668395
2.21,-0.066951439,0.071791649,0.159840584
2.22,-0.094493806,0.028842926,0.145673007
2.23,-0.219851032,-0.026085854,0.059616387
2.24,-0.218209118,-0.025956154,0.062009424
2.25,-0.190802708,-0.06415844,0.049252391
2.26,-0.037349924,-0.064118385,0.234435141
2.27,-0.051656261,-0.006619453,0.278193772
2.28,0.066086993,-0.006568909,0.195354521
2.29,0.049381137,0.024643898,0.115983903
2.3,0.008872822,0.022344589,0.139586985
2.31,0.011596173,0.02961731,0.186730057
2.32,-0.126809418,0.02728653,0.309930533
2.33,-0.044306055,0.032132149,0.24640213
2.34,-0.071044326,0.022636414,0.13343218
2.35,-0.143339008,-0.037109375,0.121405214
2.36,-0.144157931,-0.037039757,0.123519987
2.37,-0.173908949,-0.12549305,-0.102719814
2.38,-0.089046881,-0.027154922,-0.196760118
2.39,0.064423516,0.020858765,-0.262119919
2.4,-0.043233424,0.028079033,-0.162268311
2.41,-0.11271818,0.015936852,0.414733857
2.42,-0.090955704,-0.005893707,0.469740927
2.43,-0.073964894,-0.022668839,0.030870855
2.44,-0.077317551,-0.087164879,-0.263335109
2.45,-0.08594422,-0.096483231,-0.332558781
2.46,0.025296643,0.001828194,0.111644536
2.47,0.017199993,0.030503273,0.521569431
2.48,0.013635293,0.030371666,0.520311534
2.49,0.039185032,-0.010442734,0.466823816
2.5,-0.187625691,-0.108559609,0.011277318
2.51,-0.167452887,-0.055826187,-0.02751103
2.52,-0.089161962,0.023251534,0.230273873
2.53,0.001166999,0.0305233,0.318748564
2.54,0.082062632,0.018712997,0.362740338
2.55,0.081325561,0.018909454,0.367035985
2.56,0.09215273,-0.083846092,0.237692401
2.57,0.091387868,-0.083521843,0.244215086
2.58,-0.136237726,-0.025718689,0.141045928
2.59,0.031905115,-0.044532776,0.18817544
2.6,0.136966765,-0.080121994,0.134567708
2.61,-0.053084031,-0.003181458,0.042958409
2.62,-0.094251975,0.021077156,0.025291085
2.63,-0.101802453,-0.007372856,-0.005369902
2.64,-0.219383195,0.033554077,0.089901149
2.65,-0.211357206,0.016990662,0.150625348
2.66,-0.102604494,-0.061864853,0.153063417
2.67,-0.101830006,-0.061772347,0.154415965
2.68,-0.07779257,-0.107261658,0.149811
2.69,-0.006111905,-0.131209374,-0.020136356
2.7,-0.081177011,-0.121589661,-0.050209224
2.71,0.004800022,-0.035300255,0.152650565
2.72,0.004474148,-0.035264015,0.153304666
2.73,0.095508315,0.041372299,0.24717474
2.74,0.114314437,0.051156998,0.193594486
2.75,-0.029319838,0.037056923,0.133494347
2.76,-0.029153258,0.037368774,0.139048487
2.77,-0.041742757,0.02573204,0.03978467
2.78,-0.0427683,0.026003838,0.044683576
2.79,-0.237459764,0.028652191,-0.194992483
2.8,-0.251826584,0.036158562,-0.036128223
2.81,-0.065601856,-0.004297256,0.051945448
2.82,0.121378169,-0.092754364,0.466786802
2.83,0.117835954,-0.092796326,0.467131078
2.84,0.054906845,-0.179113388,0.327337831
2.85,0.095399447,-0.143167496,0.151166827
2.86,0.005759135,-0.018663406,-0.085182488
2.87,-0.130862117,0.036500931,-0.335111857
2.88,-0.051623076,0.098884583,0.0980905
2.89,-0.023792818,0.122782707,0.672120273
2.9,0.034555987,0.134560585,0.674056292
2.91,-0.053301454,0.036301613,0.304651767
2.92,-0.159282014,-0.009112358,0.035485268
2.93,-0.158660665,-0.009007454,0.037154615
2.94,-0.107507333,-0.056771278,0.01479125
2.95,-0.193657428,-0.023091316,0.098166406
2.96,-0.0996124,-0.001365662,0.382690489
2.97,-0.064659655,-0.044241905,0.397078872
2.98,-0.154141724,-0.067928314,0.146104306
2.99,-0.128529355,-0.103468895,-0.059912801
3,-0.124997675,-0.102973938,-0.052986801
3.01,-0.017125919,-0.150272369,-0.133234978
3.02,-0.029414758,-0.097128868,0.139378965
3.03,-0.028457597,-0.096797943,0.144169092
3.04,0.060017169,-0.053462029,0.114425242
3.05,0.001933813,0.008978844,0.105392277
3.06,-0.171429813,0.04019165,0.179159969
3.07,-0.171729967,0.04031086,0.180876702
3.08,-0.183341876,0.040503502,-0.10130471
3.09,-0.146806985,-0.047881126,-0.014431059
3.1,-0.145869121,-0.047698975,-0.012104094
3.11,-0.075918451,-0.124242783,0.163667619
3.12,-0.09236154,-0.090755463,0.232581347
3.13,-0.067922249,-0.035763741,0.226392865
3.14,-0.108170748,0.009644508,0.265647084
3.15,-0.016410023,0.040712357,0.271680743
3.16,-0.004118338,0.040694237,0.216178656
3.17,-0.022893757,0.057518005,0.26745218
3.18,-0.125255436,0.076791763,0.156252235
3.19,-0.067053154,0.041018486,0.053016603
3.2,0.013606936,-0.01626873,0.153941929
3.21,-0.102636635,0.000584602,0.033713758
3.22,-0.105094358,0.043765068,-0.115792871
3.23,-0.085781142,0.003134727,0.021658719
3.24,0.040696323,0.034196854,0.607590854
3.25,0.068103656,-0.045108795,1.065550923
3.26,-0.174604788,-0.09819603,0.305551887
3.27,-0.31268543,-0.194012642,-0.114485443
3.28,-0.310373068,-0.19392395,-0.114053488
3.29,-0.253317624,-0.148541451,0.017844975
3.3,-0.075150236,-0.084077835,0.050733626
3.31,0.222925037,0.097662926,0.574397743
3.32,0.253904849,0.063650131,0.725773871
3.33,0.250233471,0.063123703,0.718740881
3.34,-0.071563467,0.000516891,0.019830227
3.35,-0.157211334,-0.054784775,-0.042993069
3.36,-0.115377843,0.012016296,0.1787633
3.37,-0.152210832,0.03808403,0.368628919
3.38,-0.025384411,0.052259445,0.521143079
3.39,0.06054996,0.035347939,0.432664871
3.4,0.062902436,-0.014956474,0.190337479
3.41,0.11772351,-0.04362011,-0.090878189
3.42,0.116928563,-0.043424606,-0.087827563
3.43,0.225884467,-0.079238892,-0.085619807
3.44,0.224127695,-0.052822113,0.143557131
3.45,0.171641648,-0.028951645,0.289284647
3.46,-0.024761021,0.037938118,0.385910869
3.47,-0.026651949,0.037746429,0.38350147
3.48,-0.302434564,0.092656136,0.210995674
3.49,-0.269714654,0.02089119,0.015981436
3.5,-0.349385917,-0.053153992,0.014206707
3.51,-0.349930406,-0.052997589,0.016851664
3.52,-0.324554622,-0.088756561,-0.011540115
3.53,-0.239039078,-0.069437981,-0.111692309
3.54,-0.239694625,-0.069263458,-0.108828723
3.55,-0.260967493,0.038549423,0.103006661
3.56,-0.057218552,0.038590431,0.268828303
3.57,-0.057017773,0.038676262,0.310751498
3.58,-0.12829423,0.038749695,0.290069282
3.59,-0.141054198,0.010083199,0.261969835
3.6,-0.000267565,-0.004159927,0.016729057
3.61,0.036342427,-0.015956879,0.038484395
3.62,-0.037916332,-0.020584106,0.1079458
3.63,-0.087869063,-0.063526154,0.067130804
3.64,-0.199729234,0.025273323,-0.260315061
3.65,-0.064306021,0.008816719,-0.121858716
3.66,-0.064511478,0.009019852,-0.118607044
3.67,0.232940078,-0.069955826,0.595851302
3.68,0.227010623,-0.158685684,0.594705641
3.69,-0.013547838,-0.115698814,-0.119512498
3.7,-0.199635714,-0.046062469,-0.128086567
3.71,-0.199943766,-0.045944214,-0.125965953
3.72,-0.052807763,-0.046004295,-0.093046367
3.73,-0.016745687,-0.031583786,-0.137161076
3.74,-0.084803253,0.035337448,0.465474874
3.75,-0.088668406,0.034955025,0.46077767
3.76,-0.147529095,0.041712761,0.505571663
3.77,-0.152770296,0.012739182,0.124096453
3.78,-0.12148945,0.007770538,0.088292301
3.79,-0.022356436,0.026787758,0.136764169
3.8,-0.022945344,0.026688576,0.135389388
3.81,-0.112680122,0.019407272,0.270223439
3.82,-0.074620798,0.002622604,0.288410276
3.83,-0.072766989,0.002639771,0.28823784
3.84,-0.088161185,-0.009162903,-0.04942745
3.85,-0.065779462,0.012598038,0.123596191
3.86,-0.065681264,0.012742996,0.125491202
3.87,0.074328013,-0.025505066,0.074184954
3.88,0.075242296,-0.011107445,0.197038829
3.89,0.054576516,0.04864502,0.217701763
3.9,-0.088052303,0.039001465,0.080436051
3.91,-0.251267493,0.039002419,0.126135349
3.92,-0.181904525,-0.063936234,0.0711658
3.93,-0.217952207,-0.075908661,0.085625589
3.94,-0.217801109,-0.075949669,0.084964514
3.95,-0.222582355,-0.085637093,0.212477207
3.96,-0.069728136,-0.018771172,0.214702666
3.97,-0.061191484,0.038453102,0.254476577
3.98,-0.045729771,0.038178444,0.3078475
3.99,0.012907475,0.037883759,0.327384144
4,-0.040408075,0.037707329,0.353538275
4.01,-0.066467166,0.037581444,0.282165468
4.02,-0.019944549,0.037554741,0.051365852
4.03,-0.047861889,0.03762722,-0.036084294
4.04,-0.078468412,0.023416519,0.069196463
4.05,-0.116644427,0.021053314,0.12944907
4.06,-0.108022124,-0.007716179,0.002087831
4.07,-0.044472396,0.095258713,0.03177017
4.08,-0.059604079,0.064203262,0.250637591
4.09,0.066881284,0.028336525,0.16309014
4.1,0.065559104,0.028430939,0.164756626
4.11,-0.113789886,-0.172815323,0.273675412
4.12,-0.137179703,-0.088985443,0.039041102
4.13,-0.135891706,-0.088972092,0.038905501
4.14,-0.042250857,-0.007620811,0.427750528
4.15,-0.078124136,-0.077093124,-0.102415919
4.16,-0.061434135,-0.050516129,-0.072912514
4.17,-0.055233389,0.031013489,0.235320449
4.18,-0.055730805,0.03086853,0.233063042
4.19,-0.145397991,0.037838936,0.241898745
4.2,-0.14794746,0.133446693,0.153020114
4.21,-0.078116015,0.159664154,0.170322299
4.22,-0.077492625,0.1596241,0.169438779
4.23,-0.156822637,0.075941086,0.316802383
4.24,-0.153499335,0.076118469,0.3188532
4.25,0.067877464,-0.100768089,0.22416991
4.26,0.045304179,-0.19375515,-0.041254818
4.27,-0.096842289,-0.174082756,0.042474747
4.28,-0.20214434,-0.130512238,0.213647366
4.29,-0.19808659,-0.130223274,0.216769874
4.3,0.026251823,-0.086873055,-0.033635974
4.31,0.005732104,-0.034057617,0.107007146
4.32,0.037595928,0.023428917,0.200652748
4.33,-0.17062591,0.030639648,0.212894201
4.34,-0.313192844,0.040241241,0.093399644
4.35,-0.31198436,0.040325165,0.094321489
4.36,-0.134018302,-0.060126305,-0.158153892
4.37,-0.121973887,-0.050395012,-0.000301003
4.38,-0.160306528,0.04063797,0.247165263
4.39,-0.126408503,0.047781944,0.325465024
4.4,-0.132640883,0.093322754,0.270829558
4.41,-0.09106113,0.04074192,0.25777024
4.42,0.053001583,-0.047673225,0.14991647
4.43,0.052031875,-0.047419548,0.15391314
4.44,-0.011899769,-0.087857246,0.086557686
4.45,0.000541925,-0.013422966,0.099752665
4.46,-0.00255926,-0.013296127,0.102460742
4.47,0.048728958,0.041902542,0.055302024
4.48,-0.089399725,0.010959625,0.05904907
4.49,-0.243628085,0.02073288,-0.186233521
4.5,-0.176438689,0.04496479,-0.22474283
4.51,-0.178595275,0.04521656,-0.220562637
4.52,0.04913272,-0.112721443,0.386847466
4.53,0.175323546,-0.17502594,0.643103898
4.54,-0.135049403,-0.297340393,0.542874634
4.55,-0.299616575,-0.278382301,-0.003034532
4.56,-0.213427663,-0.149116516,-0.096835911
4.57,-0.100902304,-0.134801865,-0.095137239
4.58,-0.101797789,-0.13487339,-0.095805645
4.59,0.201649755,-0.034431458,0.070773602
4.6,0.04168123,0.070487022,0.628251374
4.61,0.078990459,0.19444561,0.479700446
4.62,-0.180026025,0.244300842,0.036100984
4.63,-0.179130539,0.244312286,0.035948455
4.64,-0.334482282,0.21092701,-0.132570624
4.65,-0.266542792,0.139273644,-0.032665491
4.66,-0.238229007,0.041275978,0.474092126
4.67,-0.04825668,-0.004037857,0.336447299
4.68,-0.19343254,-0.01568985,0.097842753
4.69,-0.300638855,-0.108485222,-0.154403925
4.7,-0.32600522,-0.296961784,-0.362367034
4.71,-0.328181982,-0.377658844,-0.332828701
4.72,-0.530026972,-0.424921989,-0.196726739
4.73,-0.522691488,-0.424414635,-0.191768825
4.74,-0.584651113,-0.323330879,-0.318277121
4.75,-0.458001196,-0.159900665,-0.362217426
4.76,-0.45883435,-0.039528847,-0.271577478
4.77,-0.425934613,0.068879128,-0.077947378
4.78,-0.462492228,0.12454319,-0.067577541
4.79,-0.455383867,0.125151634,-0.061599672
4.8,-0.493233621,0.152195931,-0.148276866
4.81,-0.411822975,0.112351418,-0.302513778
4.82,-0.404222727,0.11325264,-0.293596029
4.83,-0.368034631,0.118970871,-0.26775533
4.84,-0.275252044,0.107940674,-0.196133018
4.85,-0.292901546,0.053823471,-0.117159367
4.86,-0.227057397,0.006995201,-0.123357892
4.87,-0.087300241,-0.09263134,0.000828147
4.88,-0.028852224,-0.149181366,0.012800753
4.89,-0.019050449,-0.14832592,0.117660403
4.9,0.012274086,-0.250569344,0.045864761
4.91,-0.01637283,-0.403186798,-0.105887532
4.92,-0.192639709,-0.450624466,-0.247992456
4.93,-0.188667595,-0.450346947,-0.246352017
4.94,0.084371731,-0.673107147,0.232937872
4.95,0.083848581,-0.673782349,0.225242376
4.96,0.28620407,-0.914378166,0.783006728
4.97,0.280644089,-0.916024208,0.76547724
4.98,0.350437164,-1.343911171,-0.037842631
4.99,0.344135433,-1.345604897,-0.056326091
5,0.337655127,-1.577246666,-0.189256191
5.01,0.562654972,-1.682001114,-0.164318562
5.02,0.712168813,-1.717409134,-0.092117906
5.03,0.864428163,-1.511074066,0.030041039
5.04,0.820177436,-1.094147682,-0.339485049
5.05,0.747552216,-0.603095055,-0.821870923
5.06,0.72721827,-0.176595688,-1.021203279
5.07,0.708292961,-0.178628922,-1.047690153
5.08,0.610469997,0.650315285,-0.950286627
5.09,0.552112877,0.967335701,-1.055144906
5.1,0.476424724,1.253572464,-0.965751469
5.11,0.357368141,1.485010147,-0.961389601
5.12,0.27628386,1.572969437,-1.139329433
5.13,0.063120469,1.617959976,-1.131472945
5.14,-0.146643549,1.526499748,-1.119511843
5.15,-0.168271735,1.525992393,-1.128504157
5.16,-0.714423299,1.168744087,-1.186585546
5.17,-0.853938103,0.811461449,-1.198185682
5.18,-0.888513446,0.315256119,-1.111358523
5.19,-0.815582335,-0.027795792,-0.888048053
5.2,-0.946392894,-0.445232391,-0.599278927
5.21,-0.993717372,-0.877184868,-0.465989143
5.22,-0.999002576,-0.878225327,-0.493629128
5.23,-0.839867353,-1.188135147,-0.449686915
5.24,-0.179503754,-1.823609829,-0.519566476
5.25,-0.139822021,-1.853219509,-0.489852756
5.26,-0.07569544,-1.822943687,-0.494314939
5.27,-0.084557079,-1.823662758,-0.530493319
5.28,0.019831523,-1.663776398,-0.821227431
5.29,0.412608385,-1.314562798,-0.922830224
5.3,0.397459865,-1.032223701,-0.970197797
5.31,0.274692297,-0.828773499,-1.089012623
5.32,0.085735768,-0.618010521,-1.221062303
5.33,0.129362971,-0.505364418,-1.315709829
5.34,0.183916107,-0.442915916,-1.436629415
5.35,0.076162696,-0.327749252,-1.470632195
5.36,-0.00033398,-0.344299316,-1.402088404
5.37,-0.007793352,-0.344130516,-1.403021812
5.38,-0.049521133,-0.631304741,-1.049535394
5.39,0.146118358,-0.858644486,-0.677818894
5.4,0.070472091,-0.8584795,-1.050865889
5.41,0.26889807,-0.843988419,-0.958020449
5.42,0.39530322,-0.74328804,-1.189719558
5.43,0.318811357,-0.601906776,-1.398149848
5.44,0.317491561,-0.386303902,-1.027854919
5.45,0.333685786,-0.376529694,-0.407370776
5.46,0.530727029,-0.220609665,-0.110041291
5.47,0.523293972,-0.220186234,-0.137288779
5.48,0.811993718,-0.183760643,-0.384441882
5.49,0.535135627,0.750458717,-1.002063751
5.5,0.299820125,1.313529968,-1.132780671
5.51,0.191718221,1.833485603,-1.104517102
5.52,-0.000316352,2.281552315,-1.053819299
5.53,-0.269667864,2.863607407,-0.768592715
5.54,-0.860543609,3.244335175,-0.843951702
5.55,-1.410259366,3.507202148,-0.933544397
5.56,-1.375705957,3.506448746,-0.935349405
5.57,-0.849420488,4.583080292,-0.461125553
5.58,-0.568368495,5.075645447,-0.241962701
5.59,-0.534248233,5.075270653,-0.243093163
5.6,0.737896204,5.101669312,1.968090177
5.61,0.816149533,4.743063927,3.18850708
5.62,1.264607549,4.315047264,2.880099773
5.63,1.659081221,3.97074604,2.549347401
5.64,1.704284906,3.940110207,2.351204157
5.65,1.712328553,3.940670967,2.336063862
5.66,1.62436986,3.864631653,1.781986117
5.67,0.888372183,3.889424324,1.630711436
5.68,-1.625096083,3.014157295,2.273721695
5.69,-2.24958992,1.600113869,2.466978073
5.7,-2.012346506,0.018269539,2.440619707
5.71,-2.012284994,0.018845558,2.428711414
5.72,-1.909860253,-1.271424294,2.260856867
5.73,-1.493793488,-2.176136494,1.933481336
5.74,-1.098535419,-1.730505943,1.710045457
5.75,-1.019869089,-1.174718857,1.574823856
5.76,-0.871434152,-0.405704498,1.489830852
5.77,-0.80938679,0.169529915,1.296442747
5.78,-0.798218846,0.51276207,1.328841925
5.79,-0.856345415,0.140277863,1.617860794
5.8,-0.859459341,-0.493001938,1.595788956
5.81,-0.87547785,-1.600239754,0.780488908
5.82,-1.061122537,-2.566328526,-0.027184248
5.83,-1.047867656,-2.565172672,-0.043240786
5.84,-0.780856371,-4.239543915,-0.344074667
5.85,-0.444644213,-4.867463112,-0.740149558
5.86,-0.438725323,-4.865917206,-0.761263073
5.87,0.216999814,-5.853264809,-0.618213892
5.88,0.30426836,-5.940374374,-0.125658453
5.89,0.304401904,-5.938884735,-0.145484567
5.9,0.263058305,-5.880033493,0.530884266
5.91,0.494464338,-5.780851364,0.392370105
5.92,0.765934885,-5.698826313,-0.093535244
5.93,0.6684466,-5.393637657,-0.681636393
5.94,0.411062837,-4.926508904,-0.858951092
5.95,0.231688857,-4.512019634,-0.909772277
5.96,0.148073345,-3.922645092,-1.186527491
5.97,0.216512844,-3.19671917,-1.301246405
5.98,0.235793218,-2.281311512,-1.028753281
5.99,0.206007451,-2.280326366,-1.040196419
6,-0.053859308,0.136636734,0.154602647
6.01,-0.081796825,0.137583733,0.145698309
6.02,-0.227863729,2.003220558,0.559253275
6.03,-0.696981609,2.702068329,0.479222238
6.04,-1.308728933,3.134506226,0.200905204
6.05,-2.051826477,3.40849781,-0.03422761
6.06,-2.409250975,3.711093903,-0.47335875
6.07,-2.423045635,3.709362984,-0.449322045
6.08,-2.686237812,4.349210739,-0.85730499
6.09,-2.691214085,4.347444534,-0.833200157
6.1,-2.609122753,4.513383865,-0.439436495
6.11,-2.082248688,4.222122192,-0.329436362
6.12,-2.081354618,4.220518112,-0.306895733
6.13,-1.704791307,3.560214996,0.293789387
6.14,-0.411055088,4.142243385,1.31848073
6.15,1.455025077,4.340873718,2.258351803
6.16,3.062621117,4.287953377,2.603982449
6.17,3.051457167,4.285331726,2.659371376
6.18,2.728157043,3.696632385,3.47740531
6.19,2.712253332,2.491028786,3.791782379
6.2,2.186743021,1.25524044,3.902672052
6.21,1.957549691,0.190150261,3.392642021
6.22,1.883492112,-0.754940033,2.546007633
6.23,1.880737901,-0.66084671,1.948771119
6.24,1.209432125,-0.162441254,0.982275486
6.25,1.207867742,-0.162631989,0.988425255
6.26,0.691873074,0.56696415,-0.401683241
6.27,0.302321583,1.43037796,-0.721915901
6.28,0.164878875,2.483074188,0.367607445
6.29,0.654081821,2.331851959,1.170156956
6.3,1.151221275,1.822482109,2.194458246
6.31,1.215053201,1.081467628,2.478519201
6.32,1.204174638,1.082978249,2.44815731
6.33,0.591234446,0.124184609,1.825881481
6.34,-0.544195175,-2.199870586,0.034653395
6.35,-0.606313586,-3.334471703,-0.280425757
6.36,-0.524437428,-4.402349949,-0.210937202
6.37,-0.528197169,-5.187925816,0.193780094
6.38,-0.398497522,-5.779619694,0.727492809
6.39,-0.10384813,-6.282612801,0.988104582
6.4,0.143083215,-6.433385372,0.955295205
6.41,-0.099543937,-6.358828068,0.441883922
6.42,-0.186728001,-6.190813065,-0.289861977
6.43,-0.267539471,-5.968091011,-0.764489353
6.44,-0.237794325,-5.968224525,-0.767190099
6.45,-0.0014982,-5.345552921,-0.756366015
6.46,0.150504738,-4.796823502,-0.856934905
6.47,0.189036071,-4.080233574,-0.931910813
6.48,0.347764611,-3.471229553,-1.188398838
6.49,0.577430904,-2.629868984,-1.225266457
6.5,0.634463549,-1.683176041,-0.914506555
6.51,0.559602201,-0.868144989,-0.735658824
6.52,0.168858588,0.037974358,-0.821610808
6.53,-0.078163661,0.764496803,-0.762819052
6.54,-0.359964877,1.294540405,-0.330506504
6.55,-0.307084441,1.692811012,0.330993474
6.56,0.080233157,1.98320961,-0.40593195
6.57,0.146581218,2.273013115,-1.228009343
6.58,0.481390119,2.722904205,-1.200965405
6.59,1.000344634,3.41012001,-0.764104962
6.6,1.079220653,4.181355476,-0.668623447
6.61,0.902454495,4.837857246,-0.779435575
6.62,0.253677964,5.418017387,-0.991649151
6.63,-0.603332698,5.763813972,-1.03023386
6.64,-1.12484467,6.023634911,-0.44571057
6.65,-0.639750421,6.36242485,1.080502748
6.66,0.287436307,6.298766136,2.514355421
6.67,0.40816763,5.441955566,2.477645159
6.68,0.133161172,4.492994308,2.243638754
6.69,0.16004093,3.342243195,3.057263136
6.7,0.206237078,2.016885757,4.057033062
6.71,0.413738906,0.445417404,4.628991604
6.72,0.815063953,-0.730089188,5.052597523
6.73,0.818609655,-0.729206085,5.041081429
6.74,0.010706186,-0.617922783,4.773767471
6.75,-1.101894259,0.120484352,3.785984516
6.76,-1.101940632,0.120529175,3.78529954
6.77,-3.186691761,2.111915588,0.464314818
6.78,-3.660625696,2.843548775,-0.470417947
6.79,-3.460472822,3.062732697,-0.086581349
6.8,-2.78020215,2.511461258,1.458672881
6.81,-1.988602281,1.683876991,2.628488064
6.82,-0.906913757,0.478311539,2.402668476
6.83,-0.51984787,-0.586378098,1.094202757
6.84,-0.275929987,-1.524791718,0.083194792
6.85,-0.006037608,-2.590340137,-0.088033736
6.86,0.301978856,-3.663084984,0.087576449
6.87,0.306610882,-3.662965775,0.087493479
6.88,0.730939508,-4.46749258,0.039568484
6.89,0.653389633,-5.212343693,0.15808183
6.9,1.179799914,-5.622498989,-0.116158366
6.91,1.097890615,-5.731684208,-0.513196945
6.92,0.745753288,-5.625750065,-0.195387989
6.93,0.482018471,-5.64685297,-0.175273001
6.94,0.417803109,-5.696886063,-0.464040279
6.95,0.329408199,-5.637090683,-0.776180685
6.96,-0.051943749,-5.519836426,-0.790018618
6.97,-0.04242979,-5.337659359,-1.076652646
6.98,-0.084211349,-5.109633923,-1.220183372
6.99,-0.179927394,-4.625114441,-1.014740109
7,-0.192251176,-3.738061428,-0.976819694
7.01,-0.473116577,-2.956238747,-1.00375104
7.02,-0.643407345,-1.875123024,-1.118720055
7.03,-0.65842396,-1.876300812,-1.086174726
7.04,-0.962742031,0.054751396,-1.234954
7.05,-1.29872191,0.980371475,-0.953358591
7.06,-1.412191033,1.767318726,-0.401557267
7.07,-1.396458983,2.322187424,0.233659148
7.08,-1.28166914,2.764638901,0.533869147
7.09,-1.178540468,2.771400452,-0.562037408
7.1,-1.155644178,2.821238518,-1.195447087
7.11,-1.026399851,3.000544548,-0.642775476
7.12,-1.022315025,3.000435829,-0.612117052
7.13,-1.684152603,3.115344048,-1.298227787
7.14,-2.330672979,2.931063652,-1.718584418
7.15,-3.289535761,2.768404961,-1.651045918
7.16,-3.785078526,3.082320213,-1.06207335
7.17,-3.198771238,3.765223503,0.054361928
7.18,-1.189951777,4.611268044,0.315945566
7.19,1.592773318,4.825519562,0.394378752
7.2,3.335756063,4.817211151,1.650690913
7.21,4.463522434,4.907011032,3.648288727
7.22,4.457312584,4.709614754,4.266899586
7.23,4.447889328,4.710829735,4.304038048
7.24,3.993515015,4.026805878,3.424013138
7.25,2.617741108,2.233706474,1.635530472
7.26,1.36630559,1.479189873,0.93414104
7.27,1.085422873,0.982613564,0.284415186
7.28,1.057730556,0.981610298,0.260016382
7.29,0.892394662,0.619226456,-0.19897756
7.3,1.532974958,0.649636269,0.424665093
7.31,1.820365787,0.833428383,0.918166935
7.32,1.867900014,0.90239048,1.186594129
7.33,1.392537832,0.818193436,1.614219427
7.34,1.024729252,0.504115105,1.734367013
7.35,0.223409742,-0.142734528,1.31503737
7.36,0.204659447,-0.143045425,1.280734897
7.37,-0.516270578,-1.112969398,0.511834621
7.38,-1.050046921,-2.080498695,-0.01473514
7.39,-1.365643263,-4.319445133,-0.31908831
7.4,-1.357973814,-4.319751263,-0.349944353
7.41,-1.018368244,-5.670388222,0.43989557
7.42,-1.003319979,-5.670573235,0.404008269
7.43,-0.283289492,-6.297936916,1.053318858
7.44,0.08661066,-6.271536827,0.826864004
7.45,0.360037744,-5.950437546,0.434197605
7.46,0.165294036,-5.545372009,0.096083432
7.47,0.073040545,-5.25028944,-0.230967835
7.48,0.046349302,-4.945440292,-0.655241549
7.49,0.075214744,-4.944506645,-0.687745929
7.5,0.264196724,-4.275440693,-0.742816806
7.51,0.291159272,-4.274209499,-0.77362895
7.52,0.151684374,-3.348777771,-1.236253142
7.53,0.176972851,-3.347571373,-1.258748412
7.54,-0.099323422,-2.415082455,-1.308388472
7.55,0.032922819,-1.49004364,-1.53825736
7.56,-0.021103516,0.483359337,-1.192664862
7.57,-0.065037429,1.508725166,-0.318454176
7.58,-0.044591784,2.345171928,-0.153281003
7.59,-0.036209449,2.345950127,-0.165571749
7.6,0.189363316,3.019101143,-0.724919915
7.61,0.320379078,3.754464149,-1.037230134
7.62,0.681458712,5.198702812,-0.69580549
7.63,0.524087071,5.467514992,-1.114936829
7.64,0.185953006,5.504252434,-1.600963831
7.65,-0.411785185,5.419031143,-1.900993109
7.66,-0.720588148,5.561323166,-1.274985671
7.67,-0.487116456,6.055586815,0.885569692
7.68,0.165081978,6.351211548,2.524415016
7.69,0.171114549,6.351809502,2.516367912
7.7,0.729807556,5.750231743,2.580442667
7.71,0.879775703,4.930027008,2.632573366
7.72,0.259894729,3.484770775,2.87646246
7.73,-0.515616596,0.742341042,3.640122414
7.74,-0.028017163,-1.077605247,4.379176617
7.75,1.326061964,-2.52579689,4.903220177
7.76,1.306227326,-2.524978638,4.877032757
7.77,0.61607194,-2.061794281,4.181414604
7.78,0.593210757,-2.060562134,4.151269436
7.79,-0.612555087,-0.706931114,2.483522415
7.8,-2.384128332,2.520909309,-0.41088286
7.81,-2.727314472,3.909602165,-0.024945676
7.82,-2.963029861,4.774059296,1.459762335
7.83,-2.637843609,4.889840126,2.423663855
7.84,-2.077634096,4.182123184,2.658212185
7.85,-0.794764161,2.516413689,1.526984453
7.86,-0.143463016,0.979207993,0.42001456
7.87,0.206007659,-0.50111866,-0.113970637
7.88,0.359243512,-1.854694366,-0.022058129
7.89,0.669293761,-3.107209206,-0.098632574
7.9,0.794669032,-4.096266747,-0.4853082
7.91,1.036905527,-5.015983105,-0.967926443
7.92,1.003963947,-5.016422749,-0.963591099
7.93,0.609246254,-5.938482761,0.021442473
7.94,-0.150802493,-5.807207584,-0.012126148
7.95,-0.004467428,-5.812643051,0.224933326
7.96,0.288600892,-5.889892578,0.302876294
7.97,0.158209354,-5.866641521,-0.425930619
7.98,0.134308249,-5.84387207,-1.116706848
7.99,-0.089365877,-5.871629715,-1.344642878
8,-0.179813474,-5.810470581,-1.54076767
8.01,-0.271762133,-5.600396156,-1.494409323
8.02,-0.290608227,-5.191184044,-1.323234916
8.03,-0.553895652,-4.448878765,-1.08731842
8.04,-0.739167571,-3.464649677,-1.123494267
8.05,-0.968948543,-2.306051254,-1.136351347
8.06,-1.075640321,-1.327681541,-1.028452516
8.07,-1.072092295,-1.329188347,-0.994408488
8.08,-1.006903172,0.378796578,-0.573425531
8.09,-0.996367097,0.37728405,-0.536867738
8.1,-1.093940377,1.381401062,-0.634310842
8.11,-1.059347153,1.772640228,-1.471913457
8.12,-1.047943592,1.771403313,-1.425487518
8.13,-0.75216037,2.381035805,-1.295634866
8.14,-0.748106718,2.380516052,-1.260675788
8.15,-0.69174391,3.208737373,-0.530055285
8.16,-1.297466874,3.551113129,-0.953417718
8.17,-2.495662451,3.752251625,-1.444267988
8.18,-3.625108719,3.49354744,-1.776676416
8.19,-3.762099981,3.399842262,-1.844274998
8.2,-2.496725321,3.844690323,-0.907206953
8.21,-0.20480004,4.236935616,0.214256495
8.22,1.519978642,4.437977791,0.633701384
8.23,2.471528053,4.668091774,1.046281338
8.24,3.271102905,4.919986725,2.199636459
8.25,3.624656916,5.095369339,3.204754591
8.26,3.827002525,4.751215935,3.624006987
8.27,3.818177223,4.751824379,3.645513058
8.28,3.502182245,3.69871521,3.116993427
8.29,3.035901546,2.585570335,2.371487617
8.3,1.967448115,0.912075996,1.368519902
8.31,1.947104096,0.912144661,1.35163486
8.32,1.513445616,0.634534836,0.154511124
8.33,1.284677744,0.543683052,-0.555887938
8.34,1.783076763,1.300337791,0.740939081
8.35,1.888020158,1.736339569,1.652114511
8.36,1.862259984,1.736857414,1.600607872
8.37,0.890394807,2.154243469,1.862309217
8.38,0.305922568,1.7697649,1.780716777
8.39,-0.150766835,0.944786072,1.088597536
8.4,-0.610898495,-0.268165588,-0.021481022
8.41,-0.914839864,-1.538887978,-0.167319462
8.42,-0.908197045,-1.538506508,-0.196466655
8.43,-0.483295143,-3.954096794,0.052931815
8.44,-0.599092662,-4.851908684,0.073230088
8.45,-0.635910034,-5.412442684,-0.002357304
8.46,-0.722552419,-5.975467682,-0.098930851
8.47,-0.72230649,-6.320590973,-0.143444657
8.48,-0.639753163,-6.373458862,0.035608739
8.49,-0.189460054,-6.315962791,-0.229284406
8.5,0.093335867,-6.162485123,-0.461927652
8.51,0.129003108,-6.161866188,-0.487455756
8.52,0.560195148,-5.641257763,-0.677643895
8.53,0.591586888,-5.639839649,-0.710718811
8.54,0.82016325,-5.034603596,-1.085531473
8.55,0.786071718,-4.596570969,-1.06327045
8.56,0.620639741,-3.990710258,-1.180168152
8.57,0.401236147,-3.21965313,-1.439441442
8.58,0.141203105,-2.341221809,-1.624542594
8.59,-0.040437736,-1.638342857,-1.66860199
8.6,-0.070163958,-0.703913689,-1.262055635
8.61,-0.065303013,0.199295998,-0.83724463
8.62,-0.348299295,0.973126411,-0.640291452
8.63,-0.404282928,1.629686356,-1.226087213
8.64,-0.489484131,2.307364464,-1.799085855
8.65,-0.322663039,2.958433151,-1.57077682
8.66,-0.311711431,2.958393097,-1.567441225
8.67,0.134390354,4.984214783,-1.126035333
8.68,0.214410514,5.652653694,-1.420806289
8.69,0.215701729,5.653345108,-1.429750681
8.7,-0.002055466,5.915258408,-1.82485199
8.71,-0.424017102,5.679504395,-1.854128599
8.72,-0.787305176,5.494300842,-0.979649901
8.73,0.734003127,6.724146843,2.793122053
8.74,0.860194325,6.370649338,3.053102016
8.75,0.347669154,5.589962959,2.686241627
8.76,0.007360518,4.418449402,2.914065123
8.77,0.04061088,3.038614273,3.723258495
8.78,-0.108201474,1.306893349,4.936737061
8.79,-0.234143078,-0.175534248,4.584630966
8.8,0.470940471,-1.377308846,4.295898914
8.81,0.460552633,-1.376997948,4.284052849
8.82,0.474793047,-0.612513542,5.134346485
8.83,-0.370483965,0.652525902,3.844853163
8.84,-0.959784389,2.077423096,2.362414837
8.85,-2.107948065,3.482116699,1.039291859
8.86,-3.159154892,4.637397766,0.072060704
8.87,-3.158830166,4.636299133,0.087176144
8.88,-3.321421146,4.681248665,1.309783936
8.89,-2.556825161,3.62064743,1.761973143
8.9,-1.071288109,2.031006813,1.058773756
8.91,-0.508237958,0.606097221,0.310317993
8.92,-0.473579288,-0.536424637,0.216994107
8.93,-0.105574817,-1.745820999,0.427307189
8.94,0.55699575,-2.967007637,0.211835027
8.95,0.820236683,-3.97035265,0.138773918
8.96,0.789885104,-3.970574856,0.131260157
8.97,1.262311459,-5.57770586,-0.383270651
8.98,1.228225708,-5.578913212,-0.375717133
8.99,1.019525766,-6.509562492,-0.757173717
9,0.789946556,-6.702976227,-0.606749117
9.01,0.628397584,-6.764630318,-0.421861947
9.02,0.600949645,-6.766313553,-0.399407804
9.03,0.362188399,-7.043474197,-0.569130063
9.04,0.339099795,-7.045488358,-0.53696233
9.05,0.17255342,-6.683448792,-1.104857206
9.06,0.150766254,-6.685113907,-1.073237777
9.07,-0.446946919,-5.759902,-1.374895334
9.08,-0.634175003,-5.183881283,-1.356432438
9.09,-0.793839634,-4.480680943,-1.348774672
9.1,-1.099937916,-3.46599865,-1.382723331
9.11,-1.263791442,-2.355416298,-1.763245583
9.12,-1.288335681,-0.907595635,-1.984956384
9.13,-1.40254283,0.548961639,-1.682039499
9.14,-1.257923126,1.794961929,-1.327670336
9.15,-1.131495118,2.76581955,-0.996798873
9.16,-1.126550913,2.764818192,-0.961200297
9.17,-1.798963666,3.779218674,-0.463378251
9.18,-1.79472208,3.778635025,-0.435965955
9.19,-1.367685676,3.874000549,-0.231905848
9.2,-1.37522912,3.873951912,-0.220501244
9.21,-1.563095331,4.199673653,-0.10578984
9.22,-2.995840549,4.173407555,-1.371531963
9.23,-4.23396492,3.917100906,-2.38957715
9.24,-4.77112484,3.713200569,-2.028017521
9.25,-4.742524624,3.712623596,-2.010882378
9.26,-3.916807175,3.757501602,-1.242125034
9.27,0.089420468,4.539999008,0.744968832
9.28,2.144435883,4.348385811,2.279963493
9.29,3.557129383,3.833816528,3.772778988
9.3,3.88641119,3.187772751,4.233725071
9.31,4.093426704,2.491767883,4.108295441
9.32,3.738314629,1.709619522,3.883308649
9.33,3.467946768,0.915374756,2.77854228
9.34,2.662371635,0.61429596,1.37401557
9.35,1.756960869,0.638624191,0.360083401
9.36,1.199339032,1.007454872,-0.257981479
9.37,1.184427261,1.007119179,-0.277151167
9.38,0.891632617,1.981102943,0.730109572
9.39,1.086610675,2.636678696,0.609203339
9.4,1.169567943,2.954763412,0.37631762
9.41,1.096488357,3.02626133,0.627952457
9.42,0.865689516,2.779336929,1.207033277
9.43,0.630245328,2.099074364,1.327884793
9.44,0.625134826,2.098935127,1.284809351
9.45,-0.275937229,-0.134932518,0.86706996
9.46,-0.270650506,-0.1348629,0.825980365
9.47,-0.966480613,-2.849891186,-0.18442148
9.48,-0.943933547,-2.849812984,-0.215691358
9.49,-1.052483082,-4.887221813,-0.278094471
9.5,-0.576988161,-5.791973591,-0.089119785
9.51,-0.545449138,-5.791523457,-0.118007444
9.52,-0.224279448,-6.38942337,0.259061992
9.53,0.24849546,-6.896116257,0.441965342
9.54,0.289895386,-6.894968033,0.413073599
9.55,0.230327129,-6.910373688,0.304404676
9.56,0.543839634,-6.561697006,-0.330509365
9.57,0.588594198,-6.162569046,-0.599284411
9.58,0.644011378,-5.794297695,-0.755066752
9.59,0.511660516,-5.258142471,-0.880886912
9.6,0.419580787,-4.633171558,-1.022625446
9.61,0.402013034,-4.041563034,-1.353321314
9.62,0.45158568,-3.241547108,-1.467823982
9.63,0.750348747,-2.286028862,-1.031377196
9.64,0.449717641,-1.390784264,-0.64347744
9.65,0.454063267,-1.389093399,-0.668074429
9.66,-0.144408554,0.020453453,-0.703381062
9.67,-0.077067614,0.860155106,-0.906761587
9.68,-0.392844766,1.610946655,-1.810037374
9.69,-0.696864426,2.437793732,-2.003567457
9.7,-0.675602436,3.38176918,-1.265698671
9.71,-0.435214132,4.29714489,-0.703777075
9.72,-0.448351473,5.052149773,-0.715543687
9.73,-0.593527556,5.527092934,-1.206905603
9.74,-0.859454751,5.760249138,-1.496733189
9.75,-0.860091031,5.761375427,-1.511382461
9.76,-1.179108143,5.872754097,-0.536024332
9.77,-0.626522422,6.467745781,0.378128827
9.78,-0.611223221,6.468775749,0.373701692
9.79,0.356374592,5.895151138,1.534519672
9.8,0.361734748,5.070049286,2.814517021
9.81,0.006388307,3.945815086,3.696138144
9.82,0.039405048,3.946561813,3.708469629
9.83,0.182433188,1.109723091,4.085232735
9.84,0.614525616,-0.498680115,4.630910873
9.85,1.209848166,-1.598973274,5.255966663
9.86,1.187977552,-1.597775459,5.225523949
9.87,1.063643932,-1.563139915,5.401838303
9.88,-0.609141469,0.458175659,3.318313122
9.89,-1.546643496,2.198296547,1.63033843
9.9,-1.571963072,2.196774483,1.634030342
9.91,-2.22739315,3.561936378,0.691760063
9.92,-2.656493187,4.506483078,0.543819666
9.93,-3.362109184,4.558849335,2.212685108
9.94,-3.007698536,3.646917343,2.109938383
9.95,-1.626446962,2.198515892,0.90050149
9.96,-0.879285634,0.787796021,0.103559673
9.97,-0.529623628,-0.304408073,-0.152632892
9.98,-0.014480352,-1.671884537,-0.081773758
9.99,0.376137376,-2.950605869,-0.030436337
10,0.815855622,-4.076013088,-0.365716696
10.01,0.91729331,-5.120211601,-0.71770066
10.02,0.539923072,-5.961279392,-0.664454937
10.03,0.445113868,-6.46999073,-0.800671339
10.04,0.365723074,-6.945810318,-1.115852833
10.05,0.456107706,-7.141964912,-0.866532624
10.06,0.433316618,-7.144231796,-0.84249121
10.07,0.188524246,-7.158396244,-0.640708864
10.08,0.165623128,-7.117961884,-0.886555553
10.09,0.149385974,-7.120754242,-0.851228774
10.1,0.182609916,-6.816794395,-0.762621522
10.11,0.168822795,-6.819185257,-0.728602052
10.12,-0.057693847,-6.416666985,-1.302643538
10.13,-0.438027114,-5.79812336,-1.205667973
10.14,-0.942587912,-3.922177315,-1.243292451
10.15,-1.370927572,-2.620557785,-1.260508537
10.16,-1.387861729,-2.621290207,-1.245634198
10.17,-1.424245119,-0.384054184,-1.670048237
10.18,-1.418136835,-0.386167526,-1.631570578
10.19,-0.963134766,1.80731678,-1.578581691
10.2,-0.954902649,1.805506706,-1.540011406
10.21,-1.180566549,3.913314819,-0.348250181
10.22,-1.095325708,4.522549629,-0.106800348
10.23,-0.459109008,4.653140068,0.25682807
10.24,-0.10538134,4.465554237,0.140238434
10.25,-0.688307941,4.230305672,-0.534571052
10.26,-1.840818167,3.933027267,-1.456618547
10.27,-3.224190474,3.561602592,-2.483888865
10.28,-3.225432873,3.561157227,-2.464286804
10.29,-4.598256588,3.026511192,-2.089596987
10.3,-4.118884087,3.169353485,-0.673570573
10.31,-4.076496601,3.168607712,-0.630192041
10.32,-2.084340572,3.716405869,0.744027913
10.33,2.167761326,3.872125626,1.129799843
10.34,3.241826534,3.872706413,1.688656807
10.35,3.874260664,4.067601204,3.37434268
10.36,3.888536215,4.068629265,3.421367168
10.37,4.229462624,3.386837006,4.502211571
10.38,4.085649014,1.389976501,3.497910023
10.39,3.372408628,0.599599838,1.455938697
10.4,2.43376708,0.582427979,0.033792958
10.41,1.903296113,0.814126968,-0.234235182
10.42,1.794155478,1.263555527,0.11515455
10.43,2.019681692,2.026572227,0.528584003
10.44,1.979464412,2.026186943,0.476705968
10.45,1.642452002,3.953616142,0.759784699
10.46,1.032738328,4.562173843,0.370736659
10.47,0.237242833,4.493416786,0.658198118
10.48,-0.085116029,3.412211418,1.779199362
10.49,-0.150368914,1.610767365,2.798305035
10.5,-0.645795584,-0.262363434,1.483867884
10.51,-1.116351008,-2.210147858,0.301136643
10.52,-1.113320231,-2.209493637,0.277027756
10.53,-1.215044498,-3.947349072,0.165189236
10.54,-1.151204705,-5.287947655,-0.147270083
10.55,-0.963740826,-6.580727577,-0.55522126
10.56,-1.135177135,-7.858916283,-0.148909643
10.57,-1.195289493,-8.238870621,0.275948107
10.58,-1.153959155,-8.237651825,0.241980076
10.59,-0.610493064,-8.104485512,0.54417038
10.6,0.504891574,-7.075808525,0.779860318
10.61,0.53316319,-7.073990822,0.747485936
10.62,0.933075368,-5.302633286,0.163107932
10.63,0.856850982,-4.642137051,-0.251319945
10.64,0.719929338,-3.90000391,-0.701983392
10.65,0.548356235,-3.224482536,-1.416982889
10.66,0.57635802,-3.221237183,-1.455373526
10.67,0.274710894,-1.979941845,-2.094082355
10.68,0.28829959,-1.97705698,-2.126967669
10.69,0.272628993,-0.205882072,-1.804373026
10.7,0.302773207,0.659660339,-1.151558042
10.71,0.308203697,0.660711289,-1.162448287
10.72,0.368598759,1.454093933,-0.553471923
10.73,0.289719015,2.110747337,-0.49846977
10.74,-0.466933459,2.939547539,-0.854018629
10.75,-0.456855744,2.939637184,-0.851783156
10.76,-0.867871404,4.047933578,-1.184922457
10.77,-0.984072447,4.73461628,-1.242248893
10.78,-0.585721135,5.239219666,-1.242953897
10.79,-0.458283007,5.272268295,-1.40542531
10.8,-0.49797219,5.125756264,-1.592824697
10.81,-0.783155084,5.326406479,-0.808392286
10.82,-0.761632919,5.326216698,-0.795241475
10.83,-0.172987044,5.874362946,0.509505868
10.84,0.696418881,5.522174835,1.474927306
10.85,0.715967298,5.522046089,1.48842597
10.86,0.508160353,4.827780724,2.630742073
10.87,0.249372616,2.186872482,3.919856071
10.88,0.211849213,0.192234039,4.208454132
10.89,0.456397235,-1.124872208,4.618670464
10.9,1.15437603,-1.900505543,4.693957329
10.91,1.147591829,-1.900467396,4.687720776
10.92,1.23840642,-1.584410667,4.780721664
10.93,0.905826092,-0.710438728,5.090698242
10.94,-1.329098225,1.515857697,0.838480473
10.95,-2.802554131,3.15009594,-0.314643472
10.96,-2.819904804,3.149486542,-0.317721278
10.97,-3.456150055,4.832733154,1.050838709
10.98,-3.475927114,4.833352089,1.030267239
10.99,-2.134569883,3.819180489,2.65954566
11,-2.153651953,3.819970131,2.639553547
11.01,-1.511439323,2.189398766,1.951514006
11.02,-0.72823149,-1.026670456,-0.525007606
11.03,-0.153671175,-2.329974174,-0.962789178
11.04,-0.170503676,-2.330860138,-0.958681107
11.05,0.397249043,-3.497512817,-0.492113531
11.06,1.596817017,-5.375434875,0.148373365
11.07,1.456575632,-5.934584618,0.200306237
11.08,1.435694098,-5.936061859,0.213005304
11.09,1.124752402,-6.555147648,0.425903022
11.1,1.099442005,-6.556390285,0.435817719
11.11,1.253825068,-6.713295937,-0.089848638
11.12,0.874752224,-6.765283585,-1.086338401
11.13,0.621209979,-6.613917351,-1.214043617
11.14,0.473320067,-6.273103237,-1.313188791
11.15,0.173197568,-5.862465858,-1.359823942
11.16,0.035200421,-5.475409508,-1.487377524
11.17,-0.191245779,-4.894214153,-1.531231999
11.18,-0.420358926,-4.157152176,-1.47256422
11.19,-0.443329752,-4.157399178,-1.467907071
11.2,-0.906788707,-2.531919956,-1.632117033
11.21,-0.861914635,-1.579874992,-1.995366931
11.22,-0.826894164,-0.581018448,-2.08044529
11.23,-0.890151203,0.398516655,-1.911029935
11.24,-0.976906538,1.358888626,-1.602119923
11.25,-1.143795609,2.156531334,-1.210734844
11.26,-1.493028879,2.856263161,-0.428117007
11.27,-1.691236138,3.424646378,-0.186395571
11.28,-1.475260019,3.717917442,-0.46199435
11.29,-1.489726901,3.774399757,-0.525921345
11.3,-1.725493431,3.785690308,-0.747532964
11.31,-2.245971441,3.624816895,-1.406887412
11.32,-2.246517181,3.624494553,-1.388765216
11.33,-2.988220692,3.454214096,-2.218128443
11.34,-3.86944437,3.386884689,-1.906960368
11.35,-2.787296772,3.937264442,-0.576051831
11.36,-0.638881326,4.217094421,0.669761539
11.37,-0.619221807,4.21681881,0.705502987
11.38,3.134477615,3.967674255,2.377211332
11.39,4.175519466,3.821632385,4.287674427
11.4,4.5952878,3.309426308,4.639143944
11.41,4.310415268,2.550835609,3.545727968
11.42,3.987647295,1.979124069,2.823391914
11.43,3.541226149,1.5678339,1.908558726
11.44,2.895905256,1.570737839,1.218259573
11.45,1.967669606,1.853648186,1.265974164
11.46,1.381583214,2.334960938,1.03142035
11.47,1.258462787,2.847409248,0.743931651
11.48,1.220499516,3.3359375,0.513904214
11.49,1.113568902,3.527603149,0.449561656
11.5,1.094797015,3.527704239,0.425756097
11.51,1.128893375,3.556541443,0.749546409
11.52,1.093346477,3.190332413,0.955430806
11.53,0.228297234,1.808994293,1.507716179
11.54,0.223093242,1.809147835,1.474467993
11.55,-0.92215848,-0.403176308,-0.122060962
11.56,-1.48043561,-1.686745644,-0.239349365
11.57,-1.559691787,-2.934562206,-0.206006348
11.58,-1.289062142,-4.201597214,-0.028616071
11.59,-0.873736382,-5.195588112,0.099746257
11.6,-0.71585238,-6.134404182,0.178102061
11.61,-0.695849359,-6.706765175,0.466107994
11.62,-0.691947043,-7.058637619,0.849706292
11.63,-0.402923584,-7.38143158,0.776463866
11.64,-0.067536905,-7.423737526,0.296135008
11.65,0.159980655,-7.305361748,-0.09382759
11.66,0.212652803,-7.304088593,-0.107772231
11.67,0.536765933,-6.785317421,-0.699402571
11.68,0.468191236,-6.299715996,-0.873439789
11.69,0.385382801,-5.713143826,-0.90314579
11.7,0.483360171,-5.138298035,-1.32840848
11.71,0.473585695,-4.311893463,-1.464154124
11.72,0.502238274,-3.365501404,-1.666548371
11.73,0.430106998,-2.15314436,-1.799725652
11.74,0.372229159,-1.037127495,-1.925773382
11.75,0.365443468,-1.036062241,-1.95023942
11.76,0.129947007,-0.075104713,-1.697290182
11.77,-0.458420217,1.984805107,-1.628159046
11.78,-0.436070204,2.754137039,-1.47700572
11.79,0.09578371,3.499527931,-0.340302587
11.8,0.060860127,4.099303246,-0.123256803
11.81,0.286323905,4.677556992,-0.288182974
11.82,0.336385131,5.26081562,-0.660264671
11.83,-0.253712684,5.647779465,-1.741759419
11.84,-0.799698949,5.725543022,-2.17122221
11.85,-0.753398776,5.654831886,-1.438613057
11.86,-0.925114512,5.356952667,-0.267090201
11.87,-0.727113009,5.343981743,1.079722166
11.88,-0.207851708,5.522204399,2.225189209
11.89,-0.065640509,5.005710602,2.617690086
11.9,0.629037499,4.249157906,2.806768894
11.91,0.486592293,3.058631897,3.67468977
11.92,0.005916446,2.109905243,4.318737984
11.93,-0.067442358,0.201490402,5.355782509
11.94,-0.048895478,0.202062607,5.359032631
11.95,0.409263313,-1.927797794,5.496722221
11.96,0.409748167,-1.92671442,5.483709812
11.97,-1.278283596,-1.260084152,3.377300739
11.98,-1.284266233,-1.259497643,3.366823912
11.99,-2.170939445,-0.222456932,2.423902988
12,-3.134731531,2.691233635,0.389563441
12.01,-3.218986273,3.942997932,0.395428956
12.02,-2.804863214,4.589484215,1.390862703
12.03,-2.817561388,4.590395927,1.373813629
12.04,-1.716230392,4.795230865,2.396081448
12.05,-1.152466297,4.700468063,2.681618452
12.06,-0.220617235,3.118187904,1.639647961
12.07,-0.231161714,3.117787361,1.639585257
12.08,0.140697107,0.147996903,0.586618304
12.09,0.12019296,-1.352184296,-0.03484267
12.1,0.274073094,-2.738055229,-0.558309436
12.11,0.592583418,-4.009277344,-0.743830323
12.12,0.727714896,-4.981411457,-0.640350819
12.13,0.833059788,-5.936808586,-0.361315638
12.14,1.001875877,-6.927973747,-0.262782753
12.15,0.979303062,-6.930325508,-0.240184248
12.16,0.804404199,-7.552775383,-0.209700048
12.17,0.834427595,-8.060289383,-0.84414041
12.18,0.695718348,-8.050730705,-0.994637966
12.19,0.577006757,-7.89727354,-1.332749128
12.2,0.351230294,-7.305423737,-1.662625551
12.21,0.104104884,-6.600795746,-1.927217722
12.22,0.105318204,-5.84081459,-1.212482214
12.23,-0.542952418,-5.0470047,-1.662697792
12.24,-1.23662889,-4.24605751,-2.510583401
12.25,-1.254614115,-4.247133255,-2.491312504
12.26,-0.806790233,-2.361263752,-1.855634928
12.27,-0.67797637,-1.253671646,-1.474310517
12.28,-0.614648521,-0.197472572,-1.184108019
12.29,-0.624940753,0.892183304,-0.885473073
12.3,-0.539882839,1.793011665,-0.932220161
12.31,-0.613878787,2.485935211,-0.724989533
12.32,-0.724774063,3.131456375,-0.332061708
12.33,-1.028039217,3.830057144,-0.113023877
12.34,-1.139211655,4.227293968,-0.178655177
12.35,-1.286444664,4.3015728,-0.333456278
12.36,-2.148737669,4.402417183,-1.297227263
12.37,-3.627002239,4.397996902,-2.061837435
12.38,-4.638491631,4.371890068,-2.31702733
12.39,-4.790105343,3.988732338,-1.855215073
12.4,-4.112830162,3.655548096,-0.943440497
12.41,-2.829030752,3.791335106,-0.476309001
12.42,-0.955732346,4.005852699,0.221784785
12.43,1.286110878,4.000144958,0.861542642
12.44,3.043290377,3.807912827,1.553648353
12.45,3.87574625,3.457963943,2.544060469
12.46,4.074950218,3.199191093,4.175255775
12.47,4.068065166,3.199118614,4.200469017
12.48,3.838638783,1.575839043,5.233127594
12.49,3.400504351,0.613456726,3.667582989
12.5,2.69761014,0.125190735,1.553120375
12.51,1.891753912,0.451030731,0.406135023
12.52,1.324386239,1.24620533,0.09991204
12.53,1.303262234,1.246520042,0.089225516
12.54,1.430221677,3.001930237,0.20103848
12.55,1.552533507,3.816488266,0.475413621
12.56,1.554755688,4.355764389,0.82380259
12.57,1.098324418,4.51925087,1.558154225
12.58,0.443404853,4.153715134,2.016728163
12.59,-0.24849692,3.089118958,1.984155297
12.6,-0.637572527,1.46167469,1.399715185
12.61,-0.632732987,1.461778641,1.388541818
12.62,-2.002381802,-1.509990692,-0.440873623
12.63,-2.081011534,-2.909116745,-0.974796653
12.64,-1.726478696,-3.965906143,-1.207449198
12.65,-1.226075053,-5.111166,-1.068445086
12.66,-0.620547056,-6.019216061,0.218044207
12.67,-0.194357485,-6.682772636,0.522032976
12.68,-0.304969847,-7.078006268,0.023074955
12.69,-0.131372109,-7.082782269,0.245147541
12.7,0.471006572,-6.87885952,0.4817608
12.71,0.874484062,-6.732133865,0.219198197
12.72,1.068322062,-6.523030281,-0.190686524
12.73,1.119525194,-6.263546944,-0.362698972
12.74,1.042211771,-5.874621391,-0.770285785
12.75,0.928456843,-5.406621456,-1.475773096
12.76,0.950572848,-5.405408382,-1.498498678
12.77,0.704467058,-4.740825653,-1.702515244
12.78,0.399202228,-2.898133755,-1.328565955
12.79,0.403355837,-2.897082806,-1.354228497
12.8,-0.040169448,-0.7371521,-0.768194675
12.81,-0.142598569,0.151255608,-0.382656097
12.82,-0.077705622,1.058947563,-0.317147404
12.83,-0.065664977,1.784609795,-0.587802887
12.84,0.099578053,2.280152321,-0.750801504
12.85,0.137834862,2.842601776,-1.252089739
12.86,0.048624635,3.476680756,-1.504769802
12.87,-0.108786553,4.091567993,-1.539175153
12.88,-0.264533609,4.431098938,-1.455119491
12.89,-0.265493095,4.430731773,-1.445793748
12.9,-0.499329239,4.444788933,-1.147760987
12.91,-0.54748565,4.164392471,-1.076783419
12.92,-0.529992342,4.164176941,-1.053757906
12.93,-1.313570499,3.249575615,-0.173361883
12.94,-1.275283813,3.249988556,-0.1364315
12.95,-0.354567498,3.940432549,1.573376656
12.96,0.044616491,3.618491173,1.355045319
12.97,0.055935502,3.304192543,1.983320832
12.98,0.102377236,3.306418419,2.020863533
12.99,-0.04539746,2.93536377,3.059701443
13,0.857338071,0.749066353,4.776097775
13.01,1.166941166,0.070111275,5.358356476
13.02,0.658735514,0.154057503,4.907682896
13.03,-0.325998068,0.797857285,3.879094362
13.04,-1.143220186,1.56106472,2.717175007
13.05,-1.866398573,2.74300766,1.440859556
13.06,-2.73439002,4.15233326,0.658937693
13.07,-3.208878517,5.011135101,0.776529014
13.08,-2.762852669,5.058485031,1.070687771
13.09,-1.451445818,4.337197304,1.595682025
13.1,-0.080636919,3.124779701,2.145789623
13.11,0.136082709,1.94562149,1.295530915
13.12,-0.153928459,0.529356003,-0.31899932
13.13,-0.165506899,-0.712152481,-0.405287862
13.14,-0.192697406,-0.713502884,-0.406506568
13.15,0.326796621,-1.663017273,-0.161453873
13.16,0.526635945,-2.691526413,-0.422255784
13.17,0.862673044,-4.330485821,0.347873092
13.18,0.83022362,-4.331686497,0.349446058
13.19,1.320037127,-5.62334013,0.39668417
13.2,1.090380788,-6.026561737,0.409462363
13.21,0.699995756,-6.154236317,0.421322942
13.22,0.674818456,-6.336808681,-0.019640449
13.23,0.67417407,-6.413931847,-0.638830423
13.24,0.590894938,-6.325713634,-0.848514557
13.25,0.57397306,-6.325936794,-0.819190264
13.26,0.691830158,-5.897483826,-0.860510349
13.27,0.648508608,-5.50007534,-0.468775839
13.28,0.182819381,-5.126567364,-0.374386936
13.29,-0.172401965,-4.582925797,-0.737376511
13.3,-0.178756014,-4.58265686,-0.715487063
13.31,-0.714397311,-3.318193436,-1.562717915
13.32,-0.946228206,-2.386439323,-1.683009267
13.33,-1.027416587,-1.420894623,-1.421940804
13.34,-0.799070716,-0.567644119,-1.147023201
13.35,-0.619707346,0.240244865,-0.731588244
13.36,-0.614832938,1.0122509,-0.435020089
13.37,-0.960814953,1.556845665,-0.556611359
13.38,-1.282489419,2.051374435,-0.914169967
13.39,-1.510022879,2.423967361,-1.341152906
13.4,-1.650983095,2.741230011,-1.301717162
13.41,-1.947189093,3.17547226,-0.738816619
13.42,-1.930880904,3.51107502,-0.566020608
13.43,-2.332829475,3.470435143,-1.162998438
13.44,-3.233807802,3.37706089,-1.596630335
13.45,-4.369650841,3.147392273,-1.963037014
13.46,-4.070439339,2.976010323,-1.969446182
13.47,-2.96027422,3.576557159,-1.053640366
13.48,-0.815075994,4.221247673,-0.650820434
13.49,1.296846628,4.361426353,-0.094070196
13.5,2.767751455,4.316477776,1.011285663
13.51,3.345786333,4.248900414,2.577174664
13.52,3.348287582,4.25053978,2.600737572
13.53,3.374595165,4.077289581,4.071800232
13.54,3.135607958,3.211291313,3.888643503
13.55,2.452406645,2.05885601,2.072948456
13.56,1.263631105,1.032666206,0.423363656
13.57,0.773508549,0.79090023,0.177594423
13.58,0.720031858,0.790521622,0.001003683
13.59,1.252744079,1.080003738,-0.011031151
13.6,1.921844363,1.623587608,0.673468828
13.61,1.90811038,1.621364594,0.639412284
13.62,2.661961794,2.636741638,2.325346947
13.63,2.530105114,2.730581284,2.460516691
13.64,2.109435081,2.932202339,2.501017809
13.65,2.090999126,2.930366516,2.464731693
13.66,1.420434475,2.571960449,2.173669815
13.67,-0.22934711,0.83236599,0.997113705
13.68,-0.759065092,-0.52841568,0.040478662
13.69,-1.134438515,-1.876608849,-0.616672874
13.7,-1.119969845,-1.87644577,-0.6191957
13.71,-0.968259633,-4.062049866,-0.494269908
13.72,-0.946349978,-4.061621666,-0.495315909
13.73,-0.401456416,-5.62463665,-0.229930967
13.74,-0.032934964,-6.086297035,0.267013341
13.75,-0.009177655,-6.085977554,0.254508078
13.76,0.703908384,-6.107193947,1.221310735
13.77,0.895528853,-5.819492817,1.098423719
13.78,1.124296904,-5.476727009,0.514277339
13.79,1.070649147,-5.06926775,-0.041740417
13.8,1.057891011,-4.680980206,-0.600150406
13.81,0.981790841,-4.201821804,-0.994846642
13.82,0.99217248,-4.201677799,-1.016274571
13.83,0.591460407,-3.385206223,-0.828276873
13.84,0.593520224,-3.38528347,-0.84687984
13.85,0.341614604,-2.468407154,-0.797024906
13.86,0.427867353,-1.963344574,-0.725489318
13.87,0.489066422,-1.479893684,-0.728088319
13.88,0.517562866,-0.967741966,-0.38941434
13.89,0.586072862,-0.417328835,-0.019149154
13.9,0.579969585,-0.417613983,-0.026737712
13.91,0.313326687,0.594913483,-0.571490586
13.92,0.309464157,0.594768524,-0.570006192
13.93,-0.376308143,1.681645393,-1.31321466
13.94,-0.548513413,2.239351273,-1.388810992
13.95,-0.410237402,2.952640533,-1.460208774
13.96,-0.485818803,3.299576759,-1.522256255
13.97,-0.306034148,3.620264053,-0.936202645
13.98,-0.385146529,3.318483353,-0.761152029
13.99,-0.595158577,2.918779373,-0.962293148
14,-0.781623542,3.077239037,0.003599413
14.01,0.311686814,4.188901901,1.563719273
14.02,0.51960361,4.951116562,1.014938354
14.03,0.382616133,5.421642303,-0.052932113
14.04,-0.273238421,5.768058777,0.125980765
14.05,-1.555250406,5.166761398,1.6766783
14.06,-1.777676344,4.268806458,2.791530848
14.07,-1.656400919,2.738547325,3.216423273
14.08,-1.637155533,2.740054131,3.231545687
14.09,-1.021458626,0.740941048,3.227714062
14.1,0.235908479,-0.816128731,3.445747375
14.11,1.141086578,-1.643445015,4.149949074
14.12,0.441601008,-0.500324249,3.780965328
14.13,0.041923195,0.269508362,2.831681728
14.14,0.032731622,0.268614769,2.811332464
14.15,-2.419262886,2.858974457,1.707891941
14.16,-2.405600548,2.859369278,1.689563036
14.17,-3.20304966,3.710076332,1.910847545
14.18,-2.44252038,3.768332481,1.817302704
14.19,-1.153939247,2.789575577,1.701809883
14.2,-1.15228653,2.789471626,1.679743886
14.21,-0.110380948,0.761234283,1.545337915
14.22,0.374642015,-0.149023056,0.699951172
14.23,0.562168241,-0.949396133,0.185332894
14.24,0.546681345,-0.950259209,0.171534672
14.25,0.746395171,-2.131584167,0.684941948
14.26,0.85461545,-2.580367088,0.756122589
14.27,0.519750536,-2.866287231,0.875731945
14.28,0.241758049,-2.826476097,0.71802479
14.29,-0.086370409,-2.870406628,0.584546447
14.3,-0.053617179,-3.137015343,0.429737955
14.31,-0.075675577,-3.137889862,0.42531839
14.32,-0.10559836,-3.33747673,0.330852211
14.33,0.104945064,-3.642317295,-0.05777787
14.34,0.006085962,-3.693295002,-0.167365432
14.35,-0.247786164,-3.698658943,-0.114493959
14.36,-0.261532962,-3.699099541,-0.111106649
14.37,-0.247662336,-3.534265518,-0.43217805
14.38,-0.43146494,-3.529826164,-0.488077998
14.39,-0.44115895,-3.530100822,-0.484331489
14.4,-0.451559693,-3.231043339,-0.933098614
14.41,-0.098049447,-3.099524021,-0.072843485
14.42,-0.103231818,-3.099678516,-0.061210915
14.43,-0.275035322,-3.061420441,-0.242846772
14.44,-0.273938477,-3.061329842,-0.214661136
14.45,-0.444865823,-2.804940701,-0.384184688
14.46,-0.482551694,-2.491030216,-0.219079971
14.47,-0.460231304,-2.019056797,-0.376225948
14.48,-0.472700268,-0.227903366,-0.732954085
14.49,-0.407583386,0.696461678,-0.952730596
14.5,-0.317635208,1.699707985,-1.030490637
14.51,-0.249054477,2.712421417,-0.624631405
14.52,-0.393979251,3.169626236,0.093289763
14.53,-1.304487467,3.622071266,0.808848918
14.54,-1.306484818,3.622226715,0.816886365
14.55,-2.754826546,2.178758621,2.102044344
14.56,-2.179274321,0.620565414,1.124398112
14.57,-2.322734118,-0.427223206,-0.812700093
14.58,-2.225765944,-0.9737463,-2.636049747
14.59,-2.180880785,-0.970639229,-2.579326391
14.6,-2.305062771,-0.530379295,-3.394171476
14.61,-0.430343717,2.128088951,-2.104513407
14.62,-0.380980849,2.133701324,-2.040427923
14.63,0.617167532,5.332801819,-0.443466067
14.64,0.303049922,6.424199104,0.6165241
14.65,0.26899302,6.232848167,1.569908857
14.66,0.268805385,6.234045982,1.586687207
14.67,1.002743959,4.654078484,1.523046494
14.68,0.702908874,3.286459923,1.229088426
14.69,0.585817516,1.905760765,0.819724441
14.7,0.546427131,1.903107643,0.807462931
14.71,0.396866411,-0.075481415,0.898236394
14.72,0.236045286,-1.754383087,1.208543301
14.73,0.691153884,-1.83779335,1.19305706
14.74,1.533265591,-1.532440186,1.16425705
14.75,1.898735166,-0.986856461,1.360408902
14.76,1.90558362,-0.986815453,1.357076883
14.77,2.042757988,0.758350372,1.438292027
14.78,1.713676333,1.489919662,1.528172016
14.79,1.702175617,1.487939835,1.501648426
14.8,1.587890148,1.82747364,1.233285427
14.81,1.674049377,1.618091583,1.967632771
14.82,1.633928061,1.614086151,1.904239655
14.83,0.392241478,0.375245094,2.005214453
14.84,-0.221425608,-0.414868355,0.70374471
14.85,-0.569417059,-1.091480255,-0.231568813
14.86,-0.535045385,-1.743509293,0.303672135
14.87,-0.535237074,-1.744035721,0.279145896
14.88,-0.491228998,-2.371571064,-0.058305174
14.89,-0.014476851,-2.678222179,0.551780343
14.9,0.779810727,-2.513226986,1.046377182
14.91,1.24478662,-2.036988735,0.950767636
14.92,1.052029967,-1.591809273,1.078884006
14.93,0.986074209,-1.110708237,1.237784386
14.94,0.874556661,-0.840410233,0.721320808
14.95,0.593591809,-0.66594696,0.654464304
14.96,0.627563,-0.481895447,1.078793287
14.97,0.693638623,-0.534836769,1.681314111
14.98,0.929785311,-0.692929268,2.363121033
14.99,1.174771786,-0.8172369,2.97298646
15,1.156050086,-0.8167696,2.924717426
15.01,0.879826665,-0.773036957,2.080835581
15.02,0.448570192,-0.571285248,1.140149951
15.03,0.104806751,-0.11103344,0.218164861
15.04,-0.525179923,0.418488503,-0.318741471
15.05,-0.874097526,1.022148132,-0.839642644
15.06,-0.894250929,1.740609169,-0.743071497
15.07,-0.89706105,1.741134644,-0.760517001
15.08,-0.263858318,2.227215767,0.549336553
15.09,-0.015371684,1.963718414,0.657080054
15.1,-0.14527005,1.259404182,0.687958002
15.11,-0.105076574,0.51424408,0.661135435
15.12,-0.093872748,0.513762474,0.682938933
15.13,-0.119249992,0.02011776,0.544003606
15.14,-0.412826061,-0.236437798,0.530816078
15.15,-0.85493511,-0.332468033,0.02546756
15.16,-0.60990566,-0.313544273,-0.069184743
15.17,-0.446359754,-0.229890823,0.317185998
15.18,-0.515786111,-0.296990395,0.54234308
15.19,-0.545601428,-0.555560112,0.393479824
15.2,-0.460580528,-0.88108635,0.296413839
15.21,-0.20482555,-1.153895378,0.346240103
15.22,0.008510351,-1.278201103,0.354724079
15.23,0.018794715,-1.277988434,0.353876799
15.24,-0.051115349,-1.222717285,0.194014013
15.25,0.138288453,-1.004650116,0.172348097
15.26,-0.018110543,-0.628644943,0.226414874
15.27,-0.264336288,-0.432277679,-0.030489825
15.28,-0.588240624,-0.192923546,-0.530971885
15.29,-0.586997926,-0.193058014,-0.517547727
15.3,-0.828778267,0.06538868,-0.034115694
15.31,-0.555446208,0.086773872,0.349053174
15.32,-0.559661806,0.086571693,0.366126776
15.33,-1.049651504,-0.054890633,-0.76639539
15.34,-0.968608737,0.002465248,-0.632083297
15.35,-0.872701526,0.098173141,-0.809510231
15.36,-0.872631669,0.098191261,-0.794138193
15.37,-0.865229785,0.419843674,-0.074522674
15.38,-0.831559897,0.420825005,-0.051505078
15.39,-0.862210929,0.642224312,-0.125585556
15.4,-0.669479847,0.528513908,-0.388008505
15.41,-0.457273185,0.345299721,-0.423162222
15.42,-0.327461302,0.181012154,-0.112427533
15.43,-0.310861468,0.181656838,-0.113419175
15.44,0.094930351,-0.131588936,0.06181721
15.45,0.046477675,-0.363595009,0.057193931
15.46,-0.010437399,-0.507063866,-0.012896381
15.47,-0.182932854,-0.554754257,0.028589621
15.48,-0.275939435,-0.509052277,0.054123219
15.49,-0.270086616,-0.508779526,0.054772627
15.5,-0.444621354,-0.510782242,-0.22523874
15.51,-0.640516043,-0.342638016,-0.703657866
15.52,-0.487175345,-0.248565674,-0.760483027
15.53,-0.426577091,-0.099323273,-0.486836672
15.54,-0.38225618,0.059534073,-0.062443689
15.55,-0.291268051,0.192000389,0.081393138
15.56,-0.280793369,0.192698479,0.091118708
15.57,-0.252976656,0.164795876,-0.229423374
15.58,-0.359438896,0.103378296,-0.360236496
15.59,-0.447631478,0.034914017,-0.486159861
15.6,-0.434056819,0.035960197,-0.472857922
15.61,-0.460269392,-0.017957687,-0.285752118
15.62,-0.144589484,0.02859211,-0.05659698
15.63,0.016225636,-0.020968437,0.045907468
15.64,-0.038215458,0.015482903,0.133965105
15.65,-0.031511545,0.015874863,0.132828504
15.66,0.016692936,0.035275459,0.091252923
15.67,-0.110891461,-0.031600952,-0.056437939
15.68,0.006659389,-0.021999359,0.067316607
15.69,0.005686462,-0.022170067,0.062704146
15.7,0.403679192,-0.091942787,-0.043404624
15.71,0.16928333,-0.161738396,0.068666056
15.72,0.356269538,-0.255465508,-0.133016154
15.73,0.170706987,-0.155368805,-0.165160462
15.74,0.073393524,-0.038444519,-0.103158996
15.75,0.259149253,0.016235352,0.204642937
15.76,-0.017697752,-0.024879456,0.124062941
15.77,-0.235570192,-0.032344818,0.136259884
15.78,-0.136645854,0.029672623,0.35161826
15.79,0.090953171,0.034187317,0.12151736
15.8,0.08799082,0.033974648,0.119876608
15.81,0.2711761,0.005049706,0.022990555
15.82,0.427251279,-0.02872467,0.236498058
15.83,0.315221787,-0.081806183,0.20201464
15.84,0.252729714,-0.149297714,0.109535538
15.85,0.249868065,-0.159374237,0.106939383
15.86,0.242459506,-0.159845352,0.103685923
15.87,0.18409577,-0.114706039,0.122982532
15.88,-0.029342711,3.43323E-05,0.14149785
15.89,-0.032455623,-7.82013E-05,0.144219965
15.9,0.210245401,-0.06964016,-0.178336546
15.91,0.204728991,-0.069850922,-0.173797727
15.92,0.479654968,-0.015160561,0.28836298
15.93,0.266536444,-0.010831833,0.098903075
15.94,0.09903568,0.012672424,-0.136832863
15.95,-0.108451396,0.031459808,-0.103498727
15.96,-0.20808503,0.043068886,0.050869331
15.97,-0.170849323,0.140896797,0.080905795
15.98,-0.124000847,0.131027222,-0.19174622
15.99,-0.121851564,0.154752731,-0.328182668
16,-0.120826066,0.070868492,-0.099015906
16.01,0.094521403,0.0300951,-0.033712238
16.02,0.056549847,0.030080795,-0.097660244
16.03,-0.032341301,-0.01294899,-0.080335617
16.04,-0.124806672,-0.065523148,0.053650051
16.05,-0.101940364,-0.058229446,0.167709634
16.06,-0.103207886,-0.058115005,0.17410256
16.07,-0.202595055,-0.101075172,0.073515311
16.08,0.005564868,-0.136856079,-0.30748567
16.09,-0.091435581,-0.139101982,-0.337449759
16.1,-0.077935278,-0.076712608,-0.105118901
16.11,-0.074272454,-0.011969566,0.049064636
16.12,-0.064642668,0.016934395,0.041109651
16.13,-0.113964051,-0.042639732,-0.056197256
16.14,-0.097813755,0.024734497,-0.052480519
16.15,-0.153288037,0.010703087,-0.011170238
16.16,-0.285733044,-0.065619469,-0.320406944
16.17,-0.352671593,-0.017334938,-0.484392881
16.18,-0.365605474,0.007098198,-0.499588341
16.19,-0.073524773,0.010029793,-0.126664609
16.2,-0.063094556,-0.047045708,-0.002624661
16.21,-0.022039115,-0.044312477,0.263645828
16.22,-0.110993803,-0.003416061,0.357506663
16.23,-0.109334618,0.032785416,0.264230341
16.24,-0.197737277,-0.007514954,-0.246322662
16.25,-0.194563329,-0.006940842,-0.236506492
16.26,-0.22399345,-0.028022766,-0.208115697
16.27,-0.004155368,0.015364647,0.038382202
16.28,-0.006524444,0.015500069,0.043413162
16.29,-0.171498448,-0.068222046,-0.424425066
16.3,-0.150098056,-0.072952271,-0.353926778
16.31,-0.209742129,0.010886192,-0.046948493
16.32,-0.211015493,0.010961533,-0.044106543
16.33,-0.069484293,-0.003295898,0.070349991
16.34,0.169610053,-0.108449936,0.072134107
16.35,0.207690269,-0.093743324,0.26537329
16.36,0.226822048,-0.028779984,0.343592644
16.37,0.049728483,-0.054726601,0.094356
16.38,-0.036167204,-0.123688698,-0.189145565
16.39,-0.038388997,-0.12314415,-0.177182138
16.4,0.005483449,-0.139512062,-0.221886873
16.41,0.015000492,-0.120071411,-0.100485206
16.42,0.009726644,-0.119832993,-0.092422009
16.43,-0.153330237,0.040822029,-0.252177
16.44,-0.234497279,0.041068077,-0.194602072
16.45,-0.173671722,0.053264618,0.005717695
16.46,-0.133594692,0.058149338,-0.02894032
16.47,-0.126516998,0.041498184,-0.118697465
16.48,-0.128646135,0.041727066,-0.113702118
16.49,-0.113957465,-0.029845238,-0.244446278
16.5,-0.108430862,-0.031955719,-0.083286166
16.51,-0.059773445,-0.048550606,0.030719399
16.52,-0.037811339,-0.093935966,0.072108209
16.53,0.067506999,-0.120125771,0.037552774
16.54,0.062040508,-0.117599487,0.11571759
16.55,0.053889215,-0.031353951,0.245267272
16.56,0.01475057,0.014118195,0.254083574
16.57,-0.071495891,-0.031322479,0.060001671
16.58,-0.07858482,-0.040763855,-0.118684053
16.59,-0.035903394,-0.074206352,-0.247415006
16.6,-0.077603489,-0.117232323,-0.237368584
16.61,-0.243778974,-0.098031044,-0.33066535
16.62,-0.260194212,0.04334259,-0.095448971
16.63,-0.221239597,0.050606728,0.052826226
16.64,0.02558589,0.053139687,0.4317891
16.65,-0.074352145,-0.025835991,0.169012398
16.66,-0.078047484,-0.025684357,0.173076242
16.67,0.057393104,-0.049600601,0.426606864
16.68,-0.094088525,0.02927494,-0.129373968
16.69,-0.241008163,0.043904305,-0.6852507
16.7,-0.241750211,0.04424572,-0.679695964
16.71,-0.202490181,0.133015633,-0.412927985
16.72,-0.21645388,0.142691612,0.161606729
16.73,-0.251931012,0.044581413,0.381158382
16.74,-0.083931297,-0.13741684,0.187759876
16.75,-0.110391855,-0.180498123,0.170134783
16.76,-0.079097599,-0.199698448,0.129629672
16.77,-0.064228892,-0.151882172,0.148569405
16.78,-0.053727269,-0.061026573,0.204933941
16.79,0.033784747,-0.065950394,0.213088632
16.8,0.114401028,-0.065907478,0.127937198
16.81,0.053901181,-0.072886467,-0.172995031
16.82,-0.023123056,-0.031811714,-0.102749586
16.83,-0.107647449,-0.03865242,0.204268605
16.84,0.039788127,-0.012087822,0.267787814
16.85,0.128595263,-0.007084846,0.075496316
16.86,0.091975972,0.045770645,0.02666229
16.87,-0.078662187,0.045880318,-0.015902519
16.88,-0.169876009,0.045969009,-0.039847434
16.89,-0.182025045,0.034080505,-0.121417642
16.9,-0.184288025,0.034205437,-0.118872047
16.91,-0.100001693,0.027188301,-0.03685534
16.92,-0.118416399,0.024909973,0.169119418
16.93,-0.15346098,-0.037208557,0.243423969
16.94,-0.010813385,-0.029803276,0.220445901
16.95,-0.06251061,-0.007951736,0.186807573
16.96,-0.075141042,0.023476601,0.148195088
16.97,-0.075751573,0.02367878,0.151103675
16.98,0.025908723,-0.026481628,0.076430678
16.99,-0.049811631,-0.009698868,0.230745316
17,-0.034310758,0.047747612,0.379121691
17.01,-0.018490493,0.042912483,0.194733322
17.02,-0.24427098,0.102928162,0.22810781
17.03,-0.130793452,0.107914925,0.168349385
17.04,-0.006669044,0.069825172,0.051614344
17.05,-0.039130837,0.048553467,0.173073113
17.06,-0.241720557,0.020064354,0.095314026
17.07,-0.227482617,0.05866909,0.017860353
17.08,-0.148495823,0.049414635,-0.018534362
17.09,0.250025004,0.049657822,0.461644143
17.1,0.263780803,-0.058037758,0.43687889
17.11,-0.004212499,-0.151306152,-0.070799232
17.12,-0.030905783,-0.122188568,0.06344223
17.13,0.026974723,-0.030974388,0.13571173
17.14,-0.168862164,-0.045166016,-0.336319685
17.15,-0.167250365,-0.044819832,-0.332393467
17.16,0.021950245,0.046193123,0.57768321
17.17,0.015879571,-0.033104897,0.718162477
17.18,0.014150262,-0.033492088,0.71372658
17.19,0.004880369,-0.067393303,0.405676872
17.2,-0.033975631,-0.058102608,0.110909343
17.21,-0.122216523,-0.010391235,0.063678324
17.22,-0.094365209,0.044644356,0.056266904
17.23,-0.097045034,0.047131538,0.091217399
17.24,-0.096933693,0.0473423,0.093813539
17.25,0.013377443,0.059447289,0.418769658
17.26,-0.027381957,0.050103188,0.15849185
17.27,-0.03402698,0.052949905,-0.005987823
17.28,0.007483184,0.051174164,0.006247163
17.29,0.065635815,-0.031952858,0.014535725
17.3,0.068635941,-0.012123108,-0.003594279
17.31,0.219847605,-0.025812149,0.023681223
17.32,0.087662146,-0.013429642,0.143618405
17.33,-0.05130896,0.051465034,0.390946418
17.34,-0.151975781,0.010955811,0.316842496
17.35,-0.20250836,-0.00073719,0.214763343
17.36,-0.111407548,-0.081818581,0.144557357
17.37,-0.044491768,-0.110207558,0.076617062
17.38,-0.045260996,-0.109989166,0.079619765
17.39,0.070850551,-0.112235069,-0.057239771
17.4,0.088424206,-0.071462631,0.004069626
17.41,0.082160041,0.024269104,0.128507316
17.42,-0.074630737,0.055244446,0.256228209
17.43,-0.120268673,0.054973602,0.382501423
17.44,-0.120351955,0.054737091,0.379751265
17.45,-0.089455232,0.045061111,0.18706888
17.46,-0.044154853,0.00436306,0.0984357
17.47,-0.037465975,-0.002747536,0.104230762
17.48,-0.002248868,-0.002670288,0.141247571
17.49,0.113995656,-0.021818161,0.110686064
17.5,0.074118406,-0.112786293,0.070446908
17.51,-0.05651626,-0.110368729,0.03285253
17.52,-0.119116664,0.014144897,-0.189466059
17.53,-0.276453137,0.054909706,0.064785659
17.54,-0.086075604,0.047577858,0.596561074
17.55,0.181325913,-0.039038658,0.941494942
17.56,-0.026019052,-0.106537819,0.208453596
17.57,-0.026081011,-0.106645584,0.207135797
17.58,-0.163714737,-0.051625252,0.134390414
17.59,-0.102204233,-0.051918983,0.07761097
17.6,-0.110878557,-0.047354698,-0.080866396
17.61,-0.111646324,-0.047568321,-0.08335501
17.62,0.057849243,0.052479744,0.404456705
17.63,-0.022194877,0.106883049,0.339961112
17.64,-0.154482856,0.163683891,0.349469781
17.65,-0.127606258,0.096014977,0.131361306
17.66,-0.128173247,0.095752716,0.128159583
17.67,-0.239610523,0.014279366,0.091137528
17.68,-0.325576514,-0.05753994,0.387355655
17.69,-0.104104161,-0.091054916,0.455683112
17.7,-0.101622567,-0.091026306,0.455228031
17.71,0.026500314,0.012054443,0.090128303
17.72,0.034575135,0.050544739,0.238287151
17.73,0.015936479,0.012401581,0.304749847
17.74,-0.040931657,-0.001815796,0.165354013
17.75,-0.020985141,-0.063842773,-0.061992884
17.76,-0.02562055,-0.109140396,-0.224790812
17.77,-0.026061282,-0.10895443,-0.222462058
17.78,-0.165301561,-0.044429779,0.161658049
17.79,-0.138982073,-0.020708084,0.278697312
17.8,-0.193977326,-0.013768196,0.400023907
17.81,-0.30584687,0.050630569,0.528454423
17.82,-0.155468509,0.050396919,0.314163715
17.83,-0.21895951,0.050237656,0.180191934
17.84,-0.216884464,0.050183296,0.178633928
17.85,-0.021901309,-0.043174744,-0.122987747
17.86,-0.035875916,-0.074264526,0.054567933
17.87,-0.035604119,-0.074339867,0.053291082
17.88,-0.049894363,-0.009821892,0.097199976
17.89,-0.095145643,0.009273529,0.160892904
17.9,-0.059102625,0.033082008,0.195228815
17.91,-0.075871617,0.042551994,0.375800222
17.92,0.022462308,0.047175407,0.438195497
17.93,0.066994905,0.044569016,0.304122627
17.94,0.029794544,0.049209595,0.108588934
17.95,-0.074260235,0.049103737,0.081401408
17.96,-0.039253578,0.049026489,-0.055896461
17.97,-0.152950615,0.051358223,-0.065745354
17.98,-0.119228214,0.08963871,-0.035229743
17.99,-0.118567705,0.089648247,-0.035268903
18,0.071492136,0.049054146,0.578796804
18.01,0.043122664,-0.070576668,0.366621673
18.02,-0.219684959,-0.051172256,0.022578478
18.03,-0.272569805,-0.139416695,0.117223799
18.04,-0.038004905,-0.045872688,0.281452835
18.05,-0.081431866,-0.048193932,-0.015200794
18.06,-0.074406356,0.045433044,-0.161197305
18.07,-0.072547585,0.045688629,-0.158576608
18.08,-0.085763186,0.086481094,0.277880251
18.09,-0.12492913,0.091296196,0.371139467
18.1,-0.166433871,0.062522888,0.171362817
18.11,-0.138381541,0.050579071,0.039418519
18.12,-0.174724191,0.050706863,0.119306862
18.13,-0.057367414,0.050867081,0.271457851
18.14,-0.045629025,0.051041603,0.349352449
18.15,-0.030906588,0.051189423,0.45808968
18.16,0.09433943,0.044085503,0.259215176
18.17,0.072885573,0.051415443,0.207692385
18.18,0.075536102,0.051639557,0.209422588
18.19,0.001575351,-0.008028984,0.306509018
18.2,0.06159173,-0.019759178,0.062067032
18.21,-0.080252737,0.004573822,-0.015174508
18.22,-0.099640518,-0.009367943,-0.044120729
18.23,0.052838668,0.036485672,0.007740915
18.24,0.007262677,0.04145813,0.127270758
18.25,-0.030891687,0.053560257,0.29400897
18.26,-0.216879427,0.015343666,0.30919233
18.27,-0.214832127,0.015485764,0.310212046
18.28,-0.219537169,0.025257111,0.211113215
18.29,-0.228510797,-0.003159523,0.074978232
18.3,-0.241881698,0.001959801,0.065848172
18.31,-0.134659976,-0.021603584,0.008937061
18.32,-0.082667023,0.036326408,0.14708823
18.33,-0.07890448,0.036718369,0.150391042
18.34,0.180757627,-0.022815704,0.344341874
18.35,0.113225967,-0.084796906,0.353958577
18.36,0.187092751,-0.065463066,0.324282676
18.37,0.063694626,-0.089297295,0.068813026
18.38,0.065451115,-0.089109421,0.070502043
18.39,-0.135951847,-0.062534332,-0.135879397
18.4,-0.120030463,-0.012054443,-0.162811816
18.41,-0.047404647,0.057547569,-0.024801195
18.42,-0.374654889,0.057696342,0.29990679
18.43,-0.290216476,0.057875633,0.035000622
18.44,-0.324878603,0.060580254,-0.032244921
18.45,-0.303299308,0.058559418,0.147413909
18.46,0.06765154,0.054045677,0.486124009
18.47,0.04533872,-0.000973701,0.651406407
18.48,0.061447114,-0.053661346,0.310507536
18.49,-0.039464384,-0.015275002,0.420623153
18.5,-0.05756852,0.030160904,0.420841783
18.51,-0.10605216,-0.09916687,-0.105877578
18.52,-0.102680922,-0.098949432,-0.10460037
18.53,-0.084621876,-0.125296593,0.196372151
18.54,-0.098831773,-0.020354271,0.737370849
18.55,0.058703721,0.000407219,0.716297329
18.56,-0.205964387,0.054644585,0.402741164
18.57,-0.44384262,0.056526184,0.113285124
18.58,-0.439452559,0.05636692,0.109312177
18.59,-0.190766692,0.022907257,-0.169899643
18.6,0.037431091,-0.012891769,0.16762358
18.61,0.185867593,-0.017653465,0.420693636
18.62,0.130213499,-0.060754776,0.352791756
18.63,0.132828087,-0.060565948,0.353734881
18.64,-0.047653079,-0.062520981,-0.006795585
18.65,-0.132225275,-0.021294594,-0.014246821
18.66,-0.124035418,0.015068054,0.092479467
18.67,0.035788804,-0.001357079,0.055022955
18.68,-0.043706834,0.058737755,0.156149626
18.69,-0.089967281,0.075613022,0.268283069
18.7,-0.100683898,0.075673103,0.137702406
18.71,-0.125510752,0.05907917,0.123536289
18.72,-0.116556764,-0.036494255,0.13567096
18.73,-0.190845609,-0.093770027,0.219359696
18.74,-0.189983726,-0.093680382,0.21996969
18.75,-0.269547224,-0.038526535,0.246453404
18.76,-0.185843855,-0.036063194,0.207790792
18.77,-0.183790118,-0.035914421,0.208480239
18.78,-0.022078723,0.004998207,0.023695767
18.79,-0.05641669,0.036342621,0.023162603
18.8,-0.059534669,0.060475349,0.177932322
18.81,0.006866097,0.046433449,0.218980968
18.82,-0.03436771,0.049145699,0.252977729
18.83,0.013114393,0.030322075,0.298989058
18.84,0.014567792,0.030631065,0.301811695
18.85,-0.023060501,0.014182091,0.120707214
18.86,-0.017967701,0.026475906,0.04782933
18.87,0.017254353,-0.037908554,0.03193289
18.88,-0.154279679,-0.066512108,-0.011388302
18.89,-0.174425513,0.026926041,0.049667478
18.9,-0.033609003,0.062805176,0.133351028
18.91,0.03005445,0.062747002,0.221883416
18.92,-0.002282858,0.026836395,0.310972512
18.93,-0.049128413,-0.047470093,0.626718402
18.94,-0.050703406,-0.047777176,0.623889267
18.95,-0.061999023,-0.153269768,0.242208242
18.96,0.08042559,-0.13435173,-0.066236913
18.97,0.078915477,-0.017020226,-0.120439291
18.98,0.077288479,-0.016908646,-0.11844343
18.99,0.017832965,0.11955452,0.447370857
19,-0.037523746,0.150492668,0.453815401
19.01,-0.08073315,0.061693192,0.232194543
19.02,-0.0825212,0.06156826,0.231579006
19.03,-0.147989363,0.047149658,0.109183669
19.04,-0.182900727,0.02322197,0.25266248
19.05,-0.013896555,-0.031701088,0.145905316
19.06,-0.012215495,-0.031333923,0.149319828
19.07,0.097274303,-0.13139534,0.261895299
19.08,0.112974137,-0.178847313,0.211271405
19.09,0.092565477,-0.168840408,0.076660275
19.1,0.052903831,-0.142114639,0.078262329
19.11,0.007846028,-0.146554947,0.108330667
19.12,-0.00669992,-0.081593513,0.059133947
19.13,-0.007456601,-0.081350327,0.062214375
19.14,-0.127828211,0.064813614,0.097467303
19.15,-0.12152046,0.076895714,0.007982135
19.16,-0.10107553,0.062648773,0.124604821
19.17,-0.102149874,0.062725067,0.12604475
19.18,0.009377986,-0.090468407,0.234591126
19.19,0.024651468,-0.087978363,0.181228161
19.2,0.023002833,-0.087924957,0.182700276
19.21,-0.037760049,-0.116685867,0.139661193
19.22,-0.016849279,-0.09041214,0.177536428
19.23,-0.130150616,-0.138354302,0.256229818
19.24,-0.129922092,-0.138462067,0.254950047
19.25,-0.048616648,-0.109825134,0.309005082
19.26,0.035049677,-0.062009811,0.198214352
19.27,-0.037356675,-0.002149582,0.148138583
19.28,0.003019542,0.009847641,0.021799088
19.29,0.002096891,0.009888649,0.022582054
19.3,-0.044650197,0.019465446,0.049531639
19.31,-0.093360722,0.005072594,0.142756641
19.32,-0.034309328,0.043251991,0.160937369
19.33,-0.124257356,0.021560669,0.095186889
19.34,-0.124552548,0.021515846,0.095105886
19.35,-0.243516088,0.064698219,0.04771322
19.36,-0.03442359,0.024076462,-0.112312794
19.37,-0.035481572,0.024157524,-0.110698342
19.38,0.179544076,-0.076565742,0.587670922
19.39,0.21007967,-0.096207619,0.710420907
19.4,-0.045979381,-0.194804192,0.201475978
19.41,-0.045941681,-0.194864273,0.200913429
19.42,-0.12948674,-0.199533463,-0.228874743
19.43,0.023152679,-0.194622994,0.067115664
19.44,0.124165103,-0.080111504,0.43546319
19.45,0.127694145,0.058064461,0.614770293
19.46,0.009427875,0.021381378,0.345098674
19.47,-0.148351252,-0.024745941,0.030966878
19.48,-0.10811317,-0.044285774,-0.149420202
19.49,-0.067385286,-0.025387764,-0.002966106
19.5,-0.040551066,-0.047166824,0.177125096
19.51,0.017565101,-0.052143097,0.175741553
19.52,0.111305162,0.000448227,0.261795104
19.53,0.106347174,0.038715363,0.307815313
19.54,0.036604375,0.019593239,0.096149981
19.55,0.034267157,0.019845009,0.100084424
19.56,-0.19514069,0.060850143,-0.049013436
19.57,-0.197037458,0.061092377,-0.045578182
19.58,-0.117954105,0.027721405,-0.02136606
19.59,-0.093901426,0.058945656,-0.002839684
19.6,-0.155592501,0.140396118,0.077528059
19.61,-0.246468544,0.121476173,0.099110067
19.62,-0.319581956,0.061933517,0.150063694
19.63,-0.216380686,-0.009588242,0.083193779
19.64,-0.213583171,-0.009272575,0.085555553
19.65,-0.045651078,-0.109625816,0.242456198
19.66,-0.165446162,-0.135957718,0.325479806
19.67,-0.033538133,-0.140890122,0.133663178
19.68,-0.086859584,-0.126683235,0.071364462
19.69,-0.008380502,-0.098187447,0.130303681
19.7,-0.007713288,-0.09855938,0.125886738
19.71,0.185818791,0.047113419,0.174534917
19.72,0.184570819,0.046751022,0.170931339
19.73,0.167351157,0.060832977,0.292393565
19.74,-0.009959608,0.101234436,0.334420919
19.75,-0.01031208,0.101037026,0.332363367
19.76,-0.0157471,0.060296059,0.083146036
19.77,-0.040888697,-0.03316021,0.118614435
19.78,-0.030550182,-0.026133537,0.112601042
19.79,-0.185275495,-0.035824776,-0.086736023
19.8,-0.326530397,0.055225372,-0.200866818
19.81,-0.287190586,0.05059433,-0.079863131
19.82,-0.056601673,0.05544281,0.476101399
19.83,0.09138979,-0.03085804,0.51090759
19.84,0.056691229,-0.126600266,0.346471548
19.85,0.055468142,-0.172136307,0.394491196
19.86,0.126716822,-0.102848053,0.266035974
19.87,-0.098967522,-0.079033852,-0.156461656
19.88,-0.087032706,0.043198586,-0.097694695
19.89,0.065674812,0.162892342,0.366798639
19.9,0.0627262,0.162529945,0.363755047
19.91,-0.004525006,0.135798454,0.477531731
19.92,-0.162742883,0.058799744,0.225024939
19.93,-0.202316165,0.003470421,0.069202542
19.94,-0.202855676,0.003307343,0.067707598
19.95,-0.226430774,0.000950813,0.115876615
19.96,-0.162451506,0.034658432,0.277769268
19.97,-0.095359564,0.037297249,0.440094441
19.98,0.166141525,0.051931381,0.511626244
19.99,0.139116138,0.028248787,0.219411194
20,0.140828192,0.028730392,0.224218011
20.01,0.034911305,0.060397148,0.160321891
20.02,0.027463317,0.013094902,0.055997074
20.03,0.014962018,0.028112412,-0.066754699
20.04,0.00682956,-0.004757881,-0.028927267
20.05,0.057843179,0.010154724,0.079685867
20.06,-0.019008279,-0.006284714,0.179239035
20.07,-0.019918978,-0.006058693,0.182049692
20.08,-0.018460244,0.037214279,0.253784895
20.09,-0.076656401,-0.00571537,0.188866496
20.1,-0.043340266,-0.043815613,0.090600014
20.11,-0.079123735,-0.0507164,0.067311287
20.12,-0.087982446,-0.043235779,0.024790287
20.13,-0.080199927,-0.095648766,-0.015592694
20.14,-0.127886981,-0.052362442,0.187395036
20.15,0.001575738,-0.023583412,0.362544239
20.16,0.108507946,0.01937294,0.428435624
20.17,0.028487414,0.059929848,0.307620645
20.18,-0.007574022,0.064640999,0.143878818
20.19,-0.138878614,0.064682961,0.103515446
20.2,-0.09704107,0.057562828,0.122991979
20.21,-0.057631761,0.024079323,0.16376394
20.22,-0.066128075,0.060037613,0.218822599
20.23,-0.134013921,0.060155869,0.255306065
20.24,-0.091270387,0.043579102,0.215766311
20.25,-0.209350705,0.005549431,-0.047573864
20.26,-0.266431987,0.063446999,-0.230744541
20.27,-0.177108824,0.044745445,-0.205587745
20.28,0.167205185,-0.005249023,0.586933494
20.29,0.274524361,-0.077280998,1.049384832
20.3,-0.053819507,-0.099163055,0.215120196
20.31,-0.219843745,-0.096684456,-0.091064036
20.32,-0.081092775,-0.012747765,0.283120513
20.33,-0.059485048,0.0014925,0.184937
20.34,-0.047837555,-0.020061493,0.064246774
20.35,0.087733805,0.013439178,0.226375878
20.36,-0.029783517,0.029998779,0.320149899
20.37,-0.030472666,0.029623032,0.316233277
20.38,-0.115148187,0.055400848,0.396766067
20.39,-0.163682491,0.06444931,0.17578572
20.4,-0.163355142,0.064219475,0.173092663
20.41,-0.152580947,0.049851418,0.019348323
20.42,-0.155366361,0.006887436,0.290578425
20.43,-0.102037162,-0.014507294,0.429867744
20.44,0.128224671,-0.035881996,0.392217398
20.45,0.088820219,-0.054821014,0.099406183
20.46,-0.063073635,-0.032904625,0.02655226
20.47,-0.061262488,-0.032542229,0.029621899
20.48,-0.084354192,-0.04429245,0.072302401
20.49,0.016159773,-0.015441895,0.133402288
20.5,0.008381605,0.006102562,0.296425283
20.51,-0.002197951,0.041908264,0.183141351
20.52,-0.118397385,0.029935837,0.145458996
20.53,-0.166835576,0.006024361,0.131743729
20.54,-0.224776864,-0.001142502,0.108061135
20.55,-0.202941418,-0.075300217,0.053678036
20.56,-0.202428192,-0.075200081,0.054571331
20.57,-0.149138629,-0.106214523,0.091180325
20.58,-0.097733378,-0.019979477,0.256538391
20.59,-0.096554995,-0.01990509,0.256874621
20.6,-0.068851918,0.004135132,0.068081558
20.61,-0.053553104,0.02819252,-0.012406766
20.62,-0.083529204,0.059477806,0.144562244
20.63,-0.077227622,0.042790413,0.158844352
20.64,-0.078275174,0.014109612,0.103794158
20.65,-0.112837285,0.011842728,0.135828316
20.66,-0.104012847,-0.011942863,0.220551074
20.67,0.014564216,-0.009506226,0.191857278
20.68,0.010576755,0.045544624,0.337332666
20.69,-0.117891043,0.028717041,0.360171795
20.7,-0.013799489,-0.031189919,0.107813716
20.71,-0.12582475,-0.050291061,0.005070806
20.72,-0.125207216,-0.050247192,0.005360544
20.73,-0.152692944,0.067189217,-0.084927022
20.74,-0.003067136,0.057722092,0.186240375
20.75,0.164478332,0.03375721,0.58361268
20.76,0.099246621,-0.006964684,0.425489992
20.77,-0.110915899,-0.023596764,0.029342234
20.78,-0.278581262,-0.080775261,0.182021797
20.79,-0.028904825,-0.032788277,0.347228646
20.8,0.008752048,-0.061532974,-0.096841455
20.81,-0.031213552,-0.066106796,-0.0229581
20.82,0.074069947,0.024839401,0.275924087
20.83,0.151299119,0.067585945,0.371076345
20.84,0.148664385,0.067140579,0.36752522
20.85,-0.001372606,0.066712379,0.38042742
20.86,-0.123025298,0.066557884,0.215632618
20.87,-0.203066379,0.040267944,0.148496628
20.88,-0.086218685,0.023566246,0.145919383
20.89,-0.058317751,-0.028959274,0.129975736
20.9,-0.013941288,-0.019195557,0.349419653
20.91,0.042488664,0.045635223,0.278924584
20.92,0.012799561,0.067490578,0.063796997
20.93,-0.011964232,0.084680557,0.058111787
20.94,-0.067845702,0.06831646,0.135861993
20.95,-0.065953881,0.068676949,0.138730347
20.96,-0.035597295,0.068994522,0.196568549
20.97,-0.213349789,0.031110764,0.145181596
20.98,-0.210645229,-0.061800003,0.03637445
20.99,-0.212711036,-0.128354073,0.061715066
21,-0.224244416,-0.108798981,0.122221112
21.01,-0.247859031,-0.113304138,0.138213217
21.02,-0.151482791,-0.132222176,0.091479063
21.03,-0.163867801,-0.086508751,0.104755104
21.04,-0.167115241,-0.007359505,0.141403973
21.05,-0.20679298,-0.019309044,0.069433272
21.06,-0.131961972,-0.024132729,0.018542349
21.07,-0.075090587,-0.012269974,0.120471001
21.08,-0.045875281,0.063996315,0.282949507
21.09,0.013337523,0.070646286,0.338724792
21.1,-0.054752171,0.089367867,0.280600131
21.11,-0.170135289,0.077052116,0.271170557
21.12,-0.22950837,0.069623947,0.080191672
21.13,-0.230862707,0.069530487,0.079844594
21.14,-0.103440911,0.050374985,0.114343703
21.15,-0.220221907,0.067134857,0.354489863
21.16,-0.106074184,0.057583809,0.17311728
21.17,-0.083279103,0.000313759,0.015248179
21.18,-0.197091848,0.005356789,-0.058131695
21.19,-0.104402274,0.063044548,-0.258970261
21.2,-0.009657115,0.070445061,-0.155790925
21.21,0.303642541,0.07034111,0.478764147
21.22,0.298934788,0.069916725,0.47641024
21.23,0.195265964,-0.172468185,0.51128149
21.24,-0.072185099,-0.196752548,0.27473408
21.25,-0.136343509,-0.153962135,0.281930625
21.26,-0.031035513,-0.013168335,0.018500447
21.27,-0.030722201,-0.013300896,0.016822159
21.28,0.055393696,0.010643005,-0.085910022
21.29,0.115807653,0.067901611,0.190190256
21.3,-0.02593115,0.165671349,0.316686988
21.31,-0.085972369,0.182082176,0.325989366
21.32,-0.049082309,0.153081894,0.139345288
21.33,0.02199015,0.093082428,0.016111076
21.34,0.05039528,0.059528351,0.106773198
21.35,0.11764133,-0.036206245,0.166990578
21.36,0.065723926,-0.07444191,0.299073458
21.37,0.134641111,-0.091051102,0.503427506
21.38,0.224683866,-0.134050369,0.396098435
21.39,0.158553109,-0.124334335,0.054829597
21.4,-0.000827253,-0.133648872,0.023722947
21.41,0.000816733,-0.133410454,0.025453269
21.42,-0.046676278,0.019869804,0.016345382
21.43,-0.1611844,0.075086594,-0.075756133
21.44,-0.122289449,0.142307282,-0.071643829
21.45,-0.155567616,0.10422039,-0.007282734
21.46,-0.181215137,0.056548119,0.138441205
21.47,-0.153646886,-0.02950573,0.29271555
21.48,-0.192747355,-0.058263779,0.409139514
21.49,-0.065978587,-0.070308685,0.438382655
21.5,-0.063639045,-0.07039547,0.436436921
21.51,-0.055863261,-0.077575684,0.262891769
21.52,-0.092822671,-0.087080956,0.108704984
21.53,-0.060004979,-0.094197273,0.150687695
21.54,-0.056121409,-0.094288826,0.147897601
21.55,0.040578306,-0.029808044,0.144690931
21.56,0.02927351,0.068216324,0.328433812
21.57,0.05409354,0.068043709,0.262795508
21.58,0.057191521,0.067959785,0.26058805
21.59,0.021922946,0.070406914,0.204584956
21.6,0.048809618,0.068048477,0.134215832
21.61,0.050603807,0.068084717,0.133646667
21.62,0.094324738,0.051275253,0.228652716
21.63,0.08021304,0.058346748,0.236711383
21.64,0.079660684,0.05815506,0.234932244
21.65,-0.039845258,-0.030534744,0.126152635
21.66,-0.244233698,-0.032977104,0.002699733
21.67,-0.309710711,0.010036469,0.123134136
21.68,-0.101357669,-0.030807495,0.258002579
21.69,0.103696585,-0.122029305,0.524147749
21.7,0.109277546,-0.179893494,0.448404402
21.71,0.014205396,-0.170773506,0.228803933
21.72,-0.132145524,-0.065783501,0.129289091
21.73,-0.129083395,-0.011027336,-0.102165043
21.74,-0.092919678,0.048674583,0.099529982
21.75,-0.048058599,0.069963455,0.410689265
21.76,-0.049678326,0.069478035,0.405924231
21.77,0.10548085,0.128671646,0.610687673
21.78,-0.093235135,0.108933449,0.277111709
21.79,-0.230395019,0.079781532,0.140768886
21.8,-0.229178935,0.079559326,0.137616575
21.81,-0.266856372,0.062839508,0.088863015
21.82,-0.184249371,0.041440964,0.182098031
21.83,0.010512471,-0.046929359,0.178043723
21.84,0.223230809,-0.116288185,0.577780724
21.85,0.157235652,-0.099614143,0.38714537
21.86,0.038565576,-0.078090668,0.060624361
21.87,-0.08481732,-0.063587189,-0.057966471
21.88,-0.095699787,-0.046630859,0.029720724
21.89,-0.145536453,-0.001044273,-0.055447638
21.9,-0.1501441,0.063733101,-0.013326287
21.91,-0.23169443,0.066244125,0.155704379
21.92,-0.231213063,0.06637001,0.156864524
21.93,-0.215755492,0.064161301,0.148888171
21.94,-0.21365121,0.064409256,0.150660694
21.95,-0.074446082,-0.045444489,0.03758055
21.96,-0.103325397,-0.037958145,0.140157461
21.97,-0.052908272,-0.037784576,0.167207301
21.98,-0.050890207,-0.037748337,0.166787505
21.99,-0.134769738,0.031780243,0.233557284
22,-0.184204638,-0.001670837,0.249386787
22.01,-0.209376484,-0.085404396,0.27679795
22.02,-0.10313791,-0.14282608,0.285025656
22.03,-0.02858147,-0.217041969,0.173615933
22.04,0.013635427,-0.157166481,0.161111176
22.05,0.021410972,-0.080575943,0.198594511
22.06,0.021689206,-0.080647469,0.197632253
22.07,-0.056797266,0.012644768,0.328071415
22.08,-0.075331002,0.055681229,0.298260689
22.09,-0.096339643,0.043685913,0.108655274
22.1,-0.143664032,0.017459869,-0.015102625
22.11,-0.143309236,0.017631531,-0.013216376
22.12,-0.326836586,-0.044389725,0.005661011
22.13,-0.2341111,-0.068099022,-0.033248186
22.14,-0.170785606,-0.0750494,0.033387661
22.15,-0.144620419,-0.096538544,0.252049208
22.16,-0.016460657,-0.099303246,0.799071252
22.17,0.08281818,-0.107160568,0.459341645
22.18,-0.023535013,-0.045329094,0.335272312
22.19,0.034684569,0.014260292,0.046860635
22.2,0.034904659,0.014271736,0.046858311
22.21,-0.064157575,0.021532059,-0.097839117
22.22,-0.085163832,0.059674263,0.210284352
22.23,-0.140001774,-0.002876282,0.198253572
22.24,-0.199288636,-0.005513191,0.016884267
22.25,-0.085090339,-0.036735535,0.02351439
22.26,-0.085748822,-0.036777496,0.023221552
22.27,-0.036992341,-0.005514145,0.091363549
22.28,-0.035400987,-0.005213737,0.094114006
22.29,-0.024144262,-0.019266129,0.12313652
22.3,0.108352453,-0.107604027,0.259702385
22.31,0.141632646,-0.059576035,0.359586924
22.32,0.141021818,-0.059544563,0.360303074
22.33,0.007329673,0.022110939,0.099681139
22.34,-0.123168826,0.046423912,0.038595736
22.35,-0.203725159,0.044395447,0.102096677
22.36,-0.200077683,0.066277504,0.112457216
22.37,-0.198597103,0.066563606,0.11482966
22.38,-0.147041053,0.071679115,0.036287129
22.39,-0.112246037,0.067221642,0.082465887
22.4,-0.129898906,0.019645691,0.092429876
22.41,-0.101739913,-0.032651901,0.08348006
22.42,-0.061498523,-0.087414742,0.12177974
22.43,-0.026386112,-0.07049942,0.184932649
22.44,-0.025432467,-0.070459366,0.18486619
22.45,0.1047737,-0.005858421,0.265317857
22.46,0.063571841,0.053858757,0.314365447
22.47,-0.02814588,0.005874634,0.189136982
22.48,-0.043056041,0.008225441,0.196188927
22.49,-0.043629467,0.008194923,0.196041346
22.5,-0.01085487,-0.058831215,0.088892102
22.51,-0.018756956,-0.034885406,0.15157038
22.52,-0.009752989,-0.030086517,0.233395577
22.53,-0.010120064,-0.030047417,0.23406601
22.54,-0.043823749,0.039468765,0.155974984
22.55,-0.058417618,0.020405769,0.178835452
22.56,-0.120931804,-0.041753769,0.184573531
22.57,-0.145014852,-0.113556862,0.139608204
22.58,-0.286185622,-0.127887726,-0.049224019
22.59,-0.213252634,-0.0583601,0.044572115
22.6,-0.154542923,-0.072684288,-0.044319987
22.61,-0.043806285,-0.098945618,0.35623306
22.62,0.005691409,-0.170887947,0.587502897
22.63,0.093117535,-0.250166893,0.580357552
22.64,-0.029992044,-0.214560509,0.302127123
22.65,-0.047640204,-0.106793404,0.033410966
22.66,-0.046205789,-0.10657692,0.035081506
22.67,-0.021199256,0.063785553,0.119918287
22.68,0.113577843,0.123687744,0.523864389
22.69,0.109517187,0.12332058,0.521834493
22.7,0.008343458,0.086735725,0.292334616
22.71,-0.10769859,0.066795349,0.104801714
22.72,-0.063084632,0.092339516,0.177850783
22.73,-0.030537248,0.127490044,0.24648428
22.74,-0.004400581,0.162798882,0.35240227
22.75,-0.041595876,0.157654762,0.333436787
22.76,-0.043368161,0.157647133,0.334414423
22.77,-0.034683913,0.071656227,0.210099697
22.78,0.038947344,-0.069480896,0.188053966
22.79,-0.009238303,-0.090790749,0.059289873
22.8,-0.00940606,-0.090473175,0.062902689
22.81,0.066962898,-0.099807739,0.065900087
22.82,-0.008234888,-0.037436485,0.22320044
22.83,0.014568895,-0.008706093,0.192765117
22.84,0.020218521,0.005651474,0.042750895
22.85,-0.163527101,0.065634727,-0.096272886
22.86,-0.327154636,0.065838814,-0.088742673
22.87,-0.262206167,-0.020113945,-0.148645878
22.88,-0.233630657,-0.132441521,-0.105467677
22.89,-0.114080012,-0.163415909,-0.024632871
22.9,-0.115206659,-0.163350105,-0.0234375
22.91,0.045645326,-0.062812805,0.094649136
22.92,0.016861171,-0.034088135,0.117388248
22.93,0.014834642,-0.034040451,0.118814468
22.94,-0.049199581,0.006718636,0.17047596
22.95,-0.002649724,0.064177513,0.305303395
22.96,-0.030090898,0.049822807,0.346618056
22.97,-0.181673437,0.052173615,0.291498423
22.98,-0.114427388,0.013872147,0.078384399
22.99,-0.098288804,-0.029038429,-0.02455163
23,-0.077423364,0.031025887,-0.043568552
23.01,-0.145259738,0.064667702,0.113867998
23.02,-0.145700187,0.064655304,0.113766611
23.03,-0.067164928,0.057390213,0.252089024
23.04,-0.130190015,0.016625404,0.278062582
23.05,-0.213604689,0.030950546,-0.048125029
23.06,-0.228868842,0.086062431,-0.211127698
23.07,-0.210216522,0.066919327,-0.104258597
23.08,0.171920747,0.06675911,0.695334673
23.09,0.171012998,0.066197395,0.689636171
23.1,0.049484879,-0.161739349,0.20380497
23.11,0.048894823,-0.161952019,0.201777458
23.12,-0.091308266,-0.178977966,0.377952427
23.13,-0.108723521,-0.196064949,-0.273148835
23.14,-0.071367383,-0.066803932,-0.147230506
23.15,0.039207399,0.064611435,0.311608315
23.16,-0.011000127,0.142941475,0.60431242
23.17,-0.014022976,0.142150879,0.596849501
23.18,0.068374127,0.040839195,0.178110898
23.19,-0.081957102,0.030757904,0.037948132
23.2,-0.158464193,0.049657822,0.031289458
23.21,-0.195217997,-0.015080452,0.10241878
23.22,-0.118501216,-0.062884331,0.163133085
23.23,-0.118543297,-0.062785149,0.164602459
23.24,0.112885624,0.054615974,0.517735601
23.25,0.154087275,0.061709404,0.498581976
23.26,0.043874443,0.061671257,0.113900304
23.27,-0.063616812,0.061955452,0.04391259
23.28,-0.005236715,0.007234573,0.010300159
23.29,-0.011834383,-0.05229187,-0.030530393
23.3,-0.054853499,-0.05201149,0.083780885
23.31,0.009795755,-0.032773972,0.241630197
23.32,-0.048024774,0.017426491,0.270788133
23.33,-0.050359339,0.017333984,0.270716071
23.34,-0.171437383,0.072445869,0.207102716
23.35,-0.224810243,-0.027978897,-0.07105571
23.36,-0.093998075,-0.104492188,-0.107798994
23.37,-0.076196164,-0.087665558,0.006192923
23.38,-0.056049079,-0.030235291,0.166676223
23.39,0.007355124,0.036595345,0.315798223
23.4,-0.029604435,0.057961464,0.328518629
23.41,-0.130352765,0.062618256,0.174049377
23.42,-0.10321641,0.021923065,-0.02742517
23.43,-0.121432185,0.026801109,-0.141695619
23.44,-0.216294229,-0.025733948,0.048370659
23.45,-0.100886226,-0.071306229,0.186213434
23.46,0.061285287,-0.069052696,0.235186875
23.47,0.102775097,-0.028479576,0.320714474
23.48,0.017446369,-0.007036209,0.243641496
23.49,-0.010109991,0.04080677,0.224569321
23.5,-0.049181163,0.033577919,0.090119183
23.51,-0.050242066,0.03347683,0.089476347
23.52,-0.008949846,0.002225876,0.002685785
23.53,-0.123861224,-0.002792358,-0.015706599
23.54,-0.126168937,-0.003022194,-0.017179132
23.55,-0.188398331,0.061462402,-0.101789177
23.56,0.149138346,0.061257362,0.768428385
23.57,0.129940167,-0.044566154,0.563913822
23.58,0.126061574,-0.044804573,0.562824726
23.59,-0.129649103,-0.071002007,-0.172023833
23.6,0.007858098,0.008005142,0.309636414
23.61,0.035508007,-0.008912086,0.068849802
23.62,0.108531117,0.036706924,0.049297452
23.63,0.110940933,0.029464722,0.408824205
23.64,0.037986964,0.060217857,0.504072428
23.65,-0.018972784,0.059677124,0.430237114
23.66,-0.10458082,0.059048653,0.410231441
23.67,-0.105454326,-0.00871563,0.336106122
23.68,-0.093782455,-0.04037571,0.065109491
23.69,-0.095528424,-0.040667534,0.062366188
23.7,-0.015797466,0.023686409,0.227172375
23.71,0.054222852,0.049729347,0.320251226
23.72,0.155053109,0.082923889,0.424861997
23.73,0.137598872,0.202241898,0.476495564
23.74,0.001072943,0.206737518,0.33753106
23.75,-0.067625612,0.156271935,0.376548708
23.76,-0.068843484,0.156023026,0.374075174
23.77,-0.027195841,0.055261612,0.33380717
23.78,0.016624808,-0.1124897,0.1987167
23.79,-0.073994279,-0.18219471,0.356579483
23.8,-0.009064108,-0.134701729,0.37882936
23.81,-0.104834735,-0.02025032,0.465002954
23.82,-0.163683534,-0.035120964,0.423371792
23.83,-0.132719278,-0.071461678,0.308057278
23.84,-0.177762181,-0.074191093,0.298777282
23.85,-0.144860804,-0.13432312,0.273167253
23.86,-0.143271804,-0.134595871,0.268936217
23.87,-0.020586848,-0.156484604,0.28591162
23.88,0.041588575,-0.085022926,0.326675654
23.89,0.067469105,0.051060677,0.300284445
23.9,-0.046024531,0.072327614,0.186929166
23.91,-0.062841147,0.050615311,0.148927987
23.92,-0.03904891,0.050540924,0.138253629
23.93,-0.039423585,0.050535202,0.138475299
23.94,0.07525523,0.05533123,0.351793706
23.95,0.074085578,0.055315971,0.352108002
23.96,0.113445327,0.050642014,0.275067538
23.97,0.060704648,0.050897598,0.196963549
23.98,-0.077823401,-0.011029243,-0.088673949
23.99,-0.02044934,-0.058570862,-0.081842601
24,-0.021584779,-0.058260918,-0.077222824
24.01,-0.0656991,-0.093874931,0.015390038
24.02,-0.065710515,-0.093475342,0.020494103
24.03,-0.172305465,-0.030755997,-0.019455671
24.04,-0.037763715,-0.068559647,0.065615296
24.05,0.143606439,-0.142356873,0.377650619
24.06,-0.175302953,-0.163472176,-0.505139589
24.07,-0.217663378,-0.148291588,-0.308893979
24.08,-0.111727297,-0.016181946,0.129356802
24.09,-0.110943735,-0.015914917,0.132383287
24.1,-0.287112892,0.104250908,-0.346202135
24.11,-0.146064729,0.078417778,-0.273998022
24.12,-0.027852416,0.076285362,-0.091635823
24.13,-0.028376132,0.076347351,-0.090749979
24.14,-0.229560673,0.176979065,0.075246871
24.15,-0.196433663,0.157995224,-0.023176074
24.16,-0.143218607,0.09601593,-0.103956342
24.17,-0.134715349,0.067732811,-0.108839452
24.18,-0.239842564,0.058748245,-0.110087752
24.19,-0.209065527,-0.019524574,-0.203766882
24.2,-0.124550283,-0.076068878,-0.207287073
24.21,-0.193079829,-0.134825707,-0.25700134
24.22,-0.098196387,-0.143104553,-0.309662879
24.23,-0.130701393,-0.201528549,-0.344088495
24.24,-0.124589622,-0.19995594,-0.32937783
24.25,-0.198537558,-0.129104614,-0.304384053
24.26,-0.144245327,-0.082342148,-0.266212106
24.27,0.034547508,-0.031085968,-0.20396179
24.28,0.047899276,-0.051945686,-0.112895429
24.29,0.030972272,-0.089797974,-0.119178236
24.3,-0.032068193,-0.113332748,-0.070729733
24.31,-0.233731687,-0.134516716,-0.211970687
24.32,-0.276533693,-0.225091934,-0.29814148
24.33,-0.345523626,-0.322937012,-0.337347508
24.34,-0.385056585,-0.322763443,-0.378183186
24.35,-0.36121586,-0.186121941,-0.333460748
24.36,-0.361339778,-0.186116219,-0.333346605
24.37,-0.253254294,0.019771576,-0.264129818
24.38,-0.277235866,0.029374123,-0.182588637
24.39,-0.157428354,0.036489487,0.072805882
24.4,-0.159026414,0.036132813,0.070013762
24.41,0.090298891,-0.055236816,0.103655279
24.42,0.13150911,-0.170658112,0.162363231
24.43,0.147922844,-0.226331711,0.069398105
24.44,0.123683304,-0.313147545,-0.026072443
24.45,0.118722171,-0.313818932,-0.031312823
24.46,-0.058348507,-0.175697327,-0.080386043
24.47,-0.089407891,-0.054411888,-0.271705329
24.48,-0.094466925,-0.055294991,-0.279157221
24.49,-0.001460642,0.029935837,-0.230087519
24.5,-0.146858066,0.064971924,-0.38402617
24.51,-0.052070737,0.202987671,-0.380076826
24.52,0.142470926,0.206604958,0.214466393
24.53,0.313086242,0.033156395,0.256955206
24.54,0.225226522,-0.159241676,-0.100755274
24.55,-0.019834071,-0.263033867,-0.300489128
24.56,-0.021202713,-0.263879776,-0.309752882
24.57,0.131828889,-0.05416584,-0.370993614
24.58,-0.036161095,0.057447433,-0.390885353
24.59,0.045509622,0.104521751,-0.247145951
24.6,0.042658269,0.17550087,0.137910724
24.61,0.042050064,0.174456596,0.125653863
24.62,0.101503909,0.190418243,-0.142455518
24.63,-0.566948891,0.190075874,-0.978117287
24.64,-0.526669383,0.209369659,-1.141508579
24.65,-0.624340177,0.078521729,-1.249944687
24.66,-0.621118903,-0.034609795,-1.396820784
24.67,-0.531897128,-0.237606049,-1.389439583
24.68,-0.401734859,-0.418120384,-0.993279159
24.69,-0.227906853,-0.682250023,-0.788987756
24.7,-0.176361263,-0.956384659,-1.04458189
24.71,-0.157167047,-0.952776909,-1.016001701
24.72,-0.527452529,-1.08537674,-1.488040566
24.73,-1.223619938,-0.949011803,-1.493720412
24.74,-1.610515952,-0.694009781,-1.121232152
24.75,-1.571829796,-0.301996231,-0.043924093
24.76,-1.043442249,-0.097802162,0.951713502
24.77,-0.67606318,0.026656151,1.780459881
24.78,-0.587493777,-0.105659485,2.145950794
24.79,-0.838459075,-0.396265984,1.89677906
24.8,-0.847178698,-0.402053833,1.832072616
24.81,-0.964068174,-0.903518677,1.481936216
24.82,-1.253149986,-1.598528862,1.094456553
24.83,-1.794360638,-2.431727886,0.578698456
24.84,-2.038233995,-3.405488491,0.138832629
24.85,-1.123310924,-4.84785223,0.326164454
24.86,-0.344212413,-5.286468029,0.289052218
24.87,0.259925902,-5.58791256,0.333837688
24.88,0.549272001,-5.7114501,0.900600433
24.89,0.293466687,-5.824334145,1.514576554
24.9,0.276033282,-5.82300663,1.374022841
24.91,0.497675031,-6.081097603,1.619575977
24.92,1.630025506,-6.592354298,0.692458153
24.93,2.602632284,-7.009026051,-0.143262595
24.94,3.055699587,-6.928679943,-0.834784925
24.95,2.684763432,-6.492744446,-1.445757985
24.96,2.844580889,-2.210299492,-0.744024217
24.97,2.263992786,1.103032112,-3.478482008
24.98,1.360580564,6.335900307,-7.630945206
24.99,0.733012259,10.3994112,-8.741392136
25,0.042371336,13.34196091,-4.567008018
25.01,-1.750191331,14.4487505,2.06743598
25.02,-1.797226906,14.46655273,1.944100738
25.03,-1.262804031,6.808413506,3.636085033
25.04,0.314128697,2.756277084,-2.497409582
25.05,0.346209467,0.832821846,-5.058198929
25.06,0.442995012,-0.289611816,-3.773547649
25.07,0.386818051,-0.277451515,-3.826342821
25.08,0.015401661,-2.278342247,-1.435086966
25.09,0.258366585,-2.984550953,-0.564416289
25.1,-0.456996679,-3.395053864,-0.35080719
25.11,-0.493575454,-3.369299889,-0.456337452
25.12,-0.731979132,-3.012129307,-0.488878965
25.13,-0.482923865,-2.682934761,-0.700950265
25.14,-0.561682761,-2.495134354,-0.789196611
25.15,-0.597835779,-2.251703739,-0.354426146
25.16,-0.35823828,-1.98348093,-0.021285295
25.17,-0.348717272,-1.948058605,-0.139476776
25.18,0.259644866,-1.451228142,-0.409957171
25.19,0.609390914,-0.790582657,0.073156357
25.2,0.658460856,-0.20002079,0.896345377
25.21,1.025130987,0.642614365,1.45344162
25.22,1.181959391,1.731619835,1.280927658
25.23,1.332798719,3.119292259,1.150696516
25.24,0.952287436,4.711050034,0.822362185
25.25,1.246326923,6.404214859,0.742317438
25.26,1.086381674,7.459391594,1.029862165
25.27,0.75325352,7.96709156,1.279396057
25.28,0.626924574,7.653475761,1.200460196
25.29,0.769276023,6.734160423,1.053195953
25.3,0.265632808,5.597450256,1.044234037
25.31,0.149696112,4.109314919,1.259234905
25.32,0.143036962,4.111286163,1.255331039
25.33,-1.086493373,0.269684792,2.526619196
25.34,-1.117840648,-1.616410255,2.988831997
25.35,-1.746134996,-2.696404457,4.175374985
25.36,-1.405618429,-3.019895554,5.026746273
25.37,-0.83678478,-2.63574028,4.131421089
25.38,-1.045948863,-1.087131023,2.250607014
25.39,-1.078015685,-1.037406445,2.148223877
25.4,-3.677296162,5.142560959,-1.365020752
25.41,-4.516840458,9.808573723,-2.585426807
25.42,-5.873490334,12.85478687,-0.46220994
25.43,-5.798350334,14.5331831,1.780396461
25.44,-4.676931381,15.78370667,4.177445889
25.45,-4.608778477,15.7887392,4.15981102
25.46,0.225415111,12.40805435,4.444436073
25.47,2.084605932,8.48439312,1.636065006
25.48,1.340972662,5.663484573,-1.395628691
25.49,-0.160564214,3.411606789,-3.983803749
25.5,0.35162276,0.675720215,-4.044155121
25.51,2.339962006,-2.0347085,-1.41036272
25.52,3.592936516,-3.750441074,0.221287727
25.53,3.165540457,-5.344225883,0.843990564
25.54,2.132571936,-7.103318691,1.181092501
25.55,0.706688225,-8.75521946,1.799252272
25.56,0.006687164,-9.930511475,0.627435207
25.57,-0.062263072,-9.92592907,0.632250071
25.58,-0.711350083,-10.71003532,-2.251074791
25.59,-2.494063854,-10.47978497,-4.29710722
25.6,-2.175545692,-10.61104679,-3.506890059
25.61,-2.240608692,-10.60723686,-3.496593714
25.62,0.043193698,-10.97727108,-4.394963741
25.63,-0.041584969,-10.59355354,-4.199953556
25.64,-0.256994247,-10.19070435,-4.336433887
25.65,-0.207146645,-8.941980362,-4.335141659
25.66,-0.232624769,-8.93411541,-4.344003677
25.67,2.241144657,-4.578948975,-5.743124962
25.68,4.253365993,-0.901072979,-4.564583778
25.69,6.417076111,2.567130089,-3.305224657
25.7,7.752309799,6.387694359,-1.074754715
25.71,6.708035469,9.225110054,2.082764149
25.72,4.950973988,10.69429111,4.677079201
25.73,1.624171257,11.84627151,5.93347168
25.74,-1.369247556,12.44200802,5.483416557
25.75,-0.33274436,11.56030464,3.458182096
25.76,-0.652717948,10.48587704,-0.036458254
25.77,-0.47011894,9.409966469,-0.47178793
25.78,-1.494761586,8.53558445,2.621485233
25.79,-1.152593255,7.398854256,2.67658329
25.8,-1.32781291,5.400103569,2.854851246
25.81,-1.037216902,2.54178524,4.480574608
25.82,-0.758329928,-0.192997932,7.528782368
25.83,-1.209824681,-3.696865082,9.520366669
25.84,-1.19897902,-3.697366714,9.519472122
25.85,-4.13341713,-9.170049667,-0.816470623
25.86,-4.137413979,-9.181084633,-0.793301106
25.87,-5.088858604,-9.955607414,-8.027936935
25.88,-4.558897972,-9.965565681,-7.218606949
25.89,-3.693575621,-10.53572273,-3.040684223
25.9,-3.32165432,-11.25618172,1.435792923
25.91,-3.412992716,-11.18272495,4.502259731
25.92,-3.474491119,-11.11125946,4.378535748
25.93,-3.598780632,-10.65535355,4.346415997
25.94,-3.297585011,-9.8562603,2.666042328
25.95,-3.833748341,-8.509112358,-0.382506847
25.96,-3.311073065,-6.455639839,-3.366523266
25.97,0.823846579,1.580215454,-1.881665707
25.98,0.82056737,1.57568264,-1.873869419
25.99,3.878722429,8.704023361,5.477759361
26,2.935114861,10.00661469,10.13189125
26.01,1.797235489,10.06406212,14.34700584
26.02,0.437381983,10.51945114,17.57876587
26.03,-0.580731392,9.910585403,15.13963318
26.04,-1.295933247,10.12711334,5.554069519
26.05,-2.694315195,11.18947697,-2.362555027
26.06,-3.27359724,12.11159515,-4.952250957
26.07,-1.633869171,12.00710869,-3.722505569
26.08,-1.569805264,11.9616518,-3.653884411
26.09,2.313177347,9.710972786,-0.555840492
26.1,2.286815882,8.153307915,1.147533894
26.11,2.302110434,8.146054268,1.158519268
26.12,2.03053236,3.731309891,5.577040195
26.13,1.541508675,1.024923325,6.384745598
26.14,1.544886947,0.98084259,6.462975979
26.15,2.058321714,-2.408625603,6.130629539
26.16,1.984624267,-8.200800896,1.077610016
26.17,0.58248502,-10.82379723,-3.195130348
26.18,-0.462238312,-12.98164558,-7.271094322
26.19,-0.713221431,-14.07565784,-11.06449127
26.2,-0.910092235,-14.37473297,-12.09466934
26.21,-0.931810141,-14.42136955,-11.98227787
26.22,-0.335860938,-13.09334755,-4.100298882
26.23,-0.404950231,-13.0684433,-4.146863937
26.24,0.893428266,-11.09913445,2.330780745
26.25,0.829231679,-11.06767273,2.272552252
26.26,0.127975822,-9.404415131,-2.480255127
26.27,1.2002635,-7.661187172,-8.508717537
26.28,4.219022751,-3.025016308,-7.496639252
26.29,9.127581596,1.163639069,-1.298134089
26.3,11.7885704,4.349525452,2.917896271
26.31,10.46228218,7.203287125,4.426303864
26.32,10.34322739,7.208788872,4.450982094
26.33,6.166824818,8.718898773,7.75607872
26.34,3.163968563,8.669157982,7.238358498
26.35,-0.612331569,9.892622948,4.833621025
26.36,-1.933535695,10.08787441,0.359475851
26.37,-2.47654748,11.15355301,-0.525315523
26.38,-3.701451302,11.53491116,-1.002326012
26.39,-3.142540455,11.1487112,-1.869550347
26.4,-2.782979965,10.30066872,-1.183557034
26.41,-2.321947336,8.930523872,2.185949087
26.42,-2.348646164,8.998170853,2.03477931
26.43,-0.088149905,5.298708916,10.90135288
26.44,1.112549663,2.480800629,13.37408066
26.45,2.552767038,-1.911989689,14.22931099
26.46,1.294641018,-6.932323456,10.69630051
26.47,-2.814418793,-10.5459938,2.37159586
26.48,-5.404663086,-13.29385376,-7.165155411
26.49,-5.338158131,-13.3521595,-7.040436745
26.5,-8.189588547,-14.75732994,-13.20542526
26.51,-6.252145767,-14.25647545,-7.558991909
26.52,-3.686701775,-14.52130699,-2.919707298
26.53,-3.689367533,-14.72854042,2.204738617
26.54,-3.698721886,-14.69315815,2.118192673
26.55,-4.693073273,-13.56448174,0.851070404
26.56,-3.790009022,-12.22387123,-3.202593327
26.57,-3.809918165,-12.20249176,-3.249451637
26.58,-2.867108107,-7.397042274,-4.536837101
26.59,-2.514672756,-4.266969204,-3.350063086
26.6,-1.946055889,-0.406513214,-1.357214928
26.61,2.162535667,3.500567436,1.75330925
26.62,2.185978174,3.507987022,1.734081745
26.63,2.40877223,12.08755207,10.15369415
26.64,-1.02643621,15.241539,9.531489372
26.65,-1.251120806,16.38121223,11.02267647
26.66,-0.063524455,15.53870773,17.13293648
26.67,-1.482204556,14.99136162,13.66687775
26.68,-4.542467117,15.21175957,3.192974567
26.69,-6.41664505,14.63802528,-5.650115967
26.7,-6.387579441,14.5820055,-5.53079319
26.71,-1.422687531,7.842319489,-2.236418247
26.72,-0.27855897,4.129976273,0.9206388
26.73,1.027533174,0.670730591,3.226136684
26.74,3.027368069,-2.687397957,7.028240204
26.75,5.665495396,-4.990642548,9.267252922
26.76,7.405749798,-6.961301804,8.436256409
26.77,7.303127289,-6.960757256,8.452339172
26.78,3.356258631,-9.032390594,-3.070276737
26.79,0.396743119,-9.926739693,-8.763681412
26.8,-0.954462349,-10.59452343,-9.423951149
26.81,-1.696973562,-11.05853081,-7.700146198
26.82,-2.143032074,-11.52106953,-5.578939438
26.83,-2.208346367,-11.52507401,-5.548874855
26.84,-0.633956969,-12.96177483,-1.367301464
26.85,-0.61653769,-13.21805,-0.14863658
26.86,-0.519179463,-12.92904282,-0.911233187
26.87,-0.609241247,-12.90179253,-0.941048384
26.88,-0.833542109,-12.13833237,-3.447263241
26.89,-1.056837082,-10.72251606,-6.683035851
26.9,-0.595757008,-6.222866535,-8.630270004
26.91,0.896619916,-3.515471935,-7.329197884
26.92,6.683273315,1.759740829,-1.018992424
26.93,12.10455608,5.513570786,5.273592472
26.94,12.45432281,9.009814262,7.417871475
26.95,8.965393066,11.94191551,6.024517059
26.96,4.585621834,11.90630054,5.30201149
26.97,1.925461769,11.41906548,8.083567619
26.98,1.236099482,10.96014214,10.55180645
26.99,-0.213111162,10.88601589,9.06230545
27,-3.025501251,11.14527988,6.518281937
27.01,-3.41962862,11.25346851,4.335557938
27.02,-2.054060459,10.55587292,2.46335268
27.03,-1.311877489,9.443193436,1.825589657
27.04,-0.643249035,8.991853714,2.963965893
27.05,-0.423708081,8.490970612,5.100753307
27.06,0.27582264,7.628475189,6.538808346
27.07,1.101355433,5.365491867,9.194665909
27.08,1.710946321,0.539139748,9.825033188
27.09,1.749290466,0.50153923,9.891956329
27.1,0.781500578,-5.545409203,7.173922062
27.11,-1.801808357,-10.03977394,2.478143215
27.12,-4.300946712,-13.73832512,-4.202012539
27.13,-5.60683918,-16.41380692,-11.65856838
27.14,-5.564845562,-16.46784592,-11.52903366
27.15,-5.254041195,-15.97237015,-8.510373116
27.16,-6.175102711,-14.30858994,0.096491814
27.17,-6.197156429,-14.28019905,0.025699854
27.18,-8.294393539,-13.06877136,2.947972298
27.19,-8.32157135,-13.03762436,2.875950098
27.2,-4.601186752,-10.86731434,-2.071828604
27.21,-4.047728062,-8.771568298,-3.627650738
27.22,-4.269424438,-5.818238258,-3.710362196
27.23,-3.055515766,-2.326431751,-3.02280283
27.24,-3.031511784,-2.331233501,-3.019100666
27.25,0.328458667,2.531238556,-0.152472973
27.26,3.258784294,9.222113609,6.704623222
27.27,1.501167655,13.51167965,7.35532856
27.28,0.481676698,15.03291893,12.30793953
27.29,-0.045065403,14.88867378,19.62005615
27.3,-2.185106277,15.10417461,19.76885605
27.31,-5.885710716,15.29555798,9.808250427
27.32,-8.574811935,15.24318504,-1.136314631
27.33,-8.083504677,13.59736443,-6.462082863
27.34,-5.09337616,10.43461895,-6.391734123
27.35,-5.083575249,10.4190197,-6.355456829
27.36,0.328089476,3.92814827,3.21817708
27.37,1.827070475,1.978806496,7.218595028
27.38,3.581727028,-0.850104332,10.32273865
27.39,3.531003475,-0.841545105,10.31412315
27.4,6.323653221,-5.363918304,7.892151833
27.41,4.675945759,-7.286454678,3.042966127
27.42,4.634231091,-7.320365429,3.139678717
27.43,0.402847171,-11.21839142,-6.316415787
27.44,-0.369905531,-12.71943188,-8.721839905
27.45,-0.201910913,-13.55984116,-9.05531311
27.46,0.08352828,-13.96549225,-7.319508076
27.47,-0.826397538,-13.96899414,-4.081100941
27.48,-1.255957723,-13.64507675,-0.919930458
27.49,-1.332190752,-13.62257004,-0.953303099
27.5,-1.014698505,-11.66077232,-1.160518169
27.51,0.125771999,-11.0034523,-4.367354393
27.52,-0.623112977,-10.79257393,-8.296462059
27.53,-1.694205403,-10.15816879,-9.673005104
27.54,-1.45337224,-8.169505119,-8.70108223
27.55,-1.472125769,-8.155357361,-8.730861664
27.56,0.388698697,-4.557981491,-5.374186039
27.57,5.941702843,1.062096596,-0.031882763
27.58,11.88010597,3.198493004,7.642895222
27.59,9.506944656,10.59418106,6.367478848
27.6,8.070882797,12.97139549,7.806982994
27.61,3.337242365,16.12993813,9.030421257
27.62,-0.651793599,18.12068367,6.844615459
27.63,-2.504972458,18.77775955,3.549560785
27.64,-5.779829502,18.67237854,0.762693405
27.65,-5.571244717,16.17783928,0.576825857
27.66,-3.278679371,13.1064806,3.771659613
27.67,-3.24356246,13.14125347,3.671412945
27.68,-1.899457812,9.478057861,6.365241051
27.69,-0.439512491,3.708450317,6.926482201
27.7,0.197685599,0.238409042,7.435720921
27.71,0.443934202,-3.467036247,8.24053669
27.72,0.494409919,-3.510437965,8.331140518
27.73,-0.385850847,-7.598172188,7.294956684
27.74,-3.35248518,-10.46507931,4.50864315
27.75,-7.043299198,-14.33873463,-9.25226593
27.76,-7.794969559,-13.76465607,-10.71886063
27.77,-7.040672302,-13.23391724,-8.960336685
27.78,-7.00480032,-13.26611328,-8.867897034
27.79,-5.421457291,-13.24767017,-6.603634834
27.8,-4.265847683,-13.39326096,-4.183188915
27.81,-2.801894665,-13.12064171,4.121511459
27.82,-3.143663645,-11.99321175,5.001869202
27.83,-3.184225559,-11.96425915,4.929421425
27.84,-4.942564487,-8.555784225,-2.04686451
27.85,-5.205042362,-6.962011337,-4.639067173
27.86,-5.354905605,-5.928700447,-4.841166496
27.87,-2.07537818,-2.333787918,-3.598914385
27.88,5.41905117,2.288656235,0.417708397
27.89,6.974469662,4.849573135,3.350826263
27.9,7.221354485,10.25439548,7.297211647
27.91,4.603821754,13.97215271,11.7565279
27.92,4.549578667,14.0506916,11.5658741
27.93,-1.718010068,19.82252884,24.21638107
27.94,-10.92779446,22.27815056,22.07150078
27.95,-17.59353447,22.75580215,5.924433708
27.96,-17.51847076,22.68845558,6.061962128
27.97,-4.67894125,11.81674957,-5.607953548
27.98,1.743627667,6.851032257,1.000697136
27.99,4.152760983,4.093941689,3.228460312
28,4.70081377,1.831943512,4.334240913
28.01,5.75407362,-1.041543961,5.465050697
28.02,6.74905014,-3.738657951,6.834082127
28.03,7.179538727,-6.306099892,6.246022224
28.04,4.373233795,-8.593044281,1.250144958
28.05,0.74701941,-10.49411201,-5.253533363
28.06,-1.723402739,-12.0981636,-10.50947571
