Time (s),Linear Acceleration x (m/s^2),Linear Acceleration y (m/s^2),Linear Acceleration z (m/s^2)
0,-0.12957871,0.046586037,0.190232605
0.01,-0.102487505,0.063286781,0.257631898
0.02,-0.034821689,0.07277298,0.270053625
0.03,-0.034449339,0.072699547,0.266439676
0.04,-0.019431353,0.122943878,0.330687225
0.05,0.081071675,0.144459724,0.236031622
0.06,0.095265865,0.063011169,0.204282999
0.07,0.006359041,0.036626816,0.150414527
0.08,0.004977524,0.036529541,0.149490982
0.09,-0.113932014,0.026834488,-0.033221543
0.1,-0.16804868,0.048254967,0.05392082
0.11,-0.100675285,-0.006987572,-0.067425877
0.12,-0.025323629,-0.002443314,0.010976806
0.13,-0.030806303,-0.002828598,0.008034647
0.14,0.211589992,-0.07759285,0.691533864
0.15,0.176840574,-0.07571888,0.359917641
0.16,0.111627281,-0.03780365,0.128641248
0.17,-0.048731387,-0.026159287,0.117030591
0.18,-0.030011952,-0.009747505,0.174456045
0.19,-0.039319634,0.006541252,0.293285966
0.2,-0.044195056,0.04195118,0.439807534
0.21,-0.032216847,0.04381752,0.599092841
0.22,-0.100714088,0.045701981,0.544261873
0.23,-0.105358064,0.045326233,0.538055539
0.24,-0.050097406,-0.057789803,0.156903431
0.25,-0.010922551,-0.129691124,0.104900233
0.26,-0.107900977,-0.208742142,0.147485256
0.27,-0.06307435,-0.242259026,0.268298745
0.28,0.019603968,-0.201626778,0.229810447
0.29,-0.015954554,-0.189757347,0.148604468
0.3,-0.051520646,-0.173112869,0.148738027
0.31,-0.053459644,-0.173226357,0.148107812
0.32,-0.077337623,-0.075203896,0.101297103
0.33,-0.104188323,0.001233101,0.147170082
0.34,-0.128908455,0.032099724,0.34185499
0.35,-0.133016884,0.031826973,0.338638067
0.36,0.025158405,0.031556129,0.271963358
0.37,0.023668379,-0.02372551,0.244439572
0.38,0.015598595,-0.071791649,0.13882187
0.39,-0.126050472,-0.067147255,0.27973181
0.4,-0.127748489,-0.067257881,0.278696001
0.41,0.087880522,-0.165535927,0.209070817
0.42,0.010939687,-0.223109245,0.133586049
0.43,-0.015057653,-0.235147476,0.134976566
0.44,-0.007912189,-0.182585716,0.161766067
0.45,-0.0108836,-0.182744026,0.161716446
0.46,0.243947074,-0.147016525,0.366950691
0.47,0.239714846,-0.147229195,0.366414607
0.48,0.271641493,-0.123492241,0.392266631
0.49,-0.028088599,-0.118850708,0.312084854
0.5,-0.030240238,-0.11896801,0.311373055
0.51,-0.215687662,-0.092671394,0.141879574
0.52,-0.10338074,-0.159712791,0.058732659
0.53,-0.10518384,-0.159787178,0.059120998
0.54,-0.055388987,-0.128791809,0.152127594
0.55,0.225812122,-0.136224747,0.756854415
0.56,0.316610754,-0.280239105,0.547948003
0.57,-0.016800344,-0.113016129,0.224349886
0.58,-0.310471177,0.028068542,0.026248544
0.59,-0.198411942,0.030369759,-0.031636119
0.6,-0.288681328,-0.008090019,0.266040742
0.61,-0.121754497,-0.103960037,0.653605461
0.62,-0.121463239,-0.104039192,0.647700787
0.63,0.069185406,-0.455981255,0.64357394
0.64,-0.014265478,-0.52747345,0.717246175
0.65,-0.015505165,-0.646695137,0.516313195
0.66,-0.19994539,-0.662863731,0.057253629
0.67,-0.18013674,-0.626238823,-0.244232148
0.68,0.105499327,-0.568136215,-0.197855681
0.69,0.22387591,-0.445644379,-0.067555949
0.7,0.226505965,-0.445472717,-0.064821944
0.71,0.161411852,-0.30408001,0.054227367
0.72,0.040441155,-0.088515282,0.160753533
0.73,0.000144839,-0.023852348,0.254588842
0.74,-0.281566501,0.148584366,0.276358604
0.75,-0.534917235,0.35225296,0.039742991
0.76,-0.530719221,0.352487564,0.041077495
0.77,-0.460240126,0.436494827,-0.16638951
0.78,-0.237453997,0.484510422,-0.137370929
0.79,-0.300183952,0.441508293,0.078052334
0.8,-0.412225962,0.321941376,0.307010412
0.81,-0.408576787,0.322119713,0.306217372
0.82,-0.222982347,0.042208672,0.104541384
0.83,-0.360569239,0.052061081,-0.044615537
0.84,-0.406281829,0.064368248,-0.041946247
0.85,-0.214932025,0.093426704,-0.001488641
0.86,-0.070737362,0.074514389,0.093408965
0.87,0.067326188,0.03636837,0.121413201
0.88,0.152034015,0.019770622,0.083566532
0.89,0.152346879,0.019908905,0.089876816
0.9,0.137713969,-0.075739861,0.00272961
0.91,0.137126803,-0.075645447,0.008696079
0.92,-0.179898739,-0.034892082,-0.005576968
0.93,-0.1807127,-0.034873009,-0.002560109
0.94,-0.174207747,0.087236404,-0.086490735
0.95,-0.176457882,0.087199211,-0.083186954
0.96,-0.0867818,-0.037447929,0.177703172
0.97,-0.091584504,-0.037754059,0.176144257
0.98,0.156549394,-0.052544594,0.620981574
0.99,0.270210087,-0.019253731,0.468476713
1,0.136750668,0.033341408,0.066875219
1.01,-0.082211494,0.071610451,-0.197404742
1.02,-0.079620302,0.093029976,0.163353264
1.03,-0.081146836,0.147813797,0.554349542
1.04,-0.078659356,0.118708611,0.74724555
1.05,-0.050910294,0.048970222,0.614894152
1.06,-0.155976117,0.032027245,0.196392968
1.07,-0.15603292,0.032004356,0.195450455
1.08,-0.183985949,0.03208065,-0.004025668
1.09,-0.192300439,0.03219223,-0.056671456
1.1,-0.145272553,0.032318115,0.155735642
1.11,-0.047758102,-0.022627831,0.17003201
1.12,-0.045452893,-0.022402763,0.174874738
1.13,-0.121415496,0.018591881,0.135352179
1.14,-0.163398266,0.033289909,0.127355158
1.15,-0.088244975,0.016867638,0.115126148
1.16,-0.068660557,-0.013951302,-0.002459154
1.17,-0.066510201,-0.013638496,0.005276993
1.18,-0.258822918,-0.015749931,0.156452656
1.19,-0.24689883,-0.013080597,0.111927033
1.2,-0.254216492,-0.07267189,0.023534283
1.21,-0.312090099,-0.04132843,0.032493249
1.22,-0.34324199,-0.031517029,0.096080437
1.23,-0.230514586,-0.052846909,0.093997464
1.24,-0.130224168,-0.083792686,0.136719748
1.25,-0.095259726,-0.062131882,0.22644487
1.26,-0.039148629,-0.050113678,0.228994519
1.27,-0.055408597,-0.045294762,0.229275137
1.28,-0.105322301,-0.038070679,0.229544282
1.29,-0.082859397,-0.030863762,0.229072541
1.3,-0.050772965,0.019473076,0.199876741
1.31,-0.050053298,0.019506454,0.199981198
1.32,0.003882766,0.093820572,0.104792744
1.33,0.004197538,0.093904495,0.107361794
1.34,-0.091466248,0.036527634,0.026442617
1.35,-0.090915442,0.036658287,0.029677749
1.36,-0.128700674,0.036804199,-0.00482592
1.37,0.038331807,-0.078017235,0.088284135
1.38,0.10994342,-0.130708695,0.398859441
1.39,0.106212407,-0.13086319,0.400914341
1.4,0.114136457,-0.205213547,0.278870523
1.41,0.110488296,-0.205322266,0.281955451
1.42,0.05492872,-0.162289619,0.168064207
1.43,-0.076804221,-0.047374725,-0.278660089
1.44,0.054499209,-0.011685371,-0.054127127
1.45,0.173863888,0.035774231,0.354333103
1.46,0.201184571,0.04480648,0.538320303
1.47,0.159114182,0.080211639,0.337485731
1.48,-0.011503845,0.034341812,0.249449313
1.49,-0.091863841,0.034124374,0.235205486
1.5,-0.08931303,0.034004211,0.114129394
1.51,-0.021668524,0.031561852,0.145299211
1.52,0.031688243,-0.025927544,0.272699118
1.53,0.042088181,-0.085783005,0.153565377
1.54,0.023743689,-0.047448158,0.013897181
1.55,0.020205587,-0.047348976,0.021583349
1.56,-0.087757379,-0.044810295,0.059996784
1.57,-0.076153725,-0.035120964,0.102501214
1.58,0.012169719,-0.030254364,0.206037983
1.59,0.106615394,-0.058982849,0.20114167
1.6,0.078894734,-0.037443161,0.20303756
1.61,0.031892449,-0.073401451,0.163586199
1.62,0.025679231,-0.049511909,0.171048552
1.63,0.021666467,-0.049603462,0.1732198
1.64,0.000982076,-0.030546188,0.110663742
1.65,-0.00286147,0.010040283,0.092921495
1.66,0.055502623,0.033805847,0.114448607
1.67,-0.018083215,0.033608437,0.199847058
1.68,-0.021662831,0.033408165,0.198725596
1.69,0.055800647,0.033198357,0.188080981
1.7,0.147362351,0.032984734,0.201567814
1.71,0.104608357,0.032792091,0.239800066
1.72,0.100064009,0.032623291,0.239885092
1.73,0.071066022,-0.013037682,0.195342392
1.74,0.163003787,0.013104439,0.033913255
1.75,0.144495577,-0.051747322,0.195337638
1.76,-0.015505463,-0.020925522,0.170112699
1.77,-0.045227379,0.031461716,-0.125828713
1.78,-0.050837487,0.03128624,-0.125158727
1.79,-0.014897436,-0.002453804,-0.22947076
1.8,0.196579248,-0.067423821,0.335397124
1.81,0.185516,-0.067890167,0.333381772
1.82,0.186188266,-0.111359596,0.03188771
1.83,0.235034645,-0.049448013,0.187860683
1.84,0.221937344,0.029186249,0.296993673
1.85,0.214488417,0.028883934,0.095595807
1.86,0.206303701,-0.019290924,0.026679367
1.87,0.194532171,-0.019647598,0.02619791
1.88,0.253312409,-0.077555656,0.241673499
1.89,0.184899777,-0.051663399,0.370299071
1.9,0.098323092,-0.020922661,0.320335478
1.91,0.087424383,-0.021192551,0.319870621
1.92,-0.091604814,0.026526451,0.234487608
1.93,-0.047084257,0.026385307,0.184755281
1.94,-0.038087085,0.026290894,0.131453708
1.95,-0.01133059,0.026269913,0.14158991
1.96,-0.127626285,0.026241302,0.213516638
1.97,-0.149111092,0.026254654,0.3307814
1.98,-0.247327074,0.026273727,0.35736382
1.99,-0.340378642,0.007193565,0.318097234
2,-0.408922672,0.026531219,0.082150966
2.01,-0.455773056,0.026753426,-0.2101188
2.02,-0.493762851,0.026968956,-0.141055346
2.03,-0.394262284,0.024610519,-0.104638726
2.04,-0.338868916,0.026948929,0.054616809
2.05,-0.346045315,0.026831627,0.164656818
2.06,-0.52045989,0.036301613,0.236171156
2.07,-0.525642932,0.036271095,0.236827433
2.08,-0.441325367,0.122515678,0.174643904
2.09,-0.585071564,0.1585989,0.143595547
2.1,-0.507533193,0.106103897,0.092498928
2.11,-0.425134122,0.075147629,0.161399275
2.12,-0.315956593,0.027424812,0.20397462
2.13,-0.316721022,0.027638435,0.20877628
2.14,-0.311691046,-0.024805069,0.251996338
2.15,-0.236265242,-0.074837685,0.161551565
2.16,-0.26625222,-0.103298187,0.107512713
2.17,-0.303198308,-0.129329681,0.084810823
2.18,-0.333241582,-0.143428803,0.02288571
2.19,-0.284856975,-0.042694092,-0.102817863
2.2,-0.170577228,-0.088122368,-0.127853543
2.21,-0.172709346,-0.088207245,-0.129071355
2.22,0.206489667,-0.074122429,0.416630626
2.23,0.226702943,-0.136828423,0.614593566
2.24,0.163062841,-0.122907639,0.723925948
2.25,0.356035322,-0.061044693,0.893628955
2.26,0.635498822,-0.063776016,0.83702153
2.27,0.64538759,-0.032809258,0.463047802
2.28,0.465506315,-0.066300392,0.105050206
2.29,0.464476317,-0.066178322,0.108212322
2.3,0.384820372,-0.154663086,0.12013635
2.31,0.119318634,-0.173756599,0.180863917
2.32,-0.127612561,-0.116275787,0.023442924
2.33,-0.06256672,-0.135393143,-0.044655412
2.34,-0.179872066,-0.080287933,-0.191949308
2.35,-0.215460852,0.027503967,-0.384120077
2.36,-0.27998507,0.118531227,-0.370825917
2.37,-0.255868107,0.207118034,-0.205418289
2.38,0.109542951,0.18074131,-0.205648661
2.39,0.104926214,0.180709839,-0.205906242
2.4,0.411960781,0.027413368,0.236374319
2.41,0.57967335,-0.080374718,0.309768379
2.42,0.558103144,-0.145107269,0.62449944
2.43,0.55297935,-0.145269394,0.621384621
2.44,0.49925828,-0.133462906,0.802780449
2.45,0.19146964,-0.071331024,0.699657023
2.46,0.120340265,-0.088228226,0.48399365
2.47,-0.035095252,-0.06200695,0.314326555
2.48,-0.482006967,0.026535988,0.061563939
2.49,-0.48382315,0.026451111,0.059985757
2.5,-0.507758379,0.081394196,0.042714596
2.51,-0.312991053,0.090826988,0.082522452
2.52,0.203525081,0.085873604,0.42345342
2.53,0.316004813,0.056967735,0.663530827
2.54,0.485309303,0.099896431,0.853402972
2.55,0.665414631,0.025565147,0.864404023
2.56,0.638993681,-0.019992828,0.788003504
2.57,0.263761401,0.025488853,0.6957075
2.58,-0.005964972,0.09014225,0.353111029
2.59,-0.172871187,0.183670044,0.056706458
2.6,-0.093235552,0.248497009,0.175330192
2.61,0.195431262,0.277430534,0.166998193
2.62,0.18844074,0.277693749,0.172353312
2.63,0.370626718,0.292347908,0.42449829
2.64,0.428477347,0.115409851,1.853141904
2.65,0.420496076,0.115757942,1.859351873
2.66,0.288993418,0.027683258,1.94834435
2.67,-0.211752117,-0.270855904,0.873678029
2.68,-0.355870605,-0.279546738,-0.042174429
2.69,-0.706231773,-0.323895454,-0.855640531
2.7,-0.809313476,-0.274737358,-1.071585894
2.71,-0.645490825,-0.135025978,-0.273884654
2.72,-0.66369313,-0.134547234,-0.269763053
2.73,-0.596153081,0.052535057,0.456019878
2.74,-0.568454206,0.328198433,0.89719975
2.75,-0.928899705,0.522431374,1.321310997
2.76,-0.949097276,0.573254585,1.366723657
2.77,-0.952545762,0.277066231,0.637841523
2.78,-0.887442827,0.043255806,0.223324001
2.79,-0.878109455,0.044188499,0.241708398
2.8,-0.808209658,-0.148804665,-0.159541786
2.81,-0.79763639,-0.147898674,-0.142582774
2.82,-0.570155621,-0.053753853,0.151368439
2.83,-0.191414118,0.018850327,0.305792064
2.84,-0.082680851,0.124979019,0.624704301
2.85,-0.077913329,0.166331291,0.852832079
2.86,-0.073625579,0.107050896,1.108479023
2.87,-0.073105425,0.018941879,1.024689913
2.88,-0.22614561,-0.09301281,0.664481998
2.89,-0.222914964,-0.092309952,0.674544275
2.9,-0.211923093,-0.096341133,0.642196298
2.91,-0.347900629,-0.105079651,0.589256227
2.92,-0.473492414,-0.120824814,0.462219626
2.93,-0.630036473,-0.131627083,0.32976383
2.94,-0.533038259,-0.21175766,0.303481638
2.95,-0.424976081,-0.303864479,0.207117975
2.96,-0.478203893,-0.288285255,0.377847672
2.97,-0.55532968,-0.237014771,0.270428479
2.98,-0.452391297,-0.166665077,0.204854846
2.99,-0.445727468,-0.165951729,0.213472009
3,-0.560917079,-0.036043167,0.587135077
3.01,-0.390734106,0.002879143,0.745171428
3.02,-0.259763211,0.056235313,0.84405309
3.03,-0.53290391,0.056981087,0.819031119
3.04,-0.6259408,0.172805786,0.522605777
3.05,-0.614314318,0.174053192,0.53600961
3.06,-0.679655075,0.060394287,0.276515305
3.07,-0.250967115,-0.141892433,0.686521053
3.08,-0.371877939,-0.351781845,0.943778157
3.09,-0.503385961,-0.418076515,0.15132463
3.1,-0.767991304,-0.302020073,-0.201497674
3.11,-0.758039236,-0.301374435,-0.195543706
3.12,-0.623894036,0.012572289,0.367101133
3.13,-0.545912504,0.065148354,0.916513562
3.14,-0.349292696,0.069624901,0.915536523
3.15,-0.454503238,0.064721107,0.954829752
3.16,-0.657149315,0.019592285,0.258930445
3.17,-0.41069144,-0.029922485,0.088733137
3.18,-0.48385644,-0.058068275,0.302287817
3.19,-0.418007016,-0.117637634,0.438548386
3.2,-0.412372232,-0.117478371,0.439673841
3.21,-0.302481234,-0.179627419,0.761008024
3.22,-0.244589165,-0.172455788,0.597394705
3.23,-0.354258657,-0.1364851,0.309889436
3.24,-0.250643283,-0.110063553,0.302781999
3.25,-0.246871948,-0.110117912,0.301951945
3.26,-0.076858938,0.040582657,0.446201623
3.27,-0.129370257,0.090719223,0.61182785
3.28,-0.205209151,0.104802132,0.563132525
3.29,-0.239996374,0.152427673,0.437897921
3.3,-0.349528313,0.095807076,0.509095132
3.31,-0.279494643,0.082328796,0.733548284
3.32,-0.157159522,0.056715965,0.46280843
3.33,-0.21093218,-0.049909592,0.30355674
3.34,-0.202060893,-0.050962448,0.290243387
3.35,-0.298706949,-0.095017433,0.181905747
3.36,0.064620271,-0.055155754,0.240182102
3.37,0.216528311,-0.022559166,0.494607478
3.38,0.158460975,0.005096436,0.47694087
3.39,0.159674734,0.004052162,0.464300275
3.4,0.276521593,0.077822685,0.48553896
3.41,0.202643961,0.144421578,0.693266392
3.42,0.182458296,0.081880569,0.557729781
3.43,0.106883988,0.041180611,0.351373375
3.44,0.134042278,-0.128602982,0.243624687
3.45,0.077284023,-0.12103653,0.286383033
3.46,0.07925269,-0.120634079,0.290585697
3.47,0.100637436,-0.30453682,0.472579867
3.48,0.102217689,-0.303979874,0.478921324
3.49,0.115871593,-0.291514397,0.931750417
3.5,0.116358221,-0.291156769,0.935922921
3.51,-0.050352842,-0.381520271,0.032994986
3.52,-0.125663802,-0.311507225,-0.05182749
3.53,-0.199254185,-0.277768135,0.26186651
3.54,0.007803291,-0.287509918,0.293790996
3.55,0.245474637,-0.146706581,0.476451844
3.56,0.01911737,0.044239044,0.918808103
3.57,-0.141277552,0.127544403,0.595909715
3.58,-0.145420641,0.12743187,0.595735073
3.59,-0.363970012,0.139457703,0.410358787
3.6,-0.336171866,0.15169239,0.191514909
3.61,-0.128710106,0.104306221,0.020716906
3.62,-0.028394252,0.085613251,0.256524563
3.63,0.13340354,-0.002574921,0.491665632
3.64,0.104262851,-0.11471653,0.388982147
3.65,-0.199016497,-0.166974068,0.465809196
3.66,-0.144104809,-0.161916733,0.128866077
3.67,-0.144550219,-0.161671639,0.131818175
3.68,-0.030401871,-0.192815781,0.079028487
3.69,0.036037818,-0.125937462,0.249759376
3.7,0.1442177,-0.030246735,0.411611736
3.71,-0.193693996,0.199705124,0.242199242
3.72,-0.192977712,0.190280914,0.382003844
3.73,-0.247453421,0.085025787,0.483081043
3.74,-0.111151084,0.01099205,0.384021759
3.75,-0.087964475,-0.158751488,0.369644702
3.76,-0.000134811,-0.242362976,0.402499348
3.77,6.62655E-05,-0.242264748,0.403547496
3.78,0.257447779,-0.405046463,0.274846733
3.79,0.372871637,-0.31213665,0.095434546
3.8,0.370330691,-0.312847138,0.087981582
3.81,-0.066368505,0.160284042,0.156702817
3.82,-0.365444005,0.477733612,0.344228804
3.83,-0.59842658,0.606077194,0.510038972
3.84,-0.608324111,0.502394676,0.23775357
3.85,-0.606692255,0.502166748,0.234780908
3.86,-0.685923636,0.355980873,0.136865139
3.87,-0.617284894,-0.063176155,-0.162466645
3.88,-0.406862676,-0.099246025,-0.397043586
3.89,-0.406528324,-0.099496841,-0.400104642
3.9,0.094800174,-0.222180367,0.07714051
3.91,0.32458362,-0.278211594,0.646091104
3.92,0.211763218,-0.293510437,0.638293207
3.93,0.003207266,-0.20565033,0.498446286
3.94,-0.090324193,-0.062621117,0.368530065
3.95,-0.218506351,-0.058389664,0.085834742
3.96,-0.230425268,-0.061261177,-0.00890398
3.97,-0.090484291,-0.059660912,0.132646263
3.98,-0.029913068,0.042229652,0.259274453
3.99,-0.033096224,0.045837402,0.358175814
4,-0.168562174,0.075798035,0.241470724
4.01,-0.183542505,0.105912209,0.0687235
4.02,-0.190647796,0.105036736,0.058138013
4.03,-0.2810556,0.063505173,0.064662337
4.04,-0.181666717,0.041181564,0.203249753
4.05,-0.029807478,0.033267975,0.248666763
4.06,0.0478535,0.01583004,0.359725982
4.07,-0.173314542,0.055974007,0.5486601
4.08,-0.074928917,0.060368538,0.392875046
4.09,-0.003443345,0.03868103,0.262237549
4.1,0.07965368,0.038628578,0.169136196
4.11,0.073586926,0.038628578,0.170107633
4.12,0.138243079,0.038583755,0.194286853
4.13,0.101761758,0.038444519,0.255673826
4.14,0.016730919,0.004789352,0.134853363
4.15,-0.17220366,-0.00496006,0.217073679
4.16,-0.211272687,-0.043379784,0.093721151
4.17,-0.436377585,-0.134383202,0.158457756
4.18,-0.354317725,-0.199004173,-0.013167501
4.19,-0.277568251,-0.206168175,-0.084303558
4.2,-0.314431936,-0.093790054,0.249111235
4.21,-0.241296053,-0.022327423,0.425973594
4.22,-0.05623218,0.020375252,0.242799491
4.23,-0.115649931,0.046347618,0.239818513
4.24,-0.121114038,0.045967102,0.234029353
4.25,-0.086790472,0.155685425,0.493280232
4.26,-0.17347917,0.105090141,0.529022098
4.27,-0.287394315,0.090489388,0.264242709
4.28,-0.376332402,0.035270691,0.254626215
4.29,-0.376224905,0.035106659,0.251817882
4.3,-0.467037916,-0.075242996,0.303326905
4.31,-0.509483516,0.032323837,0.056282222
4.32,-0.406333923,-0.039731026,0.18186453
4.33,-0.205548883,0.022312164,0.638038099
4.34,-0.215891928,0.010082245,0.688572884
4.35,-0.261700541,0.033809662,0.505481958
4.36,-0.260843843,0.033693314,0.503449917
4.37,-0.521724522,0.055072784,0.462213635
4.38,-0.498188794,0.026170731,0.052279234
4.39,-0.497771233,0.026021957,0.049729526
4.4,-0.229008302,-0.165840149,0.623290777
4.41,-0.232542247,-0.16647625,0.612027407
4.42,-0.067760922,-0.138489723,0.87160635
4.43,-0.047708165,-0.132032394,1.018612862
4.44,-0.054185838,-0.132720947,1.005519152
4.45,0.013311756,-0.188386917,0.588908851
4.46,-0.119936146,-0.246403694,0.474595785
4.47,-0.304834247,-0.143993378,0.363012314
4.48,-0.417138517,-0.134924889,0.40442127
4.49,-0.402683049,-0.056428909,0.397727251
4.5,-0.450494826,0.017354965,0.378050476
4.51,-0.361699224,0.052927971,0.477773607
4.52,-0.258493573,0.040692329,0.56481415
4.53,-0.262902916,0.040533066,0.560349524
4.54,-0.182579801,-0.031336784,0.537452161
4.55,-0.259452909,-0.07444191,0.422043651
4.56,-0.235538662,-0.072030067,0.379224956
4.57,-0.302506447,-0.124666214,0.369988769
4.58,-0.304559946,-0.124646187,0.37041232
4.59,-0.272074848,-0.088723183,0.367793977
4.6,-0.351830483,-0.08873558,0.367652267
4.61,-0.509590805,-0.117511749,0.366722912
4.62,-0.531779528,-0.177386284,0.287435889
4.63,-0.577355921,-0.206130028,0.069517434
4.64,-0.574908376,-0.206119537,0.070053548
4.65,-0.352512956,-0.215827942,0.47898975
4.66,-0.350929201,-0.216061592,0.47397697
4.67,-0.256089926,-0.146862984,0.645181418
4.68,-0.194701612,-0.029817581,0.631715477
4.69,-0.276897967,0.010625839,0.55121249
4.7,-0.468818545,0.003163338,0.336371779
4.71,-0.654942632,0.022060394,0.143200606
4.72,-0.651701629,0.021814346,0.137161434
4.73,-0.492730081,0.069457054,-0.16808632
4.74,-0.420471788,0.062028885,0.165177345
4.75,-0.219415978,0.023400307,0.472668886
4.76,0.03296645,-0.067893982,0.772884071
4.77,-0.043841004,-0.214177132,0.521942616
4.78,-0.103259593,-0.305346489,0.368187249
4.79,-0.102763012,-0.305562973,0.361815989
4.8,-0.179062963,-0.406391144,0.128416136
4.81,-0.179811105,-0.40660286,0.121632323
4.82,-0.328315705,-0.689377785,-0.410967618
4.83,-0.295251012,-0.725682259,-0.072813004
4.84,-0.199397847,-0.649540901,0.194390521
4.85,-0.319861203,-0.66913414,0.199965596
4.86,-0.216990858,-0.566539764,0.068684131
4.87,-0.05173713,-0.542869568,-0.014105484
4.88,-0.059930667,-0.543086052,-0.027556628
4.89,0.790843308,-0.777929306,0.039431363
4.9,1.16490221,-0.814022064,0.233321816
4.91,1.183284521,-0.72081852,0.570563674
4.92,1.167479873,-0.720927239,0.549326778
4.93,1.02342248,-0.306735992,0.102793425
4.94,0.837178707,-0.191728592,-0.154736877
4.95,0.380975902,-0.148427963,-0.202427656
4.96,0.360422492,-0.148168564,-0.225937426
4.97,0.065514445,-0.037631035,-0.542345405
4.98,-0.223840565,0.197570801,-0.928088844
4.99,-0.249351829,0.198282242,-0.953302741
5,-0.356241643,0.768986702,-0.926102281
5.01,-0.537316978,1.011650085,-0.859852135
5.02,-0.788961947,1.175268173,-0.753633559
5.03,-0.838297606,1.269342422,-0.818926275
5.04,-0.851325154,1.269906044,-0.826456785
5.05,-0.936349869,1.07166481,-0.708602011
5.06,-1.109228849,0.952339172,-0.815036058
5.07,-1.16832304,0.787345886,-0.857248187
5.08,-0.989295721,0.461770058,-1.0080477
5.09,-0.685740054,0.028330803,-0.930096805
5.1,-0.454845905,-0.304555893,-0.730205894
5.11,-0.24706316,-0.560822487,-0.55284965
5.12,-0.034167409,-0.771561623,-0.550838232
5.13,0.109367013,-0.929562569,-0.585380912
5.14,0.233343691,-1.101857185,-0.900143802
5.15,0.043193907,-1.125647545,-0.91662389
5.16,0.075189829,-0.885900497,-0.742116213
5.17,0.181610048,-0.844679833,-0.457606226
5.18,0.604262352,-0.733865738,-0.485046566
5.19,0.601297438,-0.733084679,-0.509323299
5.2,0.549230695,-0.717891693,-0.244207144
5.21,-0.080200881,-0.781763077,-0.816843391
5.22,-0.249037206,-0.66145134,-1.246960163
5.23,-0.244558275,-0.660936356,-1.265712261
5.24,-0.336540103,-0.648694992,-1.905764222
5.25,-0.476986766,-0.576726914,-1.851956606
5.26,-0.304227531,-0.19591713,-0.948680878
5.27,-0.24995476,0.045958519,-0.944630981
5.28,-0.236389309,0.045827866,-0.9522053
5.29,-0.255186856,0.557883263,-1.203688145
5.3,-0.265365422,0.660326958,-1.11785984
5.31,-0.209576279,0.745923996,-1.054980159
5.32,-0.133823723,0.649513245,-0.847502232
5.33,-0.075847641,0.524441719,-0.784467876
5.34,0.085752785,0.318065643,-0.97789979
5.35,-0.064469874,0.262611389,-1.281343579
5.36,-0.120530449,0.360485077,-1.369404316
5.37,-0.087714478,0.334067345,-1.534392834
5.38,-0.071846269,0.638376236,-1.455290556
5.39,-0.172113419,1.079449654,-1.468359709
5.4,-0.255781531,1.51591301,-1.435083151
5.41,-0.058043979,1.902330399,-1.331568956
5.42,0.131959379,2.437362671,-0.780817986
5.43,0.243851453,2.845718384,-0.360604495
5.44,0.280796289,2.847191811,-0.377303988
5.45,0.695412934,3.456805229,-0.211087018
5.46,0.695209444,3.364871025,-0.009800792
5.47,0.736775041,3.36643219,-0.017678201
5.48,0.859180689,3.083266258,0.773747683
5.49,0.92013073,2.871696472,2.089213848
5.5,1.185979962,2.748223305,2.547444344
5.51,1.352579117,2.667315483,2.888911247
5.52,1.06926775,2.665099144,3.086017132
5.53,0.671618938,2.758462906,3.178047895
5.54,0.678071022,2.758488655,3.182219982
5.55,-1.6410954,2.131246567,3.539879322
5.56,-2.0335958,1.444430351,3.226490736
5.57,-1.766447306,0.443917275,2.398318052
5.58,-1.752336264,0.444087029,2.407784224
5.59,-1.425019741,-0.764635086,2.234048843
5.6,-0.833745778,-0.861982346,2.511415243
5.61,-0.696498513,-0.367577553,2.620824337
5.62,-0.699421167,-0.365967751,2.59119153
5.63,-0.779796481,0.883399963,2.088279724
5.64,-1.228589296,1.431440353,1.746907592
5.65,-1.660425901,1.790540695,0.980074644
5.66,-2.155788183,2.010608673,0.128525376
5.67,-2.264267445,1.789669037,-0.241112828
5.68,-1.817704201,0.864196777,0.018169582
5.69,-1.242897868,-0.308263779,0.239728689
5.7,-0.823344708,-1.802004337,0.0826087
5.71,-0.58590126,-3.217290401,-0.170591056
5.72,0.214340508,-4.388941765,-0.539325833
5.73,0.209917933,-4.390358925,-0.524003863
5.74,0.982301831,-5.766542912,-0.939042807
5.75,1.02809751,-6.038988113,-0.762999713
5.76,1.141898513,-6.119725227,-0.741479993
5.77,0.704586268,-5.929656506,-0.316062838
5.78,0.857514501,-5.557001114,0.042422414
5.79,0.84830451,-5.557833672,0.048253894
5.8,0.735673308,-5.316898823,0.185271323
5.81,0.652478933,-5.085714817,0.518430173
5.82,1.028403401,-4.641887665,-0.243468106
5.83,0.76942575,-4.304075718,-0.908509672
5.84,0.155466542,-3.877581596,-1.38451004
5.85,-0.202033848,-3.14914465,-1.784171224
5.86,-0.231322795,-3.150773525,-1.772342205
5.87,-0.641557694,-2.340597153,-1.737158298
5.88,-0.891825616,-1.194974899,-1.308856726
5.89,-1.153279185,-0.166453362,-0.662537634
5.9,-2.071168661,1.22602272,0.063075364
5.91,-1.922839165,1.445281982,0.16681695
5.92,-1.805647731,1.456165314,0.225716353
5.93,-1.810792446,1.455059052,0.246051073
5.94,-1.059491038,0.994141579,-0.554037213
5.95,-1.063598037,0.992898941,-0.528530896
5.96,-1.178677201,1.197686195,-1.046739817
5.97,-1.251608968,2.132867813,-1.165291071
5.98,-1.385599256,2.749845505,-0.654808641
5.99,-1.393057823,2.749373436,-0.644998908
6,-1.935842991,3.577497482,-0.611723542
6.01,-2.533563852,4.027366638,-1.016445279
6.02,-2.962005615,4.288106918,-1.026449323
6.03,-2.180963755,4.814612389,0.116068393
6.04,-0.242626146,4.905282021,1.79795599
6.05,1.557786703,4.720376015,2.417611599
6.06,2.982417107,4.446505547,3.080272436
6.07,3.558066368,4.179918289,3.672590494
6.08,3.53316164,3.851359367,4.479475975
6.09,3.535209179,3.851107597,4.493822098
6.1,3.439909935,2.131999969,5.964062214
6.11,3.425568819,2.132099152,5.948378086
6.12,3.169551849,0.24547863,4.10850811
6.13,1.816697836,0.020523071,2.595004797
6.14,0.688216329,0.006281853,0.676419437
6.15,0.175369293,0.130872726,-0.756315947
6.16,0.245321468,0.456562042,-0.802200317
6.17,0.202660248,1.021863937,-0.195558727
6.18,0.415025681,1.398411751,0.579615057
6.19,0.791944563,1.645817757,1.043750882
6.2,1.223488092,1.922111511,1.064019561
6.21,1.209074497,1.923089027,1.032081842
6.22,1.654819608,1.6798563,1.136522532
6.23,1.567444205,1.046385765,1.506176114
6.24,1.598893404,0.22621727,1.350650311
6.25,1.583507419,0.227134705,1.329841614
6.26,0.30272457,-1.611011505,0.286684215
6.27,0.304457963,-1.610645294,0.279456317
6.28,-0.211725742,-3.705595493,-0.511265516
6.29,-0.227305681,-4.416748524,-0.487265557
6.3,-0.208804458,-4.416826725,-0.483808219
6.31,-0.047503948,-5.532601357,-0.137562931
6.32,-0.335744053,-5.511003494,0.131867558
6.33,-0.309680581,-5.510801315,0.134305835
6.34,-0.252399981,-5.491303921,0.156941801
6.35,-0.227534711,-5.51704073,-0.253559172
6.36,-0.296903163,-5.389316559,-0.514289975
6.37,-0.273849964,-5.388261795,-0.525155067
6.38,0.082682744,-4.860195637,-0.559975386
6.39,0.157497957,-4.482717991,-0.318354309
6.4,0.177592948,-4.480962276,-0.339835882
6.41,-0.001597792,-3.937927246,-0.399620205
6.42,0.037237853,-3.414018154,-0.705026865
6.43,-0.382700592,-1.997040272,-1.33655715
6.44,-0.25356701,-1.16904068,-0.910432398
6.45,0.380473435,-0.293158531,0.159305275
6.46,0.397448897,-0.291330338,0.142952502
6.47,0.697521687,0.299139023,0.881923914
6.48,0.4989205,1.566646576,-0.306350052
6.49,0.036869079,2.23527813,-1.294063807
6.5,0.057143807,2.235746384,-1.286054373
6.51,-0.325118721,2.89931488,-2.401847124
6.52,-0.173540175,4.04410553,-2.261221886
6.53,-0.173290551,4.044754028,-2.270576
6.54,-0.303545892,4.574915886,-1.751614809
6.55,-0.63106823,4.315374374,-0.759166598
6.56,-0.637999594,4.317370415,-0.790741563
6.57,-0.77226758,4.286094666,0.40611583
6.58,0.330158353,5.125876427,1.455091357
6.59,0.811545253,5.107902527,2.400845289
6.6,0.820329547,5.10898304,2.393474579
6.61,1.101478338,3.541754723,4.995736599
6.62,1.121397018,3.543361664,4.989336014
6.63,0.907951891,2.350842476,6.872684956
6.64,0.605531156,-0.438640595,6.686802387
6.65,0.465043306,-1.205720901,5.280390263
6.66,-0.395758748,-0.987021446,3.153102875
6.67,-2.031218767,0.06678772,1.329739571
6.68,-3.253798485,1.245389938,0.133671045
6.69,-4.063567162,2.567970276,-0.387902558
6.7,-3.902518988,3.783176422,0.134872377
6.71,-3.904583216,3.785075188,0.113705277
6.72,-2.927257061,3.716093063,3.196166277
6.73,-2.928894758,3.719538689,3.161131382
6.74,-0.622285485,1.296134949,2.548725605
6.75,-0.183548272,0.142630577,1.046797633
6.76,0.098760962,-0.892407417,-0.144123435
6.77,0.48947829,-2.066794872,-0.527301788
6.78,0.701137006,-3.028440475,-0.396016419
6.79,1.125697732,-4.102520943,-0.183820128
6.8,1.113725185,-4.103574753,-0.180460632
6.81,1.672418594,-5.472026825,-0.506281614
6.82,1.4124403,-5.842466354,-0.510251045
6.83,1.391009808,-5.844651222,-0.499987036
6.84,0.604292035,-6.050666809,-0.450568885
6.85,0.574226618,-6.053260803,-0.439133018
6.86,1.130745888,-5.941069126,-0.315956414
6.87,1.229290485,-5.668960571,-0.011264801
6.88,0.592660844,-5.353795052,-0.258486331
6.89,0.268672347,-4.943045139,-0.932399392
6.9,0.10011062,-4.522805214,-1.108322382
6.91,-0.090429276,-4.193111897,-0.824747622
6.92,-0.362984479,-3.772034645,-1.025147796
6.93,-0.69857955,-3.164163113,-1.267017961
6.94,-0.97962904,-2.565731049,-1.395628214
6.95,-0.955902934,-1.859387398,-1.634385109
6.96,-0.906011522,-1.030640602,-1.547454834
6.97,-0.988842845,-0.203948975,-0.862117708
6.98,-1.120618701,0.75256443,-0.384283185
6.99,-1.221914291,1.570494652,-0.285240233
7,-1.221224666,2.17054081,-0.431361258
7.01,-1.170422554,2.36093235,-0.365805149
7.02,-0.795894206,2.434044838,-0.1521945
7.03,-0.396296382,2.68444252,0.169970334
7.04,-0.611353457,3.131290436,0.126975387
7.05,-1.128142476,3.712215424,-0.299993068
7.06,-2.330676794,4.245301247,-1.249389052
7.07,-3.652681828,4.675599098,-2.085848331
7.08,-4.87902689,4.840270042,-2.539159775
7.09,-5.153586388,4.969022751,-1.985333443
7.1,-3.045993805,5.023475647,-0.617294431
7.11,-0.580665886,4.914693832,0.643959522
7.12,1.8670789,4.482201576,1.615777373
7.13,3.102020741,4.228908539,2.447414875
7.14,3.083081007,4.109969139,3.337165117
7.15,3.082481384,4.108893394,3.400212526
7.16,2.00593257,2.935147285,4.141200066
7.17,1.885919094,1.876647949,3.63556385
7.18,1.915828109,0.739336014,2.379317045
7.19,1.719787955,-0.201525688,1.14453423
7.2,1.717669368,-0.201366425,1.172308683
7.21,1.419428587,-0.404763222,0.517660976
7.22,1.28805995,-0.138998985,-0.082937568
7.23,1.090628624,0.208087921,-0.144094601
7.24,1.369635701,1.304362297,0.521345258
7.25,1.555880308,1.632027626,0.836425841
7.26,1.540490627,1.63176918,0.788818002
7.27,1.73279798,1.389941216,1.422133565
7.28,1.045190334,1.433527946,1.92586863
7.29,0.474983692,1.077836037,2.061476469
7.3,0.261057347,0.34883213,2.158066273
7.31,-0.231115952,-0.909407616,0.818003476
7.32,-1.035669327,-2.376411438,-0.585529685
7.33,-1.015430689,-2.37611866,-0.588933468
7.34,-1.112562776,-3.565850258,-0.913175523
7.35,-1.021948814,-4.417961121,-0.854685307
7.36,-0.227439076,-6.031460285,-0.866975308
7.37,0.112349346,-6.316016674,-0.389962316
7.38,0.438173831,-6.356154442,0.04053688
7.39,0.635651588,-6.38418293,0.465255499
7.4,0.887642741,-6.120032787,0.758411586
7.41,0.972739458,-5.64985466,0.67233038
7.42,0.877389908,-5.103021622,0.290413618
7.43,0.78515625,-4.584839821,-0.184871256
7.44,0.805288792,-4.583696365,-0.197623611
7.45,0.519457042,-3.579247475,-0.658563256
7.46,0.38462776,-2.981760979,-1.155315399
7.47,0.144095168,-2.346001148,-1.366896033
7.48,-0.134615094,-1.576265335,-1.397644877
7.49,-0.451189637,-0.840079308,-1.215899825
7.5,-0.486011773,-0.17574501,-0.869014144
7.51,-0.266569376,0.402338028,-0.546046019
7.52,-0.435582489,1.090353966,-0.544791877
7.53,-0.323841393,1.586458206,-0.966180444
7.54,-0.333849341,2.146875381,-1.561897993
7.55,-0.369758636,2.738242149,-1.638501167
7.56,-0.362878144,2.73824501,-1.631870151
7.57,-0.1454373,3.641107559,-1.239398956
7.58,0.098950356,4.503383636,-0.685848534
7.59,-0.081448406,4.319359779,-1.181995869
7.6,-0.713407457,4.053985596,-1.44335556
7.61,-1.367780566,4.078507423,-0.845095396
7.62,-1.129376531,4.359420776,-0.188901246
7.63,-0.602967322,4.549160957,0.015166938
7.64,0.415241242,4.50658989,0.771021962
7.65,0.458837092,4.322867393,2.28267312
7.66,0.055703282,3.746968269,3.154331923
7.67,0.093363523,3.748308182,3.176999092
7.68,-0.015713215,2.801423073,3.337224722
7.69,-0.077314734,1.516386986,3.82111311
7.7,0.181163132,-0.120903015,4.374660969
7.71,0.145349026,-0.025069237,4.420146942
7.72,-0.173886776,0.561414719,4.720043182
7.73,-1.227750778,1.104831696,4.207588673
7.74,-2.414286613,1.830415726,2.682742596
7.75,-2.429710388,1.830480576,2.661088467
7.76,-3.459596395,3.171550751,1.213614941
7.77,-4.418291092,3.536472321,1.080832362
7.78,-4.412507057,3.538281441,1.054897308
7.79,-2.910200596,2.269113541,1.024158239
7.8,-1.688215256,1.275348663,0.835555136
7.81,-0.786928177,0.058813095,0.400946856
7.82,0.059378028,-1.059610367,0.34209311
7.83,0.622671485,-1.842855453,0.152546942
7.84,1.077782273,-2.71731472,-0.097506642
7.85,0.918510795,-3.628110409,0.45341903
7.86,0.860660493,-4.081287861,0.698047221
7.87,1.109501123,-4.719293594,0.445572853
7.88,1.663412809,-5.327301025,-0.012739837
7.89,1.652233005,-5.718639851,-0.124061525
7.9,1.267103434,-5.900005341,-0.035014153
7.91,0.742143929,-6.029086113,-0.190941393
7.92,0.513516367,-6.204167843,-0.561386347
7.93,0.49261269,-6.207195759,-0.536476255
7.94,0.292132258,-6.454717159,-1.643706322
7.95,0.269947171,-6.457862377,-1.614779949
7.96,0.361520797,-5.842766762,-1.296601057
7.97,0.306582987,-5.256025791,-1.125504971
7.98,0.280085564,-5.258002758,-1.110972643
7.99,-0.786575615,-3.420982361,-1.417042017
8,-1.114153981,-2.429111958,-1.882025003
8.01,-1.275753498,-1.394353867,-2.070069313
8.02,-1.225084066,-0.410238266,-1.915624499
8.03,-1.396692276,0.52158165,-1.629319906
8.04,-1.595662951,1.34357357,-0.978676677
8.05,-1.596863627,2.098836899,-0.500273347
8.06,-1.694566011,2.794484138,-0.285794139
8.07,-1.838872671,3.308292389,-0.119787991
8.08,-1.836241841,3.30736351,-0.096638083
8.09,-1.203876257,3.636768341,-0.133153468
8.1,-1.005776525,3.614292145,-0.067222387
8.11,-1.317232013,3.635118484,-0.513363063
8.12,-2.048390388,3.732686996,-1.571453333
8.13,-2.911633968,3.689099312,-2.197977304
8.14,-3.69394207,3.741428375,-2.089221954
8.15,-3.681372881,3.741321564,-2.076951742
8.16,-3.540386915,3.803460121,-0.992100596
8.17,-0.620353758,4.052108765,0.787803054
8.18,1.398496628,4.053858757,2.225508213
8.19,2.513375282,3.823126793,2.573499441
8.2,2.765109062,3.620998383,2.329455376
8.21,2.715986252,3.304265976,2.778048038
8.22,3.013010025,2.643041611,3.131072044
8.23,2.983205318,1.814257622,3.145258188
8.24,2.88359189,1.23441124,2.685982227
8.25,2.684274197,1.004104614,2.041021824
8.26,2.330728769,1.087497711,0.908034325
8.27,2.314497232,1.087137222,0.907546818
8.28,1.345689535,1.982303619,-0.172830463
8.29,1.58493495,2.211889267,-0.030585445
8.3,1.6743505,2.269095421,0.641817272
8.31,1.810698152,1.885782242,1.413973689
8.32,1.79048562,1.885669708,1.376280665
8.33,1.134553552,0.887383461,1.744327903
8.34,0.295127809,0.114430428,1.124159694
8.35,-0.331790119,-0.785206795,0.649270833
8.36,-0.328846246,-0.784564972,0.619601309
8.37,-1.409302235,-2.96280241,-0.524399698
8.38,-1.5632056,-3.857711792,-0.358176589
8.39,-1.503151059,-4.687916756,-0.251995683
8.4,-1.131097317,-5.568250656,-0.178512156
8.41,-0.635292292,-6.326347351,-0.051749244
8.42,-0.277149946,-6.756258011,0.377799869
8.43,0.177113697,-6.898566246,0.59940815
8.44,0.29408443,-6.770074844,0.603331208
8.45,0.376981407,-6.366138458,0.268909961
8.46,0.515717804,-5.830485821,-0.368215352
8.47,0.557022989,-5.828757763,-0.364988744
8.48,0.890806675,-4.462224483,-1.093747139
8.49,0.923469782,-4.460292339,-1.101334453
8.5,1.277164698,-2.985931873,-1.09881413
8.51,1.105735302,-2.24937582,-1.11718154
8.52,0.819782138,-1.664292336,-1.441938639
8.53,0.816293001,-1.66390419,-1.456966281
8.54,0.530914068,-1.082116127,-1.657948732
8.55,-0.072577298,0.112400055,-1.917729735
8.56,-0.242557824,0.820818901,-1.10304141
8.57,0.127648383,1.40261364,0.68237114
8.58,0.101013273,1.596892357,0.562554121
8.59,-0.110794723,1.929559708,0.24998644
8.6,0.189329833,2.475137711,-0.010703593
8.61,0.20807299,2.869521141,-1.112876415
8.62,0.044485033,3.335433006,-1.770157933
8.63,0.178959876,3.851572037,-1.806840897
8.64,-0.306255609,4.149971008,-1.496102571
8.65,-0.693584859,4.166416168,-1.253768444
8.66,-0.856328607,3.642017365,-1.238388062
8.67,-1.085042715,3.122606277,-0.672236919
8.68,-1.162790298,3.290585518,0.220503628
8.69,-0.556529403,3.949503899,1.287299395
8.7,0.331683695,4.131759644,1.150037169
8.71,0.400927007,3.803656578,0.895537913
8.72,-0.258556426,3.372987747,1.729151011
8.73,-0.228672981,3.373800278,1.770583987
8.74,-0.011570275,1.30846405,4.417313576
8.75,0.419129252,0.286736488,4.7336483
8.76,0.705222964,-0.498412132,4.676625729
8.77,0.407202303,-0.451043129,3.837685585
8.78,-0.500822425,0.039056778,2.507824421
8.79,-1.053494811,0.823648453,0.840037108
8.8,-1.338847876,1.560239792,0.18860215
8.81,-2.009837151,2.306835175,0.609499514
8.82,-3.985216618,3.581162453,2.069693804
8.83,-5.159925461,4.55757618,2.873513699
8.84,-3.745085716,4.098053932,1.932227373
8.85,-3.726597548,4.099831581,1.912508249
8.86,-0.402478933,1.397410393,0.043616384
8.87,0.319739401,0.044957161,0.012990683
8.88,0.72856462,-1.126128197,0.550570726
8.89,1.665292859,-2.364583492,0.37179789
8.9,2.036285162,-3.570038795,-0.05775997
8.91,1.694997072,-4.289659977,-0.042473376
8.92,1.161309004,-4.851057053,0.13087678
8.93,0.664450526,-5.206492424,0.152406573
8.94,0.819710016,-5.473495483,-0.121621311
8.95,0.878736019,-5.688280582,-0.537905633
8.96,0.478511602,-5.69263649,-0.733324468
8.97,0.443541825,-5.69448185,-0.721524775
8.98,0.115395039,-5.490267277,-0.795084477
8.99,0.254427075,-5.115960598,-0.253811121
9,0.270588309,-5.086302757,-0.546318889
9.01,0.126915485,-4.915372849,-1.278655648
9.02,0.041595057,-4.476198673,-1.166862369
9.03,0.221024752,-3.976789951,-0.823105514
9.04,0.046364643,-3.455692768,-0.928555012
9.05,-0.412182778,-2.675955296,-0.912230611
9.06,-0.75031966,-1.836237431,-0.825120211
9.07,-1.117531061,-1.128061295,-0.890580118
9.08,-1.127319336,-1.128450394,-0.879293203
9.09,-1.407718301,0.286254883,-0.349458545
9.1,-1.607782483,0.86065197,-0.363425732
9.11,-1.964472651,1.439779282,-0.592329145
9.12,-2.288831711,2.023677826,-1.012563348
9.13,-1.814142704,2.473560333,-1.515220284
9.14,-1.787124157,2.47336483,-1.474980712
9.15,-1.037724018,2.777340889,-1.35312748
9.16,-0.460294843,3.421338081,0.211887404
9.17,-0.910347343,3.483530998,0.030761927
9.18,-2.055936098,3.315850258,-0.860463679
9.19,-3.496647835,2.983038902,-2.050250053
9.2,-4.831029415,2.700748444,-2.705255985
9.21,-4.80421257,2.701379776,-2.682975054
9.22,-2.930175304,3.351209641,-0.68836087
9.23,-2.898692608,3.352479935,-0.646184862
9.24,1.572039366,3.748979568,1.40384531
9.25,2.5424757,3.673740387,2.530524492
9.26,3.286902905,3.311516762,3.683631659
9.27,3.280050039,2.925602913,4.067350864
9.28,3.399908543,1.797293663,4.172786713
9.29,4.089510918,1.223574638,3.387016773
9.3,4.13055706,1.053936005,2.057742596
9.31,3.147595406,2.078778267,0.767181635
9.32,2.397424936,3.041326523,-0.075135946
9.33,2.391468048,3.041110039,-0.075249344
9.34,1.211516857,4.802684784,0.162161589
9.35,0.647671938,5.234905243,1.194419265
9.36,0.627588451,4.80474472,1.973372698
9.37,1.147540927,3.907294273,1.89985466
9.38,1.120957017,3.905445099,1.862502933
9.39,0.503868163,1.231928825,0.43680054
9.4,-0.205566362,0.021701813,-0.225896955
9.41,-0.942783237,-1.305493355,-0.729828715
9.42,-1.103913546,-2.373851776,-0.193299562
9.43,-1.097292662,-2.374058723,-0.213705108
9.44,-2.100413322,-4.260539532,-0.615781903
9.45,-2.039269924,-4.836914062,-0.566418588
9.46,-1.698144317,-5.295663834,0.032040864
9.47,-1.199516892,-5.679893017,0.097008392
9.48,-0.742546201,-6.056603432,0.098305017
9.49,-0.147970349,-6.258330345,0.376779974
9.5,-0.106150806,-6.256609917,0.369029224
9.51,1.160440445,-6.300675392,0.219505817
9.52,1.271906614,-6.060170174,0.22244066
9.53,1.060562134,-5.654524326,0.254874378
9.54,0.725340962,-5.224858761,0.01343758
9.55,0.601963401,-4.797490597,-0.43799594
9.56,0.621930301,-4.796312809,-0.471401781
9.57,0.604542136,-3.657943249,-1.001644731
9.58,0.659844577,-2.823759079,-1.11979568
9.59,0.676278412,-2.032910347,-1.175206304
9.6,0.6779688,-2.032617569,-1.192493439
9.61,0.399388135,-0.579015732,-1.068122983
9.62,0.394113481,0.211321831,-0.8960585
9.63,0.046077192,0.812458992,-0.925459445
9.64,-0.264263928,1.351449013,-1.060887098
9.65,-0.297338188,1.924049377,-1.299409389
9.66,-0.731306136,2.489450455,-1.243274212
9.67,-1.041242599,3.064680099,-1.215392828
9.68,-1.178375244,3.371943474,-1.348262668
9.69,-1.163553834,3.372818947,-1.335732818
9.7,-0.70177114,3.062420845,-1.690996408
9.71,-0.686108112,2.816808701,-1.642814875
9.72,-0.720758915,2.734423637,-0.8758654
9.73,-0.717375696,3.272571564,0.530575156
9.74,-0.050335228,4.378475189,1.75464952
9.75,0.285838008,4.782727242,1.320674419
9.76,0.275937617,4.744002342,1.455660462
9.77,-0.296913147,4.475721359,2.80544281
9.78,-0.941601515,3.891694069,3.83279705
9.79,-0.916309893,3.894111633,3.843523502
9.8,-0.84541899,1.652194023,5.539772034
9.81,-0.514639318,0.71624279,5.480999947
9.82,-0.213864803,0.245915413,4.809947491
9.83,-0.911763847,0.471261978,3.355359793
9.84,-1.836265564,1.290626526,1.729967952
9.85,-2.697630882,2.740076065,1.042136788
9.86,-2.721449375,3.744651794,1.193411469
9.87,-2.793495178,4.031170845,0.892269969
9.88,-2.802792311,4.030628204,0.874261558
9.89,-2.452265739,3.6062994,0.996450901
9.9,-0.609313428,1.872094154,0.784819007
9.91,-0.115351021,0.795936585,0.181669042
9.92,0.183247328,-0.045791626,0.144623756
9.93,0.494168431,-0.89490509,0.260371804
9.94,0.824886382,-1.985991001,0.129982203
9.95,0.741271138,-2.878503799,0.073487103
9.96,0.675169647,-3.440544605,0.022036552
9.97,0.641253829,-3.959517002,0.055915177
9.98,0.422078848,-4.311045647,0.093048006
9.99,0.39325136,-4.313113213,0.105817944
10,0.490093052,-4.890015602,-0.353827447
10.01,0.473285914,-5.146083355,-0.396724939
10.02,0.424759805,-5.485747337,-0.297058761
10.03,0.279489964,-5.722206116,-0.237914398
10.04,0.129066467,-5.81947422,-0.435504437
10.05,-0.031713784,-5.729726791,-0.599916399
10.06,-0.17455858,-5.452960014,-0.669261873
10.07,-0.125445247,-5.18318224,-0.748751104
10.08,-0.141330153,-5.183874607,-0.724853635
10.09,-0.555181027,-4.312883854,-1.034577608
10.1,-0.677103758,-3.724277496,-1.298200607
10.11,-0.684518337,-3.724487305,-1.278177381
10.12,-1.087507367,-2.299735546,-1.198384523
10.13,-0.780800343,-1.537902832,-1.032112956
10.14,-0.533317804,-0.768857002,-0.853953719
10.15,-0.507687628,0.024114609,-0.639853835
10.16,-0.505266428,0.024510384,-0.618528247
10.17,-0.70119673,1.475788116,-0.7797333
10.18,-1.036422133,2.433819771,-0.934687376
10.19,-0.982024193,3.279315948,-0.786310077
10.2,-0.921465755,3.791882515,-0.378734082
10.21,-1.152298212,4.038491249,-0.152216971
10.22,-1.965222239,3.978414536,-0.708372474
10.23,-3.173141956,3.741153717,-1.654603601
10.24,-4.358813286,3.303038597,-2.92407918
10.25,-4.891787529,3.148082733,-3.258687258
10.26,-3.741857529,3.58272171,-2.194135189
10.27,-1.790281057,4.472743988,-0.896719515
10.28,0.815018416,4.936938286,0.395820946
10.29,2.939677954,4.996059418,2.648975611
10.3,2.925110102,4.9968853,2.682519436
10.31,3.581450701,4.916373253,4.821863174
10.32,3.560642242,4.108138084,4.173373222
10.33,2.93010664,3.136627197,2.845475674
10.34,2.252889633,1.972905159,1.372585773
10.35,2.222515106,1.971746445,1.368090153
10.36,2.051355124,1.239657402,0.987435401
10.37,1.508381844,1.213612556,0.749205053
10.38,1.481667519,1.211841583,0.722930789
10.39,1.527594566,1.943135262,0.31778717
10.4,1.512233615,1.94192028,0.295094341
10.41,1.625393987,2.263941765,1.308155775
10.42,1.342777371,2.056753159,1.681741953
10.43,0.610045552,1.842417717,1.822210193
10.44,0.261990309,1.163720131,1.211643577
10.45,0.02428586,0.133272171,0.633824587
10.46,-0.428046078,-0.86822319,0.368701786
10.47,-0.41463548,-0.868609428,0.340295225
10.48,-1.096214056,-3.078527927,-0.631685078
10.49,-1.180423498,-3.911376953,-0.467322707
10.5,-1.144406557,-3.910782814,-0.478480727
10.51,-0.288034678,-5.315452576,0.091281056
10.52,0.235032022,-5.802991867,0.161587775
10.53,0.273545057,-5.801904678,0.145045623
10.54,0.676779389,-6.018532276,0.806416512
10.55,0.780578613,-5.890202522,0.823911369
10.56,0.863290548,-5.744986534,0.500975967
10.57,0.826930761,-5.415281296,-0.025140364
10.58,0.850858092,-5.078283787,-0.457496703
10.59,0.810311437,-4.748413563,-0.902082086
10.6,0.841466785,-4.262871265,-1.201642036
10.61,0.86616981,-4.261039257,-1.231894732
10.62,0.761729777,-3.093472004,-1.202880144
10.63,0.822437108,-2.390799999,-1.000858545
10.64,0.825733483,-2.390110493,-1.024255395
10.65,0.59273386,-0.981681824,-0.70680511
10.66,0.344534755,-0.542961121,-0.473906338
10.67,0.274457037,-0.156867981,-0.31821245
10.68,0.225000948,0.207464218,-0.63202107
10.69,0.142128646,0.653031349,-1.12641573
10.7,0.048702121,1.095992088,-1.622903824
10.71,0.195380896,1.866737366,-1.265427589
10.72,0.028823674,2.532059669,-0.861895025
10.73,-0.394030094,3.211798668,-1.082585335
10.74,-0.396806181,3.21168232,-1.085171938
10.75,-1.004594326,3.721770287,-1.442491531
10.76,-1.384673595,3.554571152,-2.249115944
10.77,-1.376339674,3.220092773,-2.142578602
10.78,-1.284276009,3.49893856,-0.388270229
10.79,-1.269378304,3.500563622,-0.405995786
10.8,-0.440649152,4.344854355,1.34974885
10.81,0.763894558,5.303837776,1.81988883
10.82,0.028442919,5.106617928,2.626766443
10.83,-0.271963775,4.026438713,3.558231592
10.84,-0.166956544,2.512978554,3.970837593
10.85,0.020995557,1.154623985,4.198773384
10.86,0.039473772,1.15563488,4.215003967
10.87,0.449719727,0.269970894,4.406116486
10.88,0.035540283,0.712098122,4.050662041
10.89,-0.584034801,1.380959511,2.894212723
10.9,-1.352105975,2.647951126,1.467684507
10.91,-2.331314564,3.680151939,0.978895247
10.92,-2.839219093,4.231779099,1.330176711
10.93,-3.271203756,4.463451385,2.064780474
10.94,-3.287977934,4.463763237,2.031221151
10.95,-2.990667582,3.305890083,2.285172939
10.96,-1.705630541,2.035503387,1.245543718
10.97,-1.167288184,0.793682098,0.29523319
10.98,-0.74834764,-0.40742588,-0.076273769
10.99,-0.279206693,-1.44357872,-0.105477691
11,0.38221845,-2.499263287,-0.317018747
11.01,0.372296244,-2.499595165,-0.322470486
11.02,0.708105326,-3.561169624,-0.334811389
11.03,1.035567045,-4.359720707,-0.228752524
11.04,2.159681797,-5.608738422,0.063887894
11.05,2.118609667,-5.610563755,0.057774842
11.06,1.685699701,-5.710705757,0.247035146
11.07,1.242684841,-5.655362129,0.01432091
11.08,0.923469901,-5.626589298,-0.283469647
11.09,0.65597868,-5.530789375,-0.514906466
11.1,0.447142363,-5.368021011,-0.737491071
11.11,0.422236323,-5.370410919,-0.706030607
11.12,0.043514729,-5.113960743,-1.06012392
11.13,-0.554721296,-4.785386562,-1.242498875
11.14,-0.623182952,-4.264894962,-0.997580648
11.15,-0.673074186,-3.796843529,-0.430770457
11.16,-1.220757008,-3.316721439,-1.562888145
11.17,-1.413486362,-2.401009083,-2.087377548
11.18,-1.220666885,-1.485316277,-1.578053236
11.19,-0.816821575,-0.741691589,-1.00319767
11.2,-0.708933175,0.018877029,-1.418881416
11.21,-0.699173927,0.018251419,-1.37375927
11.22,-0.750703931,1.088155746,-0.57479924
11.23,-0.715323925,1.581226349,-0.509480596
11.24,-0.903042495,2.179719925,-0.588501692
11.25,-0.784414291,2.677708626,-0.71996069
11.26,-0.848380804,3.190055847,-0.678168654
11.27,-1.39956522,3.688092232,-0.792443812
11.28,-1.953650236,3.884474754,-1.455658674
11.29,-3.03182292,3.939631462,-2.133474112
11.3,-3.964105368,3.64295578,-2.342903852
11.31,-3.95191741,3.643383026,-2.330436468
11.32,-3.783122063,3.462140083,-1.51832962
11.33,-1.739112139,4.555059433,0.030088827
11.34,1.290869713,5.24839592,1.000009298
11.35,3.226384878,5.307142258,1.446495295
11.36,4.005609035,5.270134926,2.525932312
11.37,4.004327774,5.27184391,2.579847574
11.38,3.794050217,5.055685043,4.126270294
11.39,3.646016359,4.654899597,4.461658001
11.4,2.973977804,2.393205643,3.304498196
11.41,2.952483177,2.393099785,3.315950871
11.42,2.364441395,0.005134583,0.733860016
11.43,2.340769053,0.003805161,0.718101621
11.44,0.49704212,0.014223099,-0.140025049
11.45,0.391463578,0.376552582,0.008760482
11.46,0.542814612,0.885058403,0.36620456
11.47,0.538740695,1.477503777,0.713540494
11.48,0.445238918,1.825843811,0.936262131
11.49,0.040159389,1.944448471,1.144758344
11.5,-0.367268264,1.646593094,1.295769453
11.51,-0.458944619,0.522901535,1.405002117
11.52,-0.455375642,0.522356033,1.364521742
11.53,-0.801412582,-0.437994957,1.154786348
11.54,-0.813148081,-1.76905632,0.592092633
11.55,-0.698051333,-4.047952652,-0.134600282
11.56,-0.593974948,-4.985825539,-0.165155649
11.57,-0.559529185,-4.984901428,-0.172939807
11.58,-0.248539656,-5.862419605,-0.016293723
11.59,0.344132155,-6.179468632,0.6589517
11.6,0.23591733,-6.206613541,0.18643491
11.61,0.278501988,-6.204742432,0.174630001
11.62,0.484944433,-5.80766201,0.001518004
11.63,0.699193418,-5.415290356,0.238171011
11.64,0.844896197,-4.903108597,0.053405561
11.65,0.900518417,-4.46999836,-0.534894586
11.66,1.003165245,-3.246968746,-0.952930331
11.67,1.023710847,-3.2453866,-0.976462185
11.68,0.84115696,-2.11184454,-1.329760075
11.69,0.710108697,-1.541318893,-1.368743181
11.7,0.419019938,-0.90639782,-1.261272311
11.71,0.110894442,-0.278861046,-1.126836419
11.72,0.062836707,0.133218765,-0.549164593
11.73,0.06465137,0.133551598,-0.558702946
11.74,0.397619426,0.581734657,-0.216493428
11.75,0.328963906,0.735434532,-0.559934437
11.76,0.204692572,1.01843071,-0.858187318
11.77,-0.025569558,1.476101875,-1.248994708
11.78,-0.213433206,2.05586338,-1.337718487
11.79,-0.332820058,2.618840218,-1.094669223
11.8,-0.450077951,2.846642494,-1.408793211
11.81,-0.525007188,2.921329498,-1.936348557
11.82,-0.917624712,2.828813553,-1.835408568
11.83,-1.31089139,3.048122406,-0.504104435
11.84,-0.906891644,4.053250313,1.269587636
11.85,-0.883982539,4.055040359,1.281585097
11.86,-0.146220923,4.927899361,1.701407552
11.87,0.558398128,4.960212708,1.7840482
11.88,0.581023336,4.962159157,1.796736598
11.89,-0.39092201,4.150936127,2.838877678
11.9,-0.870394111,3.023941994,3.78868866
11.91,-1.163290024,1.554430962,4.326951504
11.92,-1.101094246,0.584823608,4.504563808
11.93,-0.894431591,0.220129013,4.099903107
11.94,-1.021696448,0.785564423,3.628853559
11.95,-1.351811886,1.467730522,3.10204196
11.96,-1.316534281,2.223612785,2.387164116
11.97,-1.261864424,3.300268173,1.987584233
11.98,-1.282404184,4.099517822,2.036697626
11.99,-1.765147686,4.806070328,2.347370386
12,-2.278041601,4.758791924,2.710351706
12.01,-2.442209721,3.964460373,2.202943802
12.02,-1.564536572,1.66147995,0.899375916
12.03,-0.941567898,0.431018829,1.150864959
12.04,-0.37993145,-0.857061386,0.207784534
12.05,-0.033614635,-1.983154297,-0.425159842
12.06,-0.053460836,-1.984408379,-0.438237518
12.07,0.54662776,-3.166398525,-0.081095606
12.08,1.011061907,-4.600104332,-0.141882747
12.09,1.362634897,-5.050205708,0.198656291
12.1,1.677486658,-5.374009132,0.265770197
12.11,1.951701403,-5.523460865,0.312102258
12.12,1.92624712,-5.649243355,0.320468575
12.13,1.885869026,-5.65299511,0.342167467
12.14,1.124441624,-5.46259594,0.06947875
12.15,0.830847383,-5.33910656,-0.076836795
12.16,0.541781545,-5.160275459,-0.371779263
12.17,0.355429351,-5.021842003,-0.611194491
12.18,0.022364199,-4.887864113,-0.921742499
12.19,-0.005081743,-4.890004158,-0.88919425
12.2,-0.462715894,-4.71696043,-0.845683575
12.21,-0.888126016,-4.227613449,-1.213311076
12.22,-0.892454624,-3.776348591,-1.155731082
12.23,-0.909942269,-3.777398586,-1.130991697
12.24,-0.800619543,-2.226617336,-1.246264935
12.25,-0.950546861,-1.345967293,-1.170292616
12.26,-0.952121019,-0.352408409,-1.055498838
12.27,-0.945837498,-0.352255821,-1.022896528
12.28,-1.040235281,1.393533707,-1.057148814
12.29,-1.150738835,2.143537521,-1.118776083
12.3,-1.032170773,2.661504745,-1.150291562
12.31,-0.840930402,3.215481758,-1.144696712
12.32,-0.913650751,3.568239212,-1.18516171
12.33,-1.364563823,3.736409187,-1.20082128
12.34,-2.175521135,3.662503242,-1.716031671
12.35,-3.220633984,3.416107178,-2.314184666
12.36,-3.942777395,3.14607048,-2.604711294
12.37,-3.923874378,3.147403717,-2.584570885
12.38,-3.683260679,3.051439285,-2.126823187
12.39,-0.419497758,4.582220078,-0.602102876
12.4,1.503599167,4.877973557,-0.322815418
12.41,3.134704828,5.233350754,1.012467384
12.42,3.127937555,5.236321449,1.07574439
12.43,3.905745029,5.359368324,3.227220535
12.44,3.804163933,5.307871819,3.926662683
12.45,2.296418905,3.49642086,2.311629057
12.46,1.819291234,1.884725571,1.917340755
12.47,1.611308694,0.537155151,1.578490973
12.48,1.53305006,-0.57946682,0.714104295
12.49,1.651903868,-0.943430901,0.244068921
12.5,1.631953239,-0.946499825,0.214630365
12.51,1.189914465,0.153973579,0.078530252
12.52,1.222237587,0.890719414,0.439537972
12.53,1.358544588,1.471657753,0.827687979
12.54,1.343541503,1.468184471,0.778186679
12.55,1.011460066,1.958125114,1.265469432
12.56,0.377121627,1.890405655,1.878699541
12.57,-0.380888671,0.427270889,1.227629423
12.58,-0.600532949,-0.805226326,0.31583795
12.59,-0.968515933,-1.883460999,-0.025275648
12.6,-0.948993683,-1.883559227,-0.053657442
12.61,-0.945081234,-2.826485634,-0.362449706
12.62,-0.601896346,-3.74987793,-0.305566728
12.63,-0.14708519,-5.067983627,0.261651427
12.64,0.045521528,-5.473526478,0.502391517
12.65,0.116339624,-5.610572815,0.634009659
12.66,0.42697674,-5.699552536,0.545134664
12.67,0.812124252,-5.649606228,0.291331828
12.68,1.026757717,-5.451253891,0.029679701
12.69,1.062248111,-5.121219158,-0.225632653
12.7,1.004246116,-4.566222668,-0.605326712
12.71,0.772850394,-4.011380196,-0.912797809
12.72,0.789876699,-3.382606506,-1.120871067
12.73,0.815924466,-2.883637428,-1.158545613
12.74,0.797791719,-2.215261459,-1.031118751
12.75,0.648323417,-1.599861145,-0.98858875
12.76,0.477103442,-1.049287796,-1.059613347
12.77,0.234676182,-0.635124207,-0.979844868
12.78,0.005046189,-0.23507309,-0.77143538
12.79,0.011486351,-0.23455143,-0.771286249
12.8,-0.370269597,0.355298042,-0.939456224
12.81,-0.526878476,0.600606918,-1.338865757
12.82,-0.683569849,0.95606041,-1.496399999
12.83,-0.850875378,1.495855331,-1.459638953
12.84,-0.875722468,2.282175064,-1.167925715
12.85,-0.881035745,2.936631203,-0.892000854
12.86,-0.873523235,2.93734169,-0.884912431
12.87,-1.221244812,3.168023109,-1.856657743
12.88,-1.747311711,3.581427574,-1.665941358
12.89,-1.619423866,4.213466644,-0.209223598
12.9,-0.858532608,5.235886574,1.083504319
12.91,-0.41640234,5.43182373,0.418515474
12.92,0.237186611,5.246995926,0.65125984
12.93,0.316147625,4.899606705,1.894630432
12.94,-0.031867862,4.045336723,2.654132605
12.95,-0.049979925,2.9522686,3.291536331
12.96,-0.020966053,2.955540657,3.300921679
12.97,0.204822004,1.142960548,4.620195389
12.98,0.176221907,0.626836777,4.543004036
12.99,-0.017991543,0.652496338,4.130992889
13,-0.513839483,1.048464775,3.252950907
13.01,-1.287092686,1.635514259,2.628699064
13.02,-1.873601556,2.569753647,1.876806259
13.03,-2.695260048,3.401293755,1.290089369
13.04,-2.706090689,3.400081635,1.27756536
13.05,-3.073964119,3.751064301,1.3711797
13.06,-2.386043549,3.043807983,1.526736617
13.07,-1.562184691,2.07797718,1.28110826
13.08,-1.571081996,2.077108383,1.265117288
13.09,-0.578093052,0.122623444,0.072565019
13.1,-0.161588848,-0.910236359,0.060540833
13.11,0.429105759,-1.957991123,0.201833621
13.12,0.984127343,-2.810051918,0.175165594
13.13,1.150309801,-3.609907627,0.206466526
13.14,1.111133933,-4.211125851,0.417444021
13.15,1.028632164,-4.697559834,0.423036128
13.16,1.161592126,-5.172156811,0.296858072
13.17,1.304267287,-5.658844471,0.099145375
13.18,1.35959661,-5.836694717,-0.075656205
13.19,0.982402682,-5.873084068,-0.101573587
13.2,0.670672774,-5.870848656,-0.082310669
13.21,0.472587705,-5.801209927,-0.107277416
13.22,0.286718428,-5.62098074,-0.309504986
13.23,0.264820159,-5.622374058,-0.27830714
13.24,0.074285746,-5.216491699,-0.64418298
13.25,-0.188239038,-4.2334795,-0.897319078
13.26,-0.520531654,-3.506573677,-0.935394526
13.27,-0.836903036,-2.738769531,-1.231200814
13.28,-1.039881706,-1.834209442,-1.568464637
13.29,-1.283577323,-1.072882652,-1.523229003
13.3,-1.290444016,-1.072604179,-1.492087364
13.31,-1.268188834,0.29501915,-1.193168402
13.32,-1.269101381,0.295743942,-1.163996458
13.33,-1.420276403,1.285593033,0.299721301
13.34,-1.78047359,1.566951752,-0.141516119
13.35,-1.78943038,1.808168411,-1.434816241
13.36,-1.694650888,1.81511116,-1.597930312
13.37,-0.898469567,2.082819939,-0.358500063
13.38,-0.421970666,2.464637756,-0.453506738
13.39,-0.781155407,2.819759369,-0.740487576
13.4,-1.246978521,3.212916374,-1.157082677
13.41,-2.440732956,3.246677399,-1.734946012
13.42,-3.738677025,3.036318779,-2.010371685
13.43,-3.728336334,3.037214279,-2.003873825
13.44,-3.026422024,3.522479057,-0.592536271
13.45,-0.918459535,4.018198967,0.535927117
13.46,-0.908686221,4.021130562,0.576661944
13.47,2.617221832,4.230157852,1.385755301
13.48,3.098941565,3.982248306,2.324378014
13.49,3.209256411,3.715455055,2.768455029
13.5,3.212419033,3.718743324,2.808219671
13.51,2.415853024,2.145086288,2.702612162
13.52,2.542150497,1.342852592,1.963945866
13.53,2.526448488,1.341031075,1.952884436
13.54,3.237797737,0.124055862,1.467054129
13.55,3.033183575,0.347561836,0.814717412
13.56,2.312002659,0.891786575,0.485756934
13.57,2.0475595,1.677876472,0.614129782
13.58,1.791044593,2.483077049,0.849551201
13.59,1.685950279,2.955508232,0.948045611
13.6,1.19757998,3.272337914,1.15584898
13.61,1.16528511,3.26849556,1.102672815
13.62,-0.168552309,2.22577858,1.270556331
13.63,-0.195808858,2.222582817,1.209164619
13.64,-0.665921748,0.66618824,0.839506984
13.65,-1.38751328,-2.172825813,-0.093805671
13.66,-1.311710835,-3.426265717,-0.238621861
13.67,-1.215931892,-4.42063427,-0.155085519
13.68,-1.084633112,-5.048090935,-0.025826968
13.69,-0.92451632,-5.411753654,0.010353312
13.7,-0.892683387,-5.411078453,-0.015840054
13.71,-0.548534811,-5.489057541,0.547149062
13.72,-0.157280892,-5.324857235,0.677080274
13.73,0.11969167,-5.160361767,0.454588741
13.74,0.163918167,-5.158345699,0.427910328
13.75,0.267963499,-4.612551689,-0.117828637
13.76,0.432475984,-4.375453949,-0.599139988
13.77,1.107990742,-4.138304234,-0.422110438
13.78,1.524592876,-3.894057274,-0.323863477
13.79,1.553587914,-3.891787529,-0.348704815
13.8,1.19727397,-3.078106403,-0.716297507
13.81,1.216106892,-3.07640028,-0.736152411
13.82,1.13574934,-2.0263834,-0.8279953
13.83,0.980563641,-1.331198692,-0.950539231
13.84,0.725960851,-0.665097237,-0.721750498
13.85,0.620386362,-0.056661606,-0.683569074
13.86,0.36279887,0.448691368,-0.827582359
13.87,0.362725198,0.448696137,-0.828573525
13.88,0.125612438,1.667214394,-0.910199523
13.89,0.121747911,1.666909218,-0.909452081
13.9,-0.150770903,2.190858841,-1.207851171
13.91,-0.541158617,3.38498497,-1.548906326
13.92,-0.624471247,3.719504356,-1.583359718
13.93,-0.636247039,3.718770981,-1.586874723
13.94,-0.582212567,3.821070671,-1.377503037
13.95,-0.796407878,3.607542038,-1.186194777
13.96,-1.024594784,3.959516525,-0.365889072
13.97,-1.017770052,3.960076332,-0.369292617
13.98,-0.256645083,5.373326302,1.500142932
13.99,0.061861634,5.445921898,1.562987089
14,0.204101682,4.747911453,2.104444265
14.01,-0.272119105,3.569417,2.345411539
14.02,-0.749938726,2.351397514,2.157491922
14.03,-0.82821238,1.021366119,2.297966003
14.04,-0.774615228,-0.150774956,3.213870525
14.05,-0.064661145,-1.036253929,3.892699242
14.06,0.838841319,-1.446346283,4.292684078
14.07,0.356694698,-0.480872154,4.367473602
14.08,-0.17411387,0.586806297,3.683760166
14.09,-0.18203789,0.586235046,3.673856735
14.1,-0.771053195,1.909452438,2.108953953
14.11,-2.290203094,4.35803318,0.700512528
14.12,-2.296768427,4.357476234,0.697526872
14.13,-3.020474434,4.94137764,1.17359519
14.14,-3.139970303,4.665448189,2.092519522
14.15,-1.429127693,2.512116432,1.860179663
14.16,-0.931548595,1.234872818,1.013277888
14.17,-0.864106834,0.055925369,0.475242227
14.18,-0.663270891,-0.790023804,0.17407009
14.19,-0.36576575,-1.808399677,-0.125542194
14.2,-0.098990917,-2.683333397,-0.348679483
14.21,0.428402066,-3.469940186,-0.212743163
14.22,0.900550842,-4.19228363,0.770685196
14.23,1.240187407,-4.737623692,0.2520172
14.24,1.217457414,-4.739646435,0.265454948
14.25,1.152831793,-5.129635334,-0.253079921
14.26,1.132067204,-5.131649494,-0.225262567
14.27,0.979581237,-5.013846874,-0.263086051
14.28,0.957329631,-5.015744686,-0.2319545
14.29,1.209470749,-4.735136032,-0.059555281
14.3,0.81670171,-4.43062973,-0.048864648
14.31,0.600506961,-4.176257133,-0.264761388
14.32,0.57044977,-4.177978516,-0.245049387
14.33,-0.284064025,-3.638381958,-0.41838342
14.34,-0.308688492,-3.639587402,-0.401371747
14.35,-0.937832475,-3.451390743,-0.538649201
14.36,-1.284330964,-3.121589184,-0.977916241
14.37,-1.328548551,-2.274162769,-1.325777054
14.38,-1.181823492,-1.873911858,-0.990876854
14.39,-1.174815178,-1.873041153,-0.952269852
14.4,-0.926743746,-0.957186699,-0.305844963
14.41,-0.91238147,-0.95555687,-0.263864666
14.42,-0.497814447,-0.137014389,-0.635866404
14.43,-0.481387794,-0.134644508,-0.587396145
14.44,-0.504829526,0.310880661,-0.823334456
14.45,-0.434224725,0.861696243,-0.992290378
14.46,-0.091046631,1.275647163,-0.899619699
14.47,-0.066276014,2.153598785,-0.769636691
14.48,-0.703478813,2.436904907,-0.879597724
14.49,-0.714673758,2.437104225,-0.86545521
14.5,-3.509593487,2.154542923,-1.69702363
14.51,-4.38079977,1.750464439,-2.14252615
14.52,-4.361318111,1.752487183,-2.124970198
14.53,-3.31964922,3.345960617,-0.806829035
14.54,-1.028832674,4.982574463,-1.056271791
14.55,1.011988044,5.805820465,-0.90766722
14.56,3.122996092,6.436710358,0.710064292
14.57,4.410049915,6.721410751,3.028437376
14.58,4.320389748,6.253939629,4.41594696
14.59,3.86677599,4.969826698,4.920283318
14.6,3.193928242,3.277751923,4.506817818
14.61,2.608513832,1.569783211,2.758278131
14.62,2.589810371,1.569075584,2.761698961
14.63,1.695982933,-0.73568058,-1.414984822
14.64,1.50999999,-0.631899834,-1.506979227
14.65,1.846899986,0.035700798,0.050822198
14.66,2.413525343,1.142821312,1.566673517
14.67,2.384259701,2.307008743,1.859784842
14.68,1.667757154,2.949911118,2.08271265
14.69,0.963715017,3.021428108,2.507590771
14.7,0.944399715,3.016788483,2.454697609
14.71,0.047035575,2.553420067,2.182330608
14.72,-0.569295406,1.140885353,0.872756362
14.73,-0.815726221,-1.848573685,-0.357270598
14.74,-0.722971439,-2.891022682,-0.286498189
14.75,-0.666221559,-3.878111362,-0.127810061
14.76,-0.648090184,-3.878503323,-0.145736158
14.77,-0.178698391,-4.94176054,0.480387777
14.78,-0.303549498,-5.10202837,0.801872313
14.79,0.045336187,-5.163568974,0.896845996
14.8,0.153573841,-5.169737816,0.704504609
14.81,0.198589474,-5.063029766,0.383203685
14.82,0.368104994,-4.867569447,0.182640344
14.83,0.478371471,-4.63381815,0.0669038
14.84,0.574568093,-4.340331078,-0.311895073
14.85,0.499542952,-3.941619396,-0.463379771
14.86,0.460855544,-3.622014523,-0.362543434
14.87,0.405258358,-3.182854176,-0.382882893
14.88,0.47642386,-2.662370682,-0.333094358
14.89,0.56859529,-2.077378273,-0.189279616
14.9,0.582470119,-2.076786995,-0.200488299
14.91,0.599063039,-1.188046455,-0.129519641
14.92,0.544314146,-0.94348526,-0.283813119
14.93,0.575750053,-0.816410065,-0.493094593
14.94,0.506071627,-0.565020561,-0.539303601
14.95,0.515387595,-0.151018143,-0.442185432
14.96,0.449353129,0.231627464,-0.47827217
14.97,0.447547346,0.231269836,-0.484653652
14.98,0.250121951,1.411455154,-0.222576439
14.99,0.409033865,1.914108276,-0.326081455
15,0.406038255,1.913977623,-0.322998613
15.01,0.242832303,2.474253654,-1.082327366
15.02,0.12268126,2.431480408,-1.437981129
15.03,-0.100101531,2.453609467,-0.954648912
15.04,-0.40974468,2.835211754,0.237118155
15.05,-0.224382341,3.497265816,0.67434907
15.06,-0.213562012,3.49870491,0.689329743
15.07,-0.483574867,4.857919693,-0.429597467
15.08,-0.439347625,5.465249062,-0.082475126
15.09,-0.439220965,5.816127777,1.449944854
15.1,-0.842301965,5.386464119,3.623120785
15.11,-1.145307541,4.332220078,4.338824749
15.12,-0.634954751,2.916708946,4.141817093
15.13,-0.620482802,2.917902946,4.139143944
15.14,-0.053469241,1.500574112,3.652807713
15.15,0.759137511,-0.719936371,2.60897541
15.16,0.769570351,-0.877687454,3.48390007
15.17,0.551928163,-0.241285324,3.742933035
15.18,0.201817334,0.500357628,3.366867542
15.19,-0.179397225,1.347517014,2.762773752
15.2,-0.998915792,2.096798897,2.236706018
15.21,-1.60784173,2.647769928,1.911807179
15.22,-1.920832634,2.634055138,1.759606957
15.23,-1.739057064,2.201700211,1.498291731
15.24,-1.205662966,1.33855629,1.288513303
15.25,-0.630931556,0.398881912,1.301963925
15.26,-0.116678715,-0.344295502,1.501244545
15.27,-0.133940518,-0.34505558,1.460065842
15.28,0.395020634,-1.693612099,1.622625589
15.29,0.54098165,-2.110480785,1.620018601
15.3,0.516584754,-2.390648365,1.491848111
15.31,0.239183277,-2.572413921,1.317816377
15.32,0.056261063,-2.595977783,1.299211144
15.33,-0.056880713,-2.657662392,0.866289735
15.34,-0.28664434,-2.494252205,0.434855104
15.35,-0.423199236,-2.395397186,0.260721803
15.36,-0.42955488,-2.394546509,0.232023627
15.37,-0.239272714,-2.048779011,0.315263093
15.38,-0.175329924,-1.860862255,0.400454044
15.39,-0.179981172,-1.859611988,0.371147931
15.4,0.017131746,-1.506296158,0.572270095
15.41,0.05338794,-1.423447609,0.754144907
15.42,-0.072585404,-1.323712349,1.048169136
15.43,0.045645714,-1.233436584,1.183636904
15.44,0.04028821,-1.231754303,1.154057384
15.45,0.167862713,-1.083992958,1.471818447
15.46,0.160509229,-1.082149506,1.441286564
15.47,0.118537456,-0.843026161,1.922749281
15.48,0.021169841,-0.534558296,1.688350558
15.49,-0.222133577,-0.214284897,1.359024048
15.5,-0.523597181,0.076953888,0.81499356
15.51,-1.057094693,0.384347916,0.550318658
15.52,-1.024096489,0.600286484,0.564159155
15.53,-0.833018422,0.760676384,0.88013196
15.54,-0.832488179,0.760280609,0.885008514
15.55,-1.117177725,0.709222794,0.407084465
15.56,-1.164999723,0.284667969,0.6974594
15.57,-1.179315567,0.030435562,0.299365759
15.58,-1.338028073,-0.264684677,-0.701134503
15.59,-1.301100969,-0.437838554,-0.611647368
15.6,-1.189265013,-0.373686791,-0.124991596
15.61,-1.079284549,-0.201576233,0.060394228
15.62,-1.072068691,-0.201906204,0.069363534
15.63,-0.962833524,0.520744324,-0.019105375
15.64,-0.813622713,0.944037437,-0.133368015
15.65,-0.585632265,1.321562767,-0.13571769
15.66,-0.427962005,1.5048666,-0.220175564
15.67,-0.248897374,1.395718575,-0.402460724
15.68,-0.229728997,0.917589188,-0.476728201
15.69,-0.233725905,0.915843964,-0.45538044
15.7,-0.062063098,-0.436238289,-0.404148668
15.71,0.054637969,-1.105870247,-0.389407545
15.72,0.211543888,-1.581480026,-0.536052227
15.73,0.206870645,-1.582950592,-0.516624391
15.74,0.43887198,-1.8235569,-0.573064804
15.75,0.743003666,-1.520504951,-0.432807744
15.76,0.794099987,-1.224481583,-0.341861218
15.77,0.899585724,-0.861242294,-0.268541545
15.78,0.886839271,-0.861822128,-0.269669145
15.79,1.117197275,-0.070735931,-0.463262588
15.8,1.08694005,-0.072498322,-0.456487864
15.81,0.994626641,0.612577438,-0.729899585
15.82,0.840400457,0.900155067,-0.803786039
15.83,0.757313132,0.914914131,-0.727514148
15.84,0.487921447,0.831849098,-0.400848389
15.85,0.559117615,0.7797575,-0.126976907
15.86,0.529797673,0.780529976,-0.151554287
15.87,0.698726594,0.690373421,-0.048114657
15.88,0.590304732,0.751134872,-0.112807751
15.89,0.356097072,0.814343453,-0.103984058
15.9,0.147203147,0.800902367,-0.068879843
15.91,0.130365044,0.820721626,-0.16715461
15.92,0.110556543,0.828392983,-0.020291746
15.93,0.360942334,0.558105469,-0.176225841
15.94,0.337845117,0.265950203,-0.312664986
15.95,0.09413375,-0.000218391,-0.503674507
15.96,0.095273852,-0.001002312,-0.492143214
15.97,0.102960683,-0.289232254,-0.322476238
15.98,0.485579372,-0.905628204,0.099096835
15.99,0.332437128,-1.093836784,-0.022888601
16,0.266309351,-1.169541359,0.578022897
16.01,0.354440123,-1.106133461,0.417435825
16.02,0.159395695,-0.848814964,-0.48845005
16.03,-0.074453875,-0.476561546,-0.741466165
16.04,-0.116121516,-0.159155846,-0.858497679
16.05,-0.106299833,-0.160007477,-0.837954044
16.06,-0.085346997,0.528881073,-0.093618006
16.07,-0.009989336,0.935489655,0.353096396
16.08,-0.113925561,1.267764091,0.123624504
16.09,-0.264720321,1.501702309,-0.371950209
16.1,-0.520037949,1.572717667,-0.577508807
16.11,-0.729061008,1.430698395,-0.523119867
16.12,-0.872450888,1.085268974,-0.342222244
16.13,-0.708577156,0.586732864,-0.025854528
16.14,-0.472963661,0.025959015,0.113358319
16.15,-0.201931164,-0.458204269,0.067603499
16.16,-0.202961847,-0.458722115,0.084083945
16.17,-0.367396265,-1.249339104,-0.132381812
16.18,-0.209788308,-1.525025368,-0.2235751
16.19,-0.210661858,-1.501332283,-0.107282847
16.2,-0.136254832,-1.398440361,-0.223693207
16.21,-0.126709744,-1.398490906,-0.214698717
16.22,-0.218814895,-0.761650085,-0.197149515
16.23,-0.379311234,-0.428861618,-0.221679673
16.24,-0.372764915,-0.428877831,-0.214230046
16.25,-0.428412378,-0.235002518,-0.317964196
16.26,-0.52698046,-0.024346352,-0.452015549
16.27,-0.590761185,0.021121025,-0.383275807
16.28,-0.619254828,0.085747719,-0.224204749
16.29,-0.681745291,0.152840614,-0.317413449
16.3,-0.666997075,0.152920723,-0.296933711
16.31,-0.726420283,0.198613167,-0.26494199
16.32,-0.54888773,0.177310944,-0.329219073
16.33,-0.301478893,0.266168594,-0.348869413
16.34,-0.251669228,0.288043976,-0.320967078
16.35,-0.186707795,0.388976097,-0.306747198
16.36,-0.175949991,0.389343262,-0.285530627
16.37,-0.097655475,0.535748482,-0.164077744
16.38,-0.224812269,0.492957115,0.020487942
16.39,-0.383723259,0.361569405,0.167393416
16.4,-0.406042457,0.16073513,0.028672598
16.41,-0.449808419,-0.066429138,-0.256883621
16.42,-0.264617682,-0.341397286,0.186323047
16.43,-0.256950498,-0.341066361,0.191461876
16.44,-0.31530878,-0.687812805,0.061756957
16.45,-0.605720162,-0.833313942,-0.298059106
16.46,-0.32738182,-0.677103043,0.187779456
16.47,-0.230083764,-0.482682228,-0.011994809
16.48,-0.188173473,-0.194887161,-0.192756251
16.49,-0.192216128,-0.029182434,0.055750992
16.5,-0.227908462,0.091001511,0.089737043
16.51,-0.218466461,0.091468811,0.089940295
16.52,-0.28524515,0.156597138,0.05687597
16.53,-0.351518929,0.166729927,0.034326799
16.54,-0.373078346,0.124320984,0.002589539
16.55,-0.295027256,0.038935661,-0.051144093
16.56,-0.276232064,0.03265667,-0.061987966
16.57,-0.120508909,0.007301331,-0.063876733
16.58,-0.100088358,-0.049204826,-0.129995182
16.59,-0.045249045,-0.086631775,-0.084997654
16.6,-0.016352773,-0.090669632,-0.233688265
16.61,-0.06605345,0.036827087,-0.202360228
16.62,0.01917392,0.089962006,-0.068679929
16.63,0.112350494,0.14296627,0.14658232
16.64,0.010014057,0.150382996,0.311081171
16.65,0.013408184,0.150644302,0.313832849
16.66,0.025721431,0.150891304,0.160079405
16.67,0.073597491,0.041017532,-0.184471846
16.68,-0.008713007,0.038817406,-0.150680214
16.69,0.018980145,0.029445648,-0.021548688
16.7,0.029280603,-0.090133667,0.001762539
16.71,0.029304147,-0.090024948,0.006217659
16.72,-0.042863727,-0.118664742,-0.027041584
16.73,-0.010935843,-0.14257431,-0.194117039
16.74,-0.039209723,-0.030033112,-0.12145704
16.75,-0.218457878,0.039405823,-0.106592715
16.76,-0.150040507,0.082590103,-0.215459853
16.77,-0.19418633,0.128227234,-0.140826851
16.78,-0.123008311,0.169106484,0.039508507
16.79,-0.061544836,0.140562058,0.176944584
16.8,-0.007343292,0.071336746,0.162277728
16.81,-0.007875323,0.07162571,0.172985375
16.82,-0.122326553,-0.074052811,0.086063653
16.83,-0.121953368,-0.07367897,0.096589327
16.84,-0.083642781,-0.193082809,0.063066453
16.85,-0.284782589,-0.278978348,-0.325995147
16.86,-0.463635206,-0.14221096,-0.244211227
16.87,-0.363676906,-0.015061378,0.035017759
16.88,-0.127490759,0.042613029,0.322592855
16.89,-0.26078254,0.045175552,0.139521644
16.9,-0.313948631,0.043122292,0.264899403
16.91,-0.210293293,0.024327278,0.329108357
16.92,-0.221201241,0.036557198,0.217988059
16.93,-0.22149682,-0.032512665,-0.287697494
16.94,-0.078812718,-0.00339222,-0.130772412
16.95,-0.076523185,-0.003202438,-0.12952444
16.96,-0.091834486,0.054329872,0.233863369
16.97,-0.18605876,0.135810852,0.257224381
16.98,-0.263251901,0.047356606,0.041891992
16.99,-0.243976772,-0.01226902,0.115355879
17,-0.082948685,-0.019185066,0.222598687
17.01,0.044101179,-0.02853775,0.329231203
17.02,0.046221852,-0.028378487,0.330091149
17.03,0.26125294,-0.061700821,0.331548631
17.04,0.263189733,-0.061421394,0.335796863
17.05,0.298209399,-0.13053894,0.34081915
17.06,0.231918693,-0.187714577,0.126499444
17.07,0.081268489,-0.127619743,0.30440715
17.08,0.080743253,-0.127484322,0.308535308
17.09,-0.008629441,-0.05792141,0.054373443
17.1,-0.117303908,-0.002710342,-0.015130401
17.11,-0.144182026,0.050104141,-0.015711755
17.12,-0.144623816,0.050258636,-0.01173535
17.13,-0.125857532,0.117474556,-0.016288161
17.14,-0.189975321,0.141742706,0.025965571
17.15,-0.291281164,0.048857689,-0.125810444
17.16,-0.285768092,0.004018784,-0.195040256
17.17,-0.282643139,-0.014504433,-0.143335074
17.18,-0.18147862,-0.052279472,-0.014241159
17.19,-0.098130107,-0.030343056,0.137300611
17.2,-0.097526491,-0.030098915,0.141637027
17.21,0.078901589,-0.029916763,0.050403148
17.22,0.010899901,0.015810966,0.083072573
17.23,0.010312438,0.01609993,0.089421839
17.24,-0.036455989,-0.002807617,0.000100493
17.25,-0.093635559,-0.014601707,-0.067986071
17.26,-0.089211822,0.047784805,-0.042803288
17.27,-0.159373939,0.052695274,0.030781835
17.28,-0.219285786,0.084098816,-0.030641854
17.29,-0.211446345,0.05339241,-0.195554614
17.3,-0.332418621,0.008530617,-0.403224587
17.31,-0.399023831,0.040500641,-0.391394377
17.32,-0.291975319,-0.016074181,-0.313568413
17.33,-0.291984379,-0.015385628,-0.30213809
17.34,-0.016816497,-0.022192001,0.123467565
17.35,0.018127322,-0.153654099,0.312886149
17.36,-0.054440975,-0.167812347,0.175747126
17.37,-0.080454707,-0.081415176,-0.000884116
17.38,-0.167886376,-0.054813385,-0.524611354
17.39,-0.169134498,-0.054368019,-0.516415596
17.4,-0.122837961,-0.054005623,-0.272239268
17.41,-0.112930238,0.097082138,0.16215536
17.42,-0.246871948,0.075761795,0.1055668
17.43,-0.27660197,0.059347153,0.013443351
17.44,-0.286084056,-0.045617104,0.131599665
17.45,-0.155192494,-0.167235375,0.084684253
17.46,-0.152629256,-0.166505814,0.092615724
17.47,-0.11251694,-0.213454247,-0.0414235
17.48,-0.095575392,-0.315279007,-0.188126087
17.49,-0.016778529,-0.395607948,-0.07431531
17.5,0.049173892,-0.392245293,-0.004575431
17.51,0.079015553,-0.328992844,0.053592145
17.52,0.081813514,-0.32811451,0.062863052
17.53,0.074426353,-0.238762856,0.164274573
17.54,0.023207545,-0.036924362,-0.0455091
17.55,-0.01441586,-0.017152786,-0.086003542
17.56,-0.11073345,-0.043079376,0.058541894
17.57,-0.028315783,-0.030883789,0.122537494
17.58,-0.05913204,-0.09536171,0.104736984
17.59,-0.044605851,-0.140678406,0.147124171
17.6,-0.046654463,-0.140542984,0.150612295
17.61,-0.076784074,-0.209899902,0.150259197
17.62,-0.054090619,-0.197995186,0.05947262
17.63,0.056602657,-0.090459824,-0.089922667
17.64,0.05440259,-0.09072113,-0.091415882
17.65,0.063908875,0.086100578,0.069032013
17.66,0.008778274,0.147965431,0.231302738
17.67,0.205277443,0.152300835,0.167701244
17.68,0.202593327,0.151978493,0.165685952
17.69,0.243240267,0.067913055,0.221832037
17.7,0.229455262,0.067696571,0.19660461
17.71,0.237232059,0.067572594,-0.00696224
17.72,0.34505859,0.091489792,0.02810961
17.73,0.340906411,0.091135979,0.02698338
17.74,0.2661044,0.186281204,0.274831384
17.75,0.211319655,0.159292221,0.298359722
17.76,-0.018009186,0.153964043,0.203423202
17.77,-0.169815064,0.091312408,-0.046255231
17.78,-0.175266028,0.090929985,-0.046795189
17.79,0.140791863,-0.139580727,0.493802488
17.8,0.106054694,-0.298329353,0.696649671
17.81,0.098559052,-0.299092293,0.692633987
17.82,-0.16338706,-0.24710083,0.331318736
17.83,-0.375594854,-0.139232636,-0.284256995
17.84,-0.438717127,-0.093399048,-0.19348681
17.85,-0.326616228,0.009485245,0.245230854
17.86,-0.309401691,0.061914444,0.378561169
17.87,-0.517271221,0.061793327,0.221328557
17.88,-0.65437454,0.061910629,-0.020061255
17.89,-0.658622444,0.062074661,-0.014913023
17.9,-0.521297216,0.04069519,-0.264068306
17.91,-0.417365611,0.057580948,-0.05881232
17.92,-0.257966757,0.081624985,0.116984963
17.93,-0.213425875,0.093648911,0.232534349
17.94,-0.333551884,0.06268692,0.490139872
17.95,-0.28998977,0.031823158,0.11865443
17.96,-0.18421334,-0.05622673,-0.201597214
17.97,-0.100021064,-0.024499893,-0.037316859
17.98,0.00102514,-0.002388,0.125991166
17.99,0.104093194,0.010104179,0.128822386
18,0.101940841,0.010762215,0.137825251
18.01,0.030657351,0.025856018,0.108928442
18.02,0.001354337,0.04077816,0.106132805
18.03,0.000133127,0.041247368,0.112153769
18.04,0.112386316,-0.035103798,0.076020837
18.05,0.086758673,0.003235817,0.246356249
18.06,0.145451754,0.022052765,0.305526614
18.07,0.157864302,-0.007216454,0.3273471
18.08,0.085958898,0.066391945,0.22619766
18.09,-0.045083284,0.013100624,0.23226136
18.1,0.073610723,-0.030632019,0.175434411
18.11,0.067051083,-0.031308174,0.171247244
18.12,0.184276819,-0.031952858,0.194062591
18.13,0.198456213,-0.018208504,0.317500711
18.14,0.094048113,0.041110039,0.259452581
18.15,-0.073934853,0.026346207,0.211944997
18.16,0.003322423,0.040374756,0.186057389
18.17,0.001610845,-0.017337799,0.070324898
18.18,0.011972368,-0.053080559,0.203706801
18.19,0.024659216,-0.048181534,0.264290988
18.2,-0.165983468,0.052391052,0.273659349
18.21,-0.364883721,0.066763878,0.061854124
18.22,-0.366448045,0.066838264,0.063263536
18.23,-0.418209761,0.064461708,0.035385787
18.24,-0.278896034,0.090735435,0.631939828
18.25,-0.431316763,-0.103016853,0.220601261
18.26,-0.465225428,-0.253523827,0.437630147
18.27,-0.543631077,-0.150453568,0.462519109
18.28,-0.555881977,-0.06184864,-0.268391609
18.29,-0.486375988,-0.009002686,-0.119124293
18.3,-0.348057896,0.062666893,0.443227738
18.31,-0.2997289,0.088594437,0.64651084
18.32,-0.419484109,0.061861992,0.562987089
18.33,-0.419347048,0.061471939,0.558345079
18.34,-0.514347374,0.061079979,0.517697334
18.35,-0.474989146,-0.013468742,0.178114176
18.36,-0.349169523,-0.032868385,0.138640881
18.37,-0.342852116,-0.004274368,0.284652054
18.38,-0.341116399,-0.004364967,0.282718539
18.39,-0.17171365,-0.033088684,0.435308933
18.4,-0.19137001,-0.028183937,0.249032259
18.41,-0.247645706,-0.073675156,0.21225208
18.42,-0.108390391,-0.071223259,0.205404937
18.43,-0.100791305,-0.071154594,0.202105165
18.44,-0.07130903,0.000671387,0.165624797
18.45,-0.043088317,0.007790565,0.191172838
18.46,-0.145996302,0.029155731,0.259264171
18.47,-0.199685216,0.009642601,0.345127463
18.48,-0.198414028,0.009279251,0.339966238
18.49,-0.29432869,0.018449783,0.252306223
18.5,-0.320138872,-0.005805016,0.155579865
18.51,-0.191825926,-0.034730911,0.043215394
18.52,-0.17228207,-0.003780365,0.199741244
18.53,-0.105129212,-0.003988266,0.181254387
18.54,-0.007561803,0.010223389,0.137466788
18.55,-0.006383121,0.01012516,0.135378838
18.56,-0.06458801,0.055434227,0.249401331
18.57,-0.012495309,0.057681084,0.181419313
18.58,0.074474663,0.057505608,0.202702761
18.59,0.040629506,0.071662903,0.245663047
18.6,0.0400846,0.071475983,0.243518889
18.61,0.123027027,0.004319191,0.041490734
18.62,0.121517509,0.004275322,0.041954517
18.63,0.019965291,-0.038780212,0.227435768
18.64,0.024350971,-0.048256874,0.152293861
18.65,0.040528238,-0.103246689,0.074910581
18.66,0.008417308,-0.062519073,0.135550261
18.67,-0.054919422,0.03314209,0.072582543
18.68,-0.026847035,0.126390457,0.210210323
18.69,0.015333265,0.164539337,0.376284123
18.7,0.157632738,0.056640625,0.566477418
18.71,-0.095597982,-0.144620895,-0.106875837
18.72,-0.179965735,-0.156383514,-0.075074553
18.73,-0.081642836,-0.189822197,0.091041744
18.74,0.109325737,-0.185212135,0.218523264
18.75,0.305359423,-0.120933533,0.009312272
18.76,0.22252515,0.007888794,0.285505921
18.77,0.21855697,0.007231712,0.279268652
18.78,0.175545365,0.128610611,0.365824759
18.79,0.170223147,0.127975464,0.360833347
18.8,0.050534993,0.168272018,0.118643403
18.81,0.047853053,0.168468475,0.122846365
18.82,-0.038181067,0.120932579,0.011665463
18.83,-0.061831295,-0.036604881,-0.011749685
18.84,0.028975695,-0.134322166,0.115366936
18.85,0.078485876,-0.134005547,0.274453104
18.86,0.074810982,-0.133853912,0.278581739
18.87,-0.05247277,-0.073765755,0.216072321
18.88,-0.0740197,-0.102265358,0.169957161
18.89,-0.061721951,-0.034954071,0.200829506
18.9,-0.064083844,-0.034734726,0.205081821
18.91,-0.02640608,-0.00812912,0.188317895
18.92,-0.074541837,-0.010302544,0.240429759
18.93,-0.084918767,0.004228592,0.2010957
18.94,-0.062338322,0.025870323,0.218648911
18.95,-0.131665289,0.028302193,0.245401681
18.96,-0.217807025,0.05705452,0.293461621
18.97,-0.389976651,0.057061195,0.19509548
18.98,-0.392840385,0.057172775,0.198086202
18.99,-0.626841605,0.057400703,0.053064227
19,-0.661257744,0.038584709,-0.052535415
19.01,-0.666047216,0.000704765,0.022073805
19.02,-0.375554174,-0.025121689,0.006201923
19.03,-0.210163504,-0.031750679,0.067741156
19.04,-0.187626988,0.059827805,0.265990973
19.05,-0.186092913,0.060461044,0.272637785
19.06,-0.057940066,0.075503349,0.344546497
19.07,0.000246286,0.064198494,0.356818914
19.08,-0.008880585,0.040872574,0.366004735
19.09,-0.050061107,0.048542023,0.330963194
19.1,-0.128121674,0.065631866,0.258696437
19.11,-0.167980343,0.063530922,0.236382842
19.12,-0.15811488,0.06377697,0.235152781
19.13,-0.342650175,0.042414665,0.077992916
19.14,-0.353901207,0.064228058,-0.076489329
19.15,-0.373837769,0.002145767,0.131629646
19.16,-0.130214453,-0.026548386,0.683004022
19.17,-0.102281928,-0.069737434,0.744519234
19.18,-0.410664648,-0.124700546,0.17826438
19.19,-0.298439801,-0.265639305,0.393982887
19.2,-0.296688587,-0.265550613,0.394096792
19.21,-0.134632856,-0.138672829,0.532017469
19.22,-0.063735843,-0.064357758,0.008072436
19.23,-0.06320715,-0.064496994,0.006306887
19.24,-0.010866553,0.05005455,0.402148396
19.25,-0.009580255,0.092760086,0.448694527
19.26,-0.195553005,0.09008503,0.300144434
19.27,-0.19708854,0.089784622,0.297576189
19.28,-0.275084764,0.06316185,0.335647702
19.29,-0.25014621,0.06768322,0.292541444
19.3,-0.243915916,0.055566788,0.382258534
19.31,-0.148605198,-0.040266037,0.403332084
19.32,-0.137096793,-0.044981956,0.452230215
19.33,-0.12449497,-0.044691086,0.244526744
19.34,-0.104544669,-0.027444839,0.151423752
19.35,-0.103543073,-0.026903152,0.156986475
19.36,-0.131277174,-0.067127228,0.145243228
19.37,-0.0443708,-0.045161247,0.376867652
19.38,-0.020388573,-0.025710106,0.401544362
19.39,-0.121131063,0.007992744,0.511549413
19.4,-0.094754905,-0.037390709,0.452701598
19.41,-0.077872783,-0.042120934,0.477264464
19.42,-0.103925735,-0.058864594,0.539634228
19.43,-0.118392229,-0.025383949,0.57992506
19.44,-0.118637711,-0.025454521,0.57932663
19.45,-0.281688064,0.015171051,0.372555196
19.46,-0.346685916,0.043793678,0.302106261
19.47,-0.411276966,0.079629898,0.353840828
19.48,-0.317053616,0.086714745,0.366846621
19.49,-0.34711504,0.1273489,0.317885339
19.5,-0.337739706,0.144192696,0.365696073
19.51,-0.294610083,0.125102043,0.394114852
19.52,-0.201494724,0.065299034,0.403295279
19.53,-0.11344412,0.034276962,0.506536961
19.54,-0.11214298,0.034346581,0.506876349
19.55,-0.049663842,-0.030117989,0.549360514
19.56,0.000275463,-0.056241989,0.508624554
19.57,-0.053577304,-0.046495438,0.403226852
19.58,-0.055531651,-0.046316147,0.406110704
19.59,-0.110410184,-0.053361893,0.463636279
19.6,-0.215631962,-0.072360039,0.365642905
19.61,-0.458713949,0.028493881,0.424382389
19.62,-0.41237092,0.013573647,0.425602377
19.63,-0.332279205,0.005954742,0.380077958
19.64,-0.326834977,0.005633354,0.374105632
19.65,-0.14901495,-0.069146156,0.552277803
19.66,-0.143796921,-0.069669724,0.544115186
19.67,-0.261034489,-0.055794716,0.446588457
19.68,-0.293767184,-0.029714584,-0.015080035
19.69,-0.192309409,0.013203621,0.331961274
19.7,-0.078484446,0.063051224,0.667444944
19.71,-0.062375158,0.059858322,0.654963553
19.72,-0.190888554,0.025432587,0.402048707
19.73,-0.254003972,0.051066399,0.225132287
19.74,-0.230507016,0.060073853,0.212455571
19.75,-0.182734698,0.059623718,0.306394786
19.76,-0.09414956,0.037732124,0.410841495
19.77,-0.091634363,0.037398338,0.405480772
19.78,0.008817583,-0.087406158,0.445807666
19.79,0.011015981,-0.087686539,0.441253692
19.8,-0.056342065,-0.152460098,0.273109555
19.81,-0.197611958,-0.174073219,0.103393614
19.82,-0.188640177,-0.181265831,0.042238355
19.83,-0.229605973,-0.142991066,0.203415334
19.84,-0.158408254,0.019769669,0.295095354
19.85,-0.206764907,0.058011055,0.139843166
19.86,-0.242965788,0.05802536,0.129297555
19.87,-0.192867607,0.010142326,0.115837157
19.88,-0.100058556,-0.052105904,0.18414408
19.89,-0.082303464,-0.009091377,0.378739148
19.9,-0.084006816,0.057682037,0.430266947
19.91,-0.099714607,0.057420731,0.260883719
19.92,-0.082020909,0.016503334,0.164117038
19.93,-0.081345201,0.016263962,0.160510361
19.94,-0.018829286,-0.067831993,0.245087206
19.95,0.009658843,-0.125617981,0.327093393
19.96,0.002510816,-0.152242661,0.246567845
19.97,0.002934307,-0.152470589,0.24351567
19.98,0.003299922,-0.217329025,0.281077832
19.99,0.003641278,-0.217567444,0.277498871
20,0.027500719,-0.177158356,0.290454686
20.01,0.136419237,-0.03631115,0.28099516
20.02,0.062878937,0.01116848,0.254841536
20.03,-0.029858261,0.025130272,0.20252341
20.04,-0.031348497,0.024756432,0.198598683
20.05,-0.149895728,0.000502586,0.058291733
20.06,-0.232345611,-0.035728455,-0.024452806
20.07,-0.297680467,0.035733223,0.131442249
20.08,-0.223730356,0.04487133,0.096497834
20.09,-0.106786162,0.015761375,0.117863298
20.1,0.059573293,-0.056505203,0.433251619
20.11,0.134113282,-0.109769821,0.856966019
20.12,0.132380486,-0.110579491,0.846212924
20.13,-0.075199842,-0.099061966,0.199541867
20.14,-0.116211802,-0.020409584,-0.144884825
20.15,-0.114601433,-0.020578384,-0.14859724
20.16,0.048558503,0.067806244,0.362588972
20.17,0.040363848,0.060198784,0.48398751
20.18,-0.040100366,0.047738075,0.204373151
20.19,-0.04058376,0.047364235,0.198936552
20.2,-0.124245703,0.015962601,-0.018773854
20.21,-0.095322996,0.032447815,0.094105959
20.22,0.003231317,0.044250488,0.213148564
20.23,0.057242423,0.032279015,0.197636068
20.24,0.10964489,-0.032306671,0.235356271
20.25,0.233463243,-0.058560371,0.436476141
20.26,0.234759703,-0.05854702,0.435850054
20.27,0.066126376,-0.08952713,0.073035121
20.28,0.062855244,-0.019944191,0.14140287
20.29,0.037435323,0.047178268,0.189821363
20.3,0.037739277,0.047207832,0.190254211
20.31,0.006928772,0.052088737,0.124425858
20.32,-0.109930694,0.116853714,0.04433459
20.33,-0.173816532,0.049890518,0.16476354
20.34,-0.153252751,0.047587395,0.205726922
20.35,-0.096341699,0.00701046,0.228035897
20.36,-0.062803239,-0.009572029,0.240937531
20.37,-0.059720457,-0.009332657,0.24214673
20.38,0.000904977,0.005247116,0.212223917
20.39,0.003757745,0.00545311,0.21317789
20.4,0.080174834,-0.083022118,0.069502413
20.41,0.081564546,-0.082936287,0.069797635
20.42,0.027391136,-0.032612801,0.211184979
20.43,0.090899587,-0.046826363,0.090359449
20.44,0.022754759,-0.034570694,0.122513771
20.45,0.029485375,-0.110853195,0.159829348
20.46,0.084239304,-0.155926704,0.143159211
20.47,0.043176979,-0.169851303,0.07412535
20.48,0.045471638,-0.169387817,0.079351902
20.49,-0.021630347,-0.154616356,0.107785046
20.5,0.054649353,-0.07759285,0.126666248
20.51,0.055805862,-0.077234268,0.131104827
20.52,0.052157134,0.052420616,0.202706188
20.53,-0.185829103,0.110226631,0.051051438
20.54,-0.262325108,0.082017899,-0.170662582
20.55,-0.352758884,0.053918839,-0.108632267
20.56,-0.165585578,0.054522514,0.328814983
20.57,-0.099282444,-0.050495148,0.224529147
20.58,-0.097233117,-0.05017662,0.227537096
20.59,0.03695029,-0.069238663,0.540628672
20.6,0.04581967,-0.105066299,0.538517058
20.61,-0.174027383,-0.03298378,-0.373841763
20.62,-0.16856122,-0.032572746,-0.372566104
20.63,-0.078374326,0.089468956,0.554969728
20.64,-0.074106276,0.089266777,0.548685014
20.65,-0.148795545,0.060285568,0.567753971
20.66,-0.19321835,0.050556183,0.376308113
20.67,-0.102296889,0.005393982,0.171133369
20.68,0.009705722,-0.001402855,0.156582475
20.69,-0.002716005,0.042098999,0.208939523
20.7,0.002504647,0.042563438,0.211434513
20.71,0.060801923,0.004790306,0.400927484
20.72,0.099584281,-0.061627388,0.304767609
20.73,0.00188148,-0.056060791,-0.018950224
20.74,-0.055240035,-0.026494026,0.067563295
20.75,-0.067586184,-0.02093029,0.10802871
20.76,-0.063966393,0.013287544,0.138586462
20.77,-0.112098098,-0.007687569,0.096849203
20.78,-0.101047874,0.021544456,0.071192801
20.79,-0.100906968,0.021847725,0.075221062
20.8,-0.077854455,0.050695419,0.283585817
20.81,-0.069343925,0.019639969,0.218282521
20.82,-0.070902288,0.019621849,0.219442725
20.83,-0.072299302,0.060317993,0.251483828
20.84,-0.06161505,0.060259819,0.273479462
20.85,-0.062994659,0.060259819,0.274487317
20.86,-0.04966259,0.031582832,0.283435375
20.87,-0.029182494,0.019702911,0.318910688
20.88,-0.020161688,0.029436111,0.335797548
20.89,-0.003719747,0.020039558,0.281035632
20.9,0.053579152,0.010704041,0.167277992
20.91,0.053284228,0.011009216,0.171275437
20.92,0.071904242,0.001695633,0.156074226
20.93,0.070928514,0.00195694,0.160372555
20.94,0.093701482,0.054883957,0.317703039
20.95,0.116576433,0.035989761,0.266703874
20.96,0.115262747,0.036207199,0.270759612
20.97,0.087771595,0.04126358,0.217579782
20.98,0.091284394,0.05833149,0.188840509
20.99,0.049118519,-0.017950058,0.16534704
21,0.047108352,-0.017641068,0.170857787
21.01,-0.067239881,0.066479683,0.058883607
21.02,0.071604669,0.06426239,0.539245069
21.03,0.293643475,0.057132721,0.879630327
21.04,0.107948601,-0.04093647,0.028797209
21.05,-0.045101523,-0.059494019,0.100043237
21.06,-0.064875662,-0.038135529,0.396605104
21.07,0.016371548,0.011785507,0.302988231
21.08,-0.019767165,0.054591179,0.052377582
21.09,0.123630762,0.044884682,0.261109948
21.1,0.119583249,0.044588089,0.260370612
21.11,0.126064926,-0.001459122,0.431964517
21.12,0.060737073,0.028985977,0.363071442
21.13,-0.037925065,0.061824799,0.286484063
21.14,-0.012113512,0.039638519,0.243781745
21.15,0.018848002,0.036729813,0.173903346
21.16,0.083795577,0.06270504,0.282403588
21.17,0.075322092,0.060037613,0.33186698
21.18,0.072273195,0.05988121,0.331788182
21.19,0.034278333,0.062205315,0.368300498
21.2,0.013908744,0.021618843,0.011552334
21.21,0.051024437,-0.009064674,0.142048717
21.22,0.089538783,-0.020723343,0.274337053
21.23,0.079600871,-0.008599281,0.314081132
21.24,0.076090038,-0.049217224,0.178256631
21.25,-0.008769512,-0.104147911,0.155767918
21.26,-0.067509055,-0.111222267,0.209751189
21.27,-0.071283609,-0.111187935,0.212488532
21.28,-0.108398885,-0.070503235,0.109000146
21.29,-0.216424227,0.027628899,0.179687858
21.3,-0.184789449,0.015639305,0.240522981
21.31,-0.186069548,0.058745384,0.281988978
21.32,-0.238978446,0.049190521,0.301676154
21.33,-0.238117605,0.049267769,0.3019979
21.34,-0.20301339,-0.075090408,0.154389322
21.35,-0.201360196,-0.074858665,0.156122148
21.36,-0.154571801,-0.067453384,0.253828228
21.37,-0.10041815,-0.091268539,0.158541977
21.38,-0.099172413,-0.09113884,0.159441352
21.39,-0.084414274,-0.10542202,0.116887808
21.4,-0.058231264,-0.076835632,0.24001044
21.41,-0.059798092,-0.07698822,0.238925338
21.42,0.013817817,0.004255295,0.174183488
21.43,-0.006489307,0.020827293,0.202866852
21.44,-0.113028973,0.061358452,0.107158303
21.45,-0.139141738,0.063551903,0.107397378
21.46,-0.179894537,0.05613327,0.0835706
21.47,-0.251551479,-0.001531601,-0.105219483
21.48,-0.255788088,-0.001595497,-0.103636921
21.49,-0.266635597,0.06299305,-0.051947892
21.5,-0.028221309,-0.013699532,0.444727212
21.51,0.061262041,-0.042544365,0.603522778
21.52,-0.090961307,-0.104946137,-0.052279115
21.53,-0.094065428,-0.104890823,-0.049976945
21.54,-0.163781524,-0.026042938,0.277599931
21.55,-0.234908968,0.00246048,0.136890054
21.56,-0.230762839,0.03827858,-0.186939597
21.57,-0.231538922,0.038399696,-0.185274839
21.58,-0.16626519,0.052700996,-0.084424376
21.59,0.017777324,0.136317253,0.096797585
21.6,-0.010059059,0.167216301,0.144117951
21.61,-0.013366133,0.166977882,0.143016875
21.62,0.096171588,0.154777527,0.23298049
21.63,0.041976899,0.176327705,0.296030283
21.64,-0.049532771,0.12138176,0.460431814
21.65,0.096946478,0.061704636,0.352164507
21.66,0.087302297,-0.009874344,0.415099114
21.67,0.097400784,-0.04792881,0.348267555
21.68,0.098324627,-0.047710419,0.35042572
21.69,0.048443347,-0.011517525,0.200246096
21.7,0.020353705,-0.083106995,0.185858965
21.71,0.049488187,-0.104505539,0.108266592
21.72,0.03450045,-0.087706566,0.090043247
21.73,-0.050579697,-0.025503159,0.229036987
21.74,-0.038123697,0.017354965,0.227036476
21.75,-0.056477904,0.024319649,0.179801464
21.76,-0.08874768,0.062520027,0.179161668
21.77,-0.187240571,0.05774498,0.103019834
21.78,-0.281555057,0.057999611,0.06925106
21.79,-0.266747177,0.000928879,0.081886113
21.8,-0.169657737,-0.013050079,0.058278918
21.81,-0.077331841,0.028008461,0.108200252
21.82,-0.06655243,0.030715942,0.167325318
21.83,0.001480281,-0.016863823,0.169144392
21.84,-0.014661998,-0.00458622,0.175981641
21.85,-0.011825323,-0.004315376,0.177640319
21.86,-0.040062487,-0.023278236,0.336174548
21.87,-0.018466592,-0.013538361,0.276784837
21.88,-0.044834107,-0.015809059,0.188595176
21.89,-0.102193266,0.017976761,0.223612547
21.9,-0.120921761,0.044596672,0.208488405
21.91,-0.117526561,0.044914246,0.21037972
21.92,-0.13287288,0.042910576,0.126419962
21.93,-0.105253905,0.019343376,0.04494828
21.94,-0.101791203,0.043646812,0.073331594
21.95,-0.191745818,0.051154137,-0.042232275
21.96,-0.244910181,0.068239212,0.105110884
21.97,-0.240357757,0.068473816,0.105228663
21.98,0.065537751,0.066226959,0.360773683
21.99,0.068677515,0.066360474,0.360341907
22,0.12364772,-0.02463913,0.512098849
22.01,-0.024772108,-0.242584229,0.296972394
22.02,-0.021831393,-0.242679596,0.29422003
22.03,-0.06656599,-0.19012928,0.279035032
22.04,0.041211784,-0.032049179,-0.066482008
22.05,0.042007625,-0.032010078,-0.066473067
22.06,0.091233909,0.118603706,0.439212203
22.07,0.043997914,0.115818977,0.27538836
22.08,-0.056113243,0.093949318,0.066876054
22.09,-0.107987762,0.079360962,0.091599107
22.1,-0.111572504,0.067198753,0.140412092
22.11,-0.031317949,0.01679039,0.235368609
22.12,-0.010721982,-0.016773224,0.350320518
22.13,-0.011663496,-0.016833305,0.350228846
22.14,0.059305966,-0.138926506,0.3102476
22.15,-0.01069805,-0.117302895,0.062535405
22.16,-0.049077094,-0.105021477,-0.079961896
22.17,-0.04864496,-0.104567528,-0.075129509
22.18,-0.120233864,-0.120951653,0.010377586
22.19,-0.124918759,-0.149339676,0.059523106
22.2,-0.025108457,-0.017410278,0.120143831
22.21,-0.026388705,-0.017250061,0.12273401
22.22,-0.240655243,0.06908989,0.081929982
22.23,-0.290998399,0.028551102,0.136397779
22.24,-0.290172607,0.028676033,0.137405217
22.25,-0.10252586,0.012004852,0.102031887
22.26,-0.075518966,0.028832436,0.186188638
22.27,-0.034165621,0.050386429,0.197708607
22.28,-0.079015613,0.069551468,0.178418458
22.29,-0.085327208,0.069619179,0.15709281
22.3,-0.015358388,0.009804726,0.104452193
22.31,0.032487184,0.026610374,0.200749934
22.32,-0.011105597,-0.023704529,0.138643563
22.33,-0.081095964,-0.078700066,0.106081545
22.34,-0.074308425,-0.121689796,0.085986853
22.35,-0.074942768,-0.121602058,0.087296128
22.36,-0.085325837,-0.092910767,0.132913351
22.37,-0.083519101,-0.061847687,0.125338912
22.38,-0.060513109,0.000332832,0.146476626
22.39,-0.085302055,0.01456356,0.193462908
22.4,-0.105009198,0.04087162,0.226976514
22.41,-0.133600414,-0.028575897,0.080714166
22.42,-0.133306235,-0.028506279,0.081207216
22.43,-0.274416149,-0.05230999,-0.12310648
22.44,-0.168190599,-0.025856018,0.073784649
22.45,-0.045490146,-0.037831306,0.195545137
22.46,0.042116344,-0.085738182,0.174306631
22.47,0.021181226,-0.124160767,0.777497888
22.48,0.086845547,-0.241882324,0.443341374
22.49,-0.079388589,-0.29246521,0.189206421
22.5,-0.131632298,-0.208867073,0.038309932
22.51,-0.044552594,-0.146759033,-0.054797947
22.52,-0.045975894,-0.146936417,-0.056018949
22.53,-0.013803601,0.017804146,0.429406345
22.54,-0.092646748,0.067374229,0.246811509
22.55,-0.097093791,0.066657066,0.24125725
22.56,-0.31816721,0.065957069,0.067345858
22.57,-0.292393297,0.058046341,-0.046975851
22.58,-0.125123799,0.004701614,0.344242752
22.59,-0.127141714,0.004135132,0.338905633
22.6,0.036941558,-0.034510612,0.210811675
22.61,0.038424999,-0.065797806,0.343585432
22.62,0.062030196,-0.07553196,0.380299091
22.63,0.06156534,-0.075642586,0.37932384
22.64,0.034816831,-0.082819939,0.140144825
22.65,0.021802664,-0.070877075,0.209811628
22.66,0.056216002,-0.042261124,0.242875755
22.67,0.053723603,-0.042461395,0.241709948
22.68,0.071950972,0.062574387,0.27589047
22.69,0.068205237,0.062242508,0.274079144
22.7,-0.035049528,0.083571434,0.191413522
22.71,-0.097056121,0.069080353,0.104964018
22.72,-0.160698295,0.0642519,0.158009052
22.73,-0.070429564,0.061839104,0.165356576
22.74,-0.001729757,0.025910378,0.186873317
22.75,-0.003031939,0.02580452,0.186428428
22.76,0.067177057,0.032817841,0.29774785
22.77,-0.02091375,0.046955109,0.303299367
22.78,-0.02236557,0.046758652,0.301832676
22.79,-0.021546721,0.060957909,0.154732347
22.8,-0.018204123,0.029740334,0.068034112
22.81,0.01366663,-0.027813911,0.015153348
22.82,-0.074120671,-0.066261292,0.272924841
22.83,-0.080226481,-0.059313774,0.275796354
22.84,0.021715283,-0.045063972,0.197985411
22.85,0.019959241,-0.04513073,0.19834584
22.86,0.044426531,0.036331177,0.128210843
22.87,-0.014569432,0.060346603,0.220786393
22.88,-0.016326785,0.060432434,0.222582638
22.89,-0.018104047,0.007870674,0.160232008
22.9,-0.019129574,0.007958412,0.161948025
22.91,-0.127539367,0.060829163,-0.005480111
22.92,-0.127568007,0.061029434,-0.002972722
22.93,-0.022615016,0.061305046,0.292524338
22.94,0.033480525,-0.010355949,0.556086958
22.95,0.093776464,-0.122861862,0.597993851
22.96,0.046371371,-0.154086113,0.40863052
22.97,-0.053030163,-0.04168129,0.053501487
22.98,-0.160779238,0.061321259,-0.288269877
22.99,-0.075130582,0.078227997,-0.066064179
23,0.094306231,0.161915779,0.451203466
23.01,0.072847515,0.166327477,0.681341648
23.02,-0.029851615,0.098818779,0.407482147
23.03,-0.078122526,0.060321808,0.052353799
23.04,-0.058692217,-0.00914669,0.007418752
23.05,-0.060428828,-0.0091362,0.008355796
23.06,-0.115829587,0.01726532,0.334815562
23.07,-0.072146386,0.036480904,0.526775658
23.08,0.027602792,-0.020849228,0.391208291
23.09,0.098802447,-0.085138321,0.310555458
23.1,0.095839083,-0.070356369,0.068151414
23.11,0.097725034,-0.069737434,0.07420969
23.12,-0.014506668,-0.121735573,0.15737325
23.13,-0.036215663,-0.157065392,0.292301953
23.14,0.182992533,-0.146990776,0.204069674
23.15,0.072763681,-0.093771935,0.157353163
23.16,-0.034791768,-0.040595055,0.122267723
23.17,-0.156746477,0.031698227,0.081901133
23.18,-0.211070746,0.060949326,-0.085086823
23.19,-0.210705578,0.061541557,-0.078774214
23.2,-0.205755651,0.066933632,-0.017231464
23.21,-0.205206215,0.067453384,-0.011887908
23.22,0.032172441,0.060678482,0.164790809
23.23,0.032436073,0.061118126,0.16932714
23.24,-0.186549813,0.056803703,-0.003390014
23.25,-0.18272382,0.057437897,0.001595795
23.26,-0.252641887,-0.056871414,-0.058448553
23.27,-0.298190415,-0.154561997,0.001883149
23.28,-0.097771436,-0.132709503,0.170775056
23.29,-0.094680488,-0.132512093,0.171396256
23.3,0.031912893,-0.04378891,0.257968128
23.31,0.086342871,-0.024618149,0.233488381
23.32,0.015908271,-0.003016472,0.195069969
23.33,-0.056612849,-0.014949799,0.127592385
23.34,-0.054737538,-0.01488018,0.127555668
23.35,-0.034187227,-0.014745712,-0.001093507
23.36,-0.121646076,-0.038607597,0.04715836
23.37,-0.149577349,-0.057798386,0.089488149
23.38,-0.172699988,-0.005225182,-0.101214171
23.39,-0.250504613,0.097717285,-0.13778162
23.4,-0.248565018,0.09773159,-0.138550997
23.41,-0.085474133,0.071322441,0.73096025
23.42,-0.008295834,-0.039023399,0.325074256
23.43,-0.134355575,-0.081985474,-0.038917959
23.44,-0.192601562,-0.156007767,0.243597329
23.45,-0.187632263,-0.156024933,0.240952373
23.46,-0.079834968,-0.036366463,-0.070833564
23.47,-0.074904531,-0.057674408,0.032166779
23.48,-0.064540863,-0.053042412,0.289709747
23.49,0.004238367,-0.046308517,0.269588769
23.5,0.004765302,-0.04688549,0.263011515
23.51,-0.097367704,-0.026003838,0.241078973
23.52,-0.193794906,-0.093727112,0.103413343
23.53,-0.31893,-0.041625023,0.079294086
23.54,-0.232320011,-0.063508987,0.071703792
23.55,-0.146396041,-0.049411774,0.069898784
23.56,-0.096898317,-0.056845665,0.140401304
23.57,-0.011777997,-0.047540665,0.282657802
23.58,0.062997073,0.021584511,0.242878139
23.59,-0.009179592,0.06437397,0.100531459
23.6,-0.012619257,0.088108063,0.288064957
23.61,-0.013923615,0.087854385,0.285922051
23.62,0.015598029,0.073291779,0.332398891
23.63,-0.026531458,0.065901756,0.175127924
23.64,-0.037513912,0.065682411,0.132984281
23.65,-0.120473206,0.065483093,0.210459948
23.66,-0.081156403,0.038941383,0.146569371
23.67,-0.082384318,0.038822174,0.145881414
23.68,-0.059017509,-0.018634796,0.172633171
23.69,-0.059632003,-0.01867485,0.172552466
23.7,-0.028844088,-0.033112526,0.265244722
23.71,-0.026239693,-0.038084984,0.291820705
23.72,0.000175208,-0.050293922,0.274578929
23.73,0.035722852,-0.033831596,0.283241212
23.74,-0.002976328,-0.077303886,0.223942697
23.75,-0.003566116,-0.077730179,0.219453573
23.76,-0.087729901,-0.066111565,0.018973947
23.77,-0.028823137,-0.071125031,-0.098097026
23.78,0.00303328,0.005280495,0.02981627
23.79,0.075329959,0.057771683,0.263385713
23.8,0.159334242,0.057578087,0.281439185
23.81,0.157115817,0.057476044,0.281540453
23.82,-0.057321221,0.059933662,0.208861589
23.83,0.020204127,0.028848648,0.138211548
23.84,0.017960459,0.028801918,0.13903749
23.85,-0.015509933,-0.019129753,0.058320463
23.86,-0.161694795,-0.031172752,0.042172313
23.87,-0.163919777,-0.031208992,0.04305917
23.88,-0.24900502,0.014302254,-0.023234546
23.89,-0.250124961,0.014304161,-0.022318006
23.9,0.064321667,-0.002469063,0.531433582
23.91,0.004849315,-0.148690224,0.02769959
23.92,-0.123929948,-0.098347664,0.050903857
23.93,-0.220339119,-0.067185402,0.145041645
23.94,-0.091080159,0.026061058,0.12681067
23.95,-0.091516346,0.025985718,0.126201987
23.96,-0.032810688,0.047571182,0.007638931
23.97,0.015169293,0.061694145,0.194982588
23.98,0.011733174,0.06125164,0.191753268
23.99,-0.059077561,0.127855301,0.298568964
24,-0.164603263,0.082030296,0.183478355
24.01,-0.165515989,0.08190918,0.182424605
24.02,-0.229709625,0.060391426,0.110803723
24.03,-0.175790966,0.060598373,0.093454003
24.04,-0.111989081,-0.037347794,0.198225558
24.05,0.023697615,-0.049240112,0.303687692
24.06,0.015490323,-0.051594734,0.344037503
24.07,-0.061805755,-0.049161911,0.128132403
24.08,-0.093386769,-0.132856369,0.147551358
24.09,-0.131930322,-0.23097229,0.134815395
24.1,0.016063362,-0.180732727,0.080592513
24.11,-0.002486855,-0.152234078,0.077554047
24.12,-0.021597654,-0.109387398,0.040915906
24.13,-0.165447623,-0.05222702,-0.048698962
24.14,-0.165139437,-0.052424431,-0.05141443
24.15,-0.27743271,-0.062175751,-0.223613739
24.16,-0.241467446,-0.086323738,-0.175762832
24.17,-0.170095325,-0.112948418,-0.037881613
24.18,-0.201584727,-0.096502304,0.030257285
24.19,-0.201423258,-0.096788406,0.026509285
24.2,-0.196008086,0.02510643,0.066603422
24.21,-0.259437293,0.024942398,-0.01520592
24.22,-0.358151645,0.058342934,-0.182815671
24.23,-0.355430692,0.058236122,-0.185760617
24.24,-0.26409629,0.058107376,-0.184242547
24.25,-0.160662383,0.060339928,-0.010744154
24.26,-0.158219367,0.060176849,-0.014428139
24.27,-0.126983106,0.057701111,0.030999184
24.28,-0.154011309,-0.104924202,0.090612292
24.29,-0.149464458,-0.104653359,0.091483295
24.3,-0.061486691,-0.149822235,0.054624677
24.31,-0.011815369,-0.139912605,0.077682436
24.32,0.006401241,-0.096489906,-0.006805658
24.33,-0.014523506,-0.024437904,-0.123195052
24.34,-0.177369297,-0.043419838,-0.10798204
24.35,-0.282571048,-0.115068436,-0.251142263
24.36,-0.501816869,-0.083723068,-0.420494556
24.37,-0.577306449,-0.042656899,-0.232924759
24.38,-0.462171257,-0.059023857,0.006674767
24.39,-0.256161392,-0.154429436,0.116606891
24.4,-0.279692531,-0.326559067,-0.060957968
24.41,-0.341232836,-0.393294334,-0.110981762
24.42,-0.34188658,-0.34509182,-0.195316911
24.43,-0.353299618,-0.232204437,-0.50270164
24.44,-0.344664037,-0.231591225,-0.501159906
24.45,-0.206568718,-0.127936363,-0.139374077
24.46,-0.200656176,-0.127532959,-0.13868624
24.47,-0.196466863,-0.007659912,-0.16831398
24.48,-0.304509342,-0.105825424,-0.356663942
24.49,-0.396178842,-0.16088295,-0.448788405
24.5,-0.394456983,-0.160978317,-0.451317012
24.51,-0.432351708,-0.158575058,-0.453238368
24.52,-0.45475328,-0.187241554,-0.40747726
24.53,-0.50452137,-0.515070915,-0.359018147
24.54,-0.492822409,-0.653675079,-0.231530666
24.55,-0.484715819,-0.653400421,-0.234472215
24.56,-0.454199672,-0.779848099,-0.319777548
24.57,-0.572163463,-0.711942673,-0.636212766
24.58,-0.527645648,-0.583857536,-0.641672969
24.59,-0.51355505,-0.582493782,-0.636039496
24.6,-0.472758412,-0.430181503,-0.579347134
24.61,-0.496883631,-0.181999207,-0.660718441
24.62,-0.632766664,-0.187505722,-0.593070149
24.63,-0.679989934,-0.243058205,-0.479588568
24.64,-0.763395011,-0.360733986,-0.740534961
24.65,-0.775963843,-0.432319641,-0.897742808
24.66,-0.773833811,-0.43331337,-0.911937237
24.67,-0.834836066,-0.455924034,-0.933258712
24.68,-0.773212433,-0.452219009,-0.871888578
24.69,-0.553719461,-0.439002991,-0.684842229
24.7,-0.502116919,-0.416315079,-0.870436251
24.71,-0.359337926,-0.446354866,-0.897296071
24.72,-0.260443151,-0.45982933,-0.696940064
24.73,-0.258757651,-0.461805344,-0.728046715
24.74,0.0715608,-1.03867054,-0.427408218
24.75,0.069302619,-1.041140556,-0.464758277
24.76,0.292265564,-1.371893883,-0.554386616
24.77,0.525009155,-1.84653759,-0.581883431
24.78,0.806815147,-1.847772121,-0.5110358
24.79,1.055973411,-1.748810768,-0.539526403
24.8,1.322752714,-1.60458374,-0.58364439
24.81,1.461849928,-1.596982002,-0.487962633
24.82,1.253930807,-1.735349655,-0.450358748
24.83,1.039386272,-1.825397491,-0.791115701
24.84,0.650678873,-1.864341259,-1.136220455
24.85,0.570248604,-1.966860771,-0.87253499
24.86,0.512832522,-1.96765995,-0.972105265
24.87,0.428302139,-1.732447624,-0.831175089
24.88,0.364116967,-1.730553627,-0.933754921
24.89,0.458283365,-1.487764359,-1.165789127
24.9,0.393320471,-1.298487663,-1.603298426
24.91,0.124674216,-1.004439354,-1.831952095
24.92,-0.025809126,-1.029250145,-1.808977842
24.93,-0.353678584,-1.061868668,-1.745054722
24.94,-0.196258843,-1.322840691,-1.322375417
24.95,-0.059578419,-1.539113998,-0.765441835
24.96,-0.005659103,-1.710760117,-0.491072655
24.97,0.275240898,-1.876292706,-0.584432483
24.98,0.218370587,-1.858575344,-0.688699484
24.99,0.447308183,-1.585014343,-0.128638983
25,0.708625674,-1.057505608,-0.113074184
25.01,0.846669674,-0.317221642,-0.415134788
25.02,0.791326106,-0.291342735,-0.529226661
25.03,0.544116736,0.49238205,-0.544210434
25.04,0.30277276,1.432572365,-0.526250958
25.05,-0.509889484,2.94234848,0.481557369
25.06,-0.391137779,3.312344551,0.968086958
25.07,-0.185340405,3.371829987,1.280531883
25.08,-0.046361446,3.171814919,1.231868505
25.09,0.157538831,2.785395622,0.808051586
25.1,0.180635631,2.798947334,0.753841877
25.11,0.29299593,2.524090767,-0.033951283
25.12,-0.142801464,2.51776123,-1.416115046
25.13,-0.720410705,2.967882156,-1.72697258
25.14,-1.216510296,3.55032444,-1.445334911
25.15,-1.413025141,4.088982582,-1.050725579
25.16,-1.378157258,4.099144936,-1.090191483
25.17,-0.990935206,4.502672195,-0.869667053
25.18,-1.138001442,4.370259285,-0.55388999
25.19,-1.100758672,4.382294655,-0.5966115
25.2,-0.317304283,3.683699608,0.231977224
25.21,-0.16921185,2.868041039,1.200031996
25.22,-0.136959687,2.881432533,1.156897783
25.23,-0.786881805,0.544542313,2.26635623
25.24,-0.269743562,-1.475283623,2.716050386
25.25,-0.223760545,-3.294807911,3.900975943
25.26,-0.233140215,-3.869888306,4.954678535
25.27,-0.364501208,-3.785805702,5.752613068
25.28,-0.528298378,-3.6779356,6.462517262
25.29,-0.619160056,-3.082772732,5.620621681
25.3,-1.256825089,-1.9370718,3.440598726
25.31,-2.371790886,-0.453580856,1.228868961
25.32,-4.070170879,1.118384361,0.229398012
25.33,-5.480530262,3.474694252,0.250826359
25.34,-5.356374741,3.482585907,0.228271008
25.35,-5.542267323,5.220604897,0.473463535
25.36,-4.712237358,6.398518562,0.979915619
25.37,-3.664173603,7.040933609,2.09418869
25.38,-1.865849376,9.845690727,0.811270237
25.39,-1.829354763,9.861984253,0.779531956
25.4,-2.644324064,11.25397587,0.38041544
25.41,-2.339011908,10.8295145,0.242856503
25.42,-2.372405052,10.84558105,0.205193996
25.43,-1.546363115,10.42091942,-0.223891497
25.44,-1.389699578,8.722841263,0.118988037
25.45,-0.071402431,4.465659142,2.314276695
25.46,1.181554794,1.94354248,2.241235256
25.47,2.091691732,-0.562521935,1.811376572
25.48,1.802175045,-2.937520981,0.88922143
25.49,1.157190323,-4.742440701,-0.78890276
25.5,0.458013028,-7.002750874,-2.031046867
25.51,-0.433144659,-9.080765724,-1.896434903
25.52,-0.425298601,-9.118089676,-1.798560262
25.53,-1.50597477,-10.41606426,-1.604100704
25.54,-0.269981861,-12.55518055,-2.731992006
25.55,-0.269282103,-12.57322693,-2.681532383
25.56,0.552469671,-13.03211403,-2.092354774
25.57,0.178285033,-12.64427185,-3.252592802
25.58,0.174607515,-12.27350616,-3.973077774
25.59,0.524775147,-11.17177105,-4.409526348
25.6,0.462429255,-11.15912914,-4.445002556
25.61,1.179603696,-9.733626366,-5.153741837
25.62,6.86958313,-6.094106197,-2.620247602
25.63,10.37840939,-3.647786617,1.232958794
25.64,9.927347183,0.139605522,3.117943525
25.65,7.398547173,4.152178764,3.45689702
25.66,5.735233307,7.687403679,2.498315096
25.67,4.704247952,10.18915558,2.590288639
25.68,4.621486187,10.19058037,2.606801748
25.69,3.011263132,11.39834404,2.652058363
25.7,-1.3411237,14.9301796,3.298919916
25.71,-0.885065317,14.9927702,4.515590668
25.72,1.043471336,13.82078934,3.321402073
25.73,0.160598576,12.11015606,3.63675642
25.74,0.707112312,10.69432545,4.448472977
25.75,1.197654247,9.019699097,4.518034935
25.76,0.61402607,7.146802902,4.434279919
25.77,-0.839112461,4.943876266,3.62830019
25.78,-1.715249538,2.555971146,4.707430363
25.79,-0.836910188,0.549665451,7.185614586
25.8,-0.513067246,-1.90609026,9.060684204
25.81,-0.421468705,-4.887561798,7.970115662
25.82,-2.107547045,-8.276745796,3.772753477
25.83,-4.532236576,-10.34631157,-2.796172619
25.84,-5.972791672,-11.29480362,-7.813083649
25.85,-5.935193539,-11.30847931,-7.77974987
25.86,-5.706228256,-11.66566467,-7.169271946
25.87,-3.750860453,-11.4946537,-4.800664425
25.88,-2.762367249,-11.70512772,-2.246417999
25.89,-3.519381762,-12.47896576,1.060498238
25.9,-3.826806784,-12.33904743,1.714216948
25.91,-4.036230087,-12.12070751,0.681643486
25.92,-4.472835064,-11.45383644,-1.633396983
25.93,-3.530837536,-10.09062767,-3.456523657
25.94,-2.276229858,-8.406897545,-4.326775551
25.95,-1.377303123,-5.975654602,-4.602144718
25.96,-1.369298697,-5.972787857,-4.609629631
25.97,2.689306736,-0.101390839,-1.479538918
25.98,2.689411163,-0.090110779,-1.506538153
25.99,3.168524742,7.161770821,4.283873558
26,0.254556298,10.88345051,6.23692131
26.01,-1.748235464,13.8344059,11.48408985
26.02,-2.908755302,15.87076855,18.01943207
26.03,-2.88847208,16.48246765,18.71484566
26.04,-3.18291688,16.43234634,11.92821503
26.05,-3.130066872,16.39885902,12.00134277
26.06,-5.43487215,15.96065712,2.690706015
26.07,-7.859187603,15.08658123,-2.974912405
26.08,-4.256058693,9.186623573,-2.073231459
26.09,-0.932023108,5.464200974,0.574966669
26.1,0.497389495,2.53441906,2.424514055
26.11,1.517400622,0.17855072,4.247621536
26.12,3.875495434,-2.39737606,7.095965385
26.13,5.548299789,-4.845581532,8.846884727
26.14,5.539299965,-6.645517349,7.655967712
26.15,3.715507746,-8.011723518,2.779655695
26.16,0.602883816,-9.113574028,-3.895434856
26.17,-2.654145241,-10.01530457,-8.412330627
26.18,-4.174709797,-10.87105274,-10.21313
26.19,-4.468313217,-11.8688612,-9.020487785
26.2,-4.0782938,-12.76162052,-6.392710686
26.21,-2.366476774,-13.60161591,-4.477194309
26.22,-1.143876433,-14.31249809,-3.471972466
26.23,-1.268859148,-14.14318848,-3.205160618
26.24,-1.535518885,-13.78796959,-3.558090448
26.25,-0.443970144,-12.57544708,-5.388852119
26.26,0.27507019,-10.85405922,-7.164511204
26.27,0.352899194,-9.168338776,-7.381625652
26.28,1.198290706,-5.381404877,-7.232789516
26.29,5.326626778,1.409142494,-2.981800556
26.3,5.322460651,1.420929909,-3.013012171
26.31,17.37068748,8.19413662,10.26071358
26.32,13.94085121,11.81156063,12.76666832
26.33,5.691783428,15.49724293,12.20837212
26.34,-3.468972683,20.31782913,11.46300602
26.35,-2.538146734,19.91403198,9.072138786
26.36,-2.053765774,17.92188835,2.091762781
26.37,-2.141662121,14.68793297,-1.21157527
26.38,-0.622005224,11.19603252,-0.259178639
26.39,-0.513620615,11.17590332,-0.235307217
26.4,1.221396446,7.455999374,1.371126413
26.41,0.476172626,5.328575134,1.400160789
26.42,-1.314709663,3.788909912,7.641466618
26.43,0.700778902,2.119532585,15.16834736
26.44,1.114105105,0.806464195,16.78587341
26.45,-0.681667447,-2.747998714,8.874471664
26.46,-5.186142445,-7.443919659,-0.225084543
26.47,-7.166442394,-10.99197578,-4.339592457
26.48,-6.453353882,-13.69136238,-5.22968626
26.49,-6.452149868,-15.4628849,-4.922953606
26.5,-6.118090153,-15.15783119,-5.596132278
26.51,-5.443555832,-13.9610672,-5.751708031
26.52,-4.410799503,-13.14285278,-3.934274435
26.53,-4.462538719,-12.88935375,-1.265029073
26.54,-3.4583354,-12.89848137,0.634744644
26.55,-3.447460413,-12.88252163,0.579251289
26.56,-1.976231933,-12.47912598,-0.938008428
26.57,-1.651970029,-11.76608467,-3.348790169
26.58,-1.057744503,-10.25926399,-4.46621418
26.59,-0.358166099,-8.274222374,-4.692757607
26.6,-0.475530833,-6.410459042,-3.379508972
26.61,0.143223941,-4.398882866,-1.822116613
26.62,2.347425938,-0.421115875,1.173413277
26.63,6.291004181,4.733909607,5.912696838
26.64,6.554488659,9.302978516,7.530870438
26.65,3.300305367,13.72943878,6.783545971
26.66,-1.777787924,17.36005211,9.675089836
26.67,-5.197574615,19.3133049,15.12338734
26.68,-5.159125328,19.32394791,15.09222317
26.69,-7.369540691,20.21753693,17.14227104
26.7,-10.35140705,18.1114521,-1.404504538
26.71,-8.434548378,14.72887421,-3.475073576
26.72,-4.107103348,10.56112099,-0.389912605
26.73,-0.953735769,7.345821381,1.328781128
26.74,2.005587578,4.482035637,2.049503565
26.75,2.002946854,4.461824417,2.121637106
26.76,3.13076663,0.17533493,4.088853359
26.77,3.141094685,-2.593779087,5.99603653
26.78,3.338427544,-5.365982533,5.973093987
26.79,3.306395769,-5.39247179,6.080006599
26.8,2.426640272,-10.58799267,-1.782773495
26.81,0.956694245,-12.57555103,-5.799557686
26.82,0.915935874,-12.59859753,-5.689805984
26.83,-0.307587326,-14.33458805,-7.312870979
26.84,0.088353187,-14.25966644,-5.371805191
26.85,0.931536853,-14.18946171,-3.770323277
26.86,1.436030626,-14.36676979,-2.154017448
26.87,2.393260717,-14.68379402,-0.036500216
26.88,3.950401783,-14.05116558,0.705873728
26.89,3.120233059,-12.61211491,-0.48409152
26.9,0.93876791,-10.8476572,-2.790416002
26.91,-1.648644686,-8.679183006,-5.597265244
26.92,-1.683036566,-8.669969559,-5.629783154
26.93,0.002375364,-2.745780468,-4.017998695
26.94,7.483967781,2.032960892,0.416228533
26.95,11.30036926,6.230740547,1.500942469
26.96,10.40911674,11.26634216,0.999283314
26.97,6.86438942,16.01766968,1.266334772
26.98,2.50826025,19.71916962,9.871331215
26.99,2.538291216,19.72525215,9.826690674
27,0.716871738,17.5365696,12.22614193
27.01,0.745942593,17.54147911,12.1905365
27.02,-1.683146477,14.98138905,2.393087149
27.03,-3.664971352,13.00177479,-1.91944313
27.04,-2.194221258,11.17126656,2.642161608
27.05,-0.385414392,8.580597878,5.531890869
27.06,1.423532248,6.3083992,6.295590401
27.07,0.463910639,2.749471664,6.850482941
27.08,-1.131122351,-1.014692307,8.410525322
27.09,-1.940470099,-4.646308422,11.70186806
27.1,-3.253158092,-8.25478363,11.94731903
27.11,-4.50706625,-11.84179974,6.657654285
27.12,-5.382420063,-13.82484818,-0.237497568
27.13,-6.238288879,-14.91641521,-7.727483273
27.14,-6.795820713,-14.82978344,-10.6817131
27.15,-5.995192051,-14.77195835,-9.060818672
27.16,-5.942549229,-14.78186035,-8.99650383
27.17,-1.682879448,-13.70879269,-2.432940245
27.18,-1.586032152,-13.65360928,-0.167907238
27.19,-1.591081619,-13.63455963,-0.27673161
27.2,-4.183114529,-11.84926605,1.748716235
27.21,-3.251402378,-10.36229515,1.364194989
27.22,-1.787289858,-8.908407211,-0.659901977
27.23,-1.724074721,-7.023967743,-2.544534683
27.24,-1.741591692,-7.022529602,-2.551937103
27.25,-2.380368233,-4.672760487,-3.212967873
27.26,2.119306564,2.943279266,3.473009825
27.27,2.089121103,2.95013237,3.441311359
27.28,3.314038754,7.748393059,7.326857567
27.29,3.940104961,13.60254383,5.941895962
27.3,-0.164950833,18.94941711,14.58067703
27.31,-4.693869591,19.91777229,20.39499474
27.32,-4.671815872,19.94439697,20.29821777
27.33,-8.007514954,19.3526535,16.58475304
27.34,-10.06285,17.38152885,2.313952446
27.35,-6.849092484,12.07142258,-5.591076374
27.36,-2.701281786,9.22214222,-0.572290421
27.37,-2.698836803,9.213166237,-0.536288977
27.38,2.653997183,3.805169106,3.717321634
27.39,2.305083036,2.228225708,4.108727932
27.4,2.120634556,-0.870704651,4.671283722
27.41,2.971308708,-3.889179707,4.642580509
27.42,2.924465418,-6.395048141,2.14198637
27.43,1.819760323,-8.87023735,-2.448202133
27.44,1.002159953,-11.01906967,-5.064366341
27.45,1.541607022,-12.56007671,-4.989605427
27.46,2.025179386,-13.59928989,-4.672530174
27.47,1.917911768,-14.19130802,-3.921145916
27.48,2.397136211,-14.54965305,-3.390063524
27.49,2.462699175,-14.85858727,-1.782618999
27.5,1.941716194,-14.8658762,0.149626255
27.51,0.853371203,-13.90636635,1.057198405
27.52,-0.400854379,-12.77817917,0.039085984
27.53,-0.440050453,-12.7635994,-0.031943083
27.54,0.936898589,-9.980687141,-8.569203377
27.55,1.441789627,-8.842179298,-9.340880394
27.56,2.44589591,-7.286719322,-8.346071243
27.57,4.663704872,-4.427937508,-5.989570618
27.58,9.318146706,2.848916054,1.096505404
27.59,15.65614033,7.655477524,8.731289864
27.6,16.48176193,12.50570965,7.039506912
27.61,10.13939857,14.95617867,5.498278618
27.62,1.438752651,17.95720291,6.952264786
27.63,1.480456233,17.95682907,6.934094429
27.64,-1.381200314,18.65335846,6.35180378
27.65,-1.667475581,16.40947533,4.499576569
27.66,-3.589104652,14.90462971,2.397519827
27.67,-5.129584789,14.78321934,3.661286592
27.68,-4.826268196,14.18803787,7.204704285
27.69,-1.904102564,10.72210884,8.114347458
27.7,-2.375953913,6.432472229,9.953396797
27.71,-1.100560427,1.814277649,9.894846916
27.72,-5.97835E-05,-3.397720337,10.85304642
27.73,0.858862102,-9.596263885,10.64479637
27.74,-1.735149622,-13.25062943,7.421788216
27.75,-4.296199322,-15.02396965,1.954944372
27.76,-6.249548912,-15.1218462,-6.674295425
27.77,-6.022614479,-14.0277071,-12.41973877
27.78,-4.303762913,-12.80116177,-11.7412138
27.79,-2.576300144,-11.90991402,-6.517613888
27.8,-3.908244133,-10.93570614,-1.186563134
27.81,-6.769368649,-10.4170351,2.804314852
27.82,-8.76117897,-10.74171066,5.210409164
27.83,-7.644987106,-11.96701241,3.846109152
27.84,-6.262812614,-12.94000721,0.088649511
27.85,-6.076755047,-12.90714931,-0.029901743
27.86,-3.59087348,-11.09388256,-5.345251083
27.87,-2.614005327,-9.513096809,-4.581493378
27.88,-2.263360977,-8.080589294,-2.712794065
27.89,-2.266642809,-8.074383736,-2.737385988
27.9,0.024606794,-2.962867737,0.015560865
27.91,5.844772339,2.658896446,4.003913879
27.92,8.069734573,6.972323418,6.009233475
27.93,7.480047226,13.71836758,3.447904825
27.94,2.172835588,18.67459869,7.200582027
27.95,-1.435857773,20.53764725,15.16780853
27.96,-5.96341753,21.11713791,21.25172806
27.97,-10.28179169,21.61344528,15.72722626
27.98,-11.59940052,20.52545547,1.043369055
27.99,-10.87542439,17.05623627,-10.94560909
28,-7.020320892,12.26943779,-9.09191227
28.01,-7.012591362,12.22920513,-8.947117805
28.02,2.234909534,2.699975967,2.28175807
28.03,2.010979176,0.91155529,4.941951752
28.04,2.291056156,-0.7227211,6.447322845
28.05,4.92538166,-2.890981197,7.271848679
28.06,7.398526192,-4.977557182,6.464344978
28.07,6.545145988,-7.301290035,2.30930233
28.08,3.667462349,-8.724803925,-1.874536276
28.09,0.678618431,-10.43436909,-5.730717659
28.1,0.656222701,-12.24568748,-7.147562027
