Time (s),Linear Acceleration x (m/s^2),Linear Acceleration y (m/s^2),Linear Acceleration z (m/s^2)
0,-0.011693001,-0.057929039,0.09057492
0.01,0.033035934,0.027835846,0.371086866
0.02,0.014516294,0.084586143,0.491513163
0.03,0.0099684,0.083787918,0.486460954
0.04,0.01069659,0.032888412,0.286885083
0.05,-0.087405145,0.068405151,0.171880007
0.06,-0.107973278,0.041804314,0.13667047
0.07,-0.122585416,-0.006146431,0.160182357
0.08,0.011970401,-0.042016983,0.411596417
0.09,0.022139668,-0.063556671,0.31759119
0.1,0.023144543,-0.063391685,0.318614304
0.11,0.045649171,-0.09436512,0.202343762
0.12,0.041386008,-0.130208015,0.305494428
0.13,0.043746173,-0.106349945,0.201632679
0.14,0.000264525,-0.017858505,0.169707418
0.15,-0.043205261,0.013127327,0.230782688
0.16,-0.134671688,0.07994175,0.295408964
0.17,-0.163512111,0.084488869,0.237832964
0.18,-0.046294332,0.062831879,0.116773188
0.19,-0.059091985,0.034014702,0.080705345
0.2,-0.059705615,0.03394413,0.080442309
0.21,-0.036443651,0.07212162,0.240015268
0.22,0.024719656,0.002479553,0.283958018
0.23,-0.007872581,0.01900959,0.3066926
0.24,-0.016301155,-0.014724731,0.245464027
0.25,0.006372213,-0.077172279,0.182150602
0.26,0.074273527,-0.103685379,0.138408899
0.27,0.120166957,-0.108664513,0.21943754
0.28,0.065621972,-0.056186676,0.302653611
0.29,0.092940748,0.013032913,0.32541576
0.3,0.06777209,-0.011207581,0.296714485
0.31,0.066811323,-0.01154995,0.293651342
0.32,-0.12051177,0.009726524,-0.008597493
0.33,-0.119979203,0.009569168,-0.010846138
0.34,-0.262549937,0.062127113,0.024874806
0.35,-0.269521415,-0.031413078,-0.104250968
0.36,-0.016765893,-0.093858719,0.303777039
0.37,-0.019763827,-0.094368935,0.300549388
0.38,0.180487156,-0.150286675,0.874981761
0.39,0.151078939,-0.107573509,0.688938737
0.4,-0.037510157,-0.019023895,-0.31045872
0.41,-0.142588854,-0.006881714,-0.277477324
0.42,-0.031092465,0.052959442,0.247664869
0.43,-0.070221126,0.081208229,0.683077157
0.44,-0.074218631,0.080412865,0.677004457
0.45,0.012780249,0.029438972,0.262890339
0.46,0.009424686,0.029066086,0.261408269
0.47,-0.172441065,0.074410439,-0.006284535
0.48,-0.071288943,0.024010658,0.106481552
0.49,-0.023497045,0.007059097,0.221521616
0.5,-0.026501179,0.006829262,0.221419156
0.51,0.037737131,-0.010172844,0.297836661
0.52,-0.055213988,-0.055702209,0.208231151
0.53,-0.066007674,-0.043632507,0.141270161
0.54,0.043442786,-0.079305649,0.08735019
0.55,0.042430103,-0.014397621,0.098915935
0.56,-0.137831271,0.076874733,0.311459541
0.57,-0.08309859,0.0818367,0.359395087
0.58,0.018849492,0.077140808,0.102954924
0.59,0.017195046,0.077315331,0.106868327
0.6,-0.137543738,-0.003844261,0.001085818
0.61,-0.167341173,-0.068302155,0.02826786
0.62,-0.197177887,-0.092217445,0.065575182
0.63,-0.248255968,-0.094647408,0.061269999
0.64,-0.351560235,-0.046784401,0.116208375
0.65,-0.252971649,-0.022868156,0.16093725
0.66,-0.154467881,0.015433311,0.141507328
0.67,-0.101503968,0.008282661,0.239748716
0.68,-0.099791586,0.008449554,0.240309
0.69,-0.001780212,0.037469864,0.318308383
0.7,0.018136978,0.021145821,0.272661805
0.71,1.78814E-06,0.016907692,0.123004615
0.72,0.022272944,0.017554283,0.053646207
0.73,0.047983289,-0.015437126,0.032010973
0.74,-0.041926444,0.037590981,-0.031669557
0.75,-0.155285895,0.081010818,0.006508648
0.76,-0.244703651,0.074073792,0.158856869
0.77,0.051191747,-0.016717911,0.521325827
0.78,0.136747837,-0.088655472,0.482324928
0.79,0.008213639,-0.146263123,0.25450021
0.8,-0.045502186,-0.199057579,0.218373716
0.81,-0.120180905,-0.041176796,0.02787739
0.82,-0.239357591,0.08085537,-0.191323102
0.83,-0.121195257,0.121637344,-0.203344762
0.84,0.07010597,0.217385292,0.292303801
0.85,0.068691492,0.217103958,0.290229678
0.86,-0.142669559,0.097159386,0.470149696
0.87,-0.251958549,0.063651085,0.165499866
0.88,-0.250154793,0.063921928,0.166976929
0.89,-0.245502293,-0.110462189,0.011488378
0.9,-0.166360617,-0.098166466,0.11844945
0.91,-0.051872671,-0.09071064,0.246788204
0.92,0.035724223,-0.047340393,0.406720877
0.93,0.036357701,-0.047148705,0.408432543
0.94,0.041461647,0.017782211,0.145630777
0.95,0.061020017,0.018146515,0.085002124
0.96,-0.062783182,0.020944595,0.13924998
0.97,-0.025985837,-0.002671242,0.099147975
0.98,-0.02872169,-4.00543E-05,0.013611138
0.99,-0.048940957,0.069595337,0.052906394
1,-0.117566407,0.084091187,0.151480079
1.01,-0.26051569,0.084163666,0.271156788
1.02,-0.21522671,0.03410244,0.144657016
1.03,-0.191449285,-0.063728333,0.019331872
1.04,-0.152958632,-0.072912216,0.004409313
1.05,-0.210203588,-0.115675926,0.041483521
1.06,-0.209410727,-0.115401268,0.044076622
1.07,-0.141645074,-0.084040642,0.067400455
1.08,-0.081633151,-0.064811707,0.111323953
1.09,-0.043414712,-0.040828705,0.195592642
1.1,-0.005027771,-0.036025047,0.250766933
1.11,-0.026750505,-0.069624901,0.192516804
1.12,0.054215789,0.011693954,0.074707091
1.13,0.026666999,0.052330017,0.082252681
1.14,0.024601281,0.052174568,0.082204044
1.15,0.076804399,-0.022257805,-0.011072636
1.16,-0.046138346,0.02778244,-0.065810859
1.17,-0.165923417,0.099413872,-0.013185143
1.18,-0.088271976,0.084892273,0.122729838
1.19,-0.029489875,0.087292671,0.348721802
1.2,0.046331525,0.077789307,0.656667113
1.21,-0.071571946,-0.061002731,0.231747031
1.22,-0.116063654,-0.070151329,0.072826028
1.23,-0.113531292,-0.069615364,0.076644063
1.24,-0.248004198,-0.042822838,0.233500361
1.25,-0.129622638,-0.039933205,0.123563826
1.26,-0.029351413,-0.060918808,-0.102004051
1.27,0.099653721,-0.048868179,0.337230504
1.28,0.107554495,0.010662079,0.382980704
1.29,0.000273883,0.024581909,0.276769221
1.3,-0.013074517,0.026627541,0.197445512
1.31,-0.049785376,0.050246239,0.125228167
1.32,-0.047990382,0.006907463,0.091918826
1.33,-0.089048803,0.02114296,0.12432152
1.34,-0.11316824,0.00431633,0.269766986
1.35,-0.146180868,-0.00532341,0.204016268
1.36,-0.16941148,-0.045826912,0.133797705
1.37,-0.058523238,-0.067028999,0.074723899
1.38,-0.058225214,-0.066677094,0.078330457
1.39,0.013765097,-0.020876884,0.21566087
1.4,0.013578594,-0.020676613,0.218001664
1.41,0.029831231,0.017762184,0.239101827
1.42,-0.016669333,0.053781509,0.150040627
1.43,-0.085063338,0.005912781,0.046104729
1.44,-0.117804825,-0.027664185,0.111566424
1.45,-0.119462252,-0.027825356,0.111164272
1.46,-0.114003122,0.048549652,0.184071004
1.47,-0.115827918,0.048311234,0.183139741
1.48,-0.045924723,0.072058678,0.259237647
1.49,-0.021273434,0.047842026,0.293592513
1.5,-0.063244104,0.040392876,0.305953264
1.51,-0.116529346,0.073679924,0.315937161
1.52,-0.020816445,0.004057884,0.278053761
1.53,0.055643439,-0.024782181,0.233854294
1.54,0.043799758,-0.077504158,0.218804419
1.55,0.044111133,-0.077563286,0.217826366
1.56,-0.025095999,-0.036917686,0.183470786
1.57,-0.059060693,0.020406723,0.151295483
1.58,-0.084046185,-0.022812843,0.031134009
1.59,-0.090667725,0.000810623,0.045988619
1.6,-0.101531565,0.084322929,0.232906103
1.61,-0.102117837,0.084155083,0.231692374
1.62,-0.028177977,0.041032791,0.391963512
1.63,-0.189066172,0.012216568,0.118344247
1.64,-0.3419981,0.05062294,-0.120150507
1.65,-0.340830624,0.050697327,-0.120404005
1.66,-0.079010546,0.096030235,0.370513201
1.67,-0.028017759,0.105400085,0.254811585
1.68,-0.027715504,0.105304718,0.253790796
1.69,0.129575372,0.083686829,0.406672061
1.7,0.089754939,0.095350266,0.529080749
1.71,-0.007326484,0.082996368,0.432618231
1.72,-0.077885449,0.082688332,0.331956267
1.73,-0.116426349,0.05622673,0.218208194
1.74,-0.244843304,0.077872276,0.019788384
1.75,-0.240175545,0.083124161,-0.015387416
1.76,-0.036529362,0.02871418,0.131130457
1.77,0.077630103,0.014992714,0.357340276
1.78,0.079519153,0.015637398,0.362919509
1.79,0.1657691,-0.02912426,0.347254932
1.8,0.1130476,-0.037854195,0.215633035
1.81,0.089194715,-0.041724205,0.166159034
1.82,0.143474758,-0.031285286,0.07845062
1.83,0.08145529,0.026945114,0.217911601
1.84,0.081503689,0.027458191,0.223446369
1.85,-0.071809947,0.018183708,0.387023151
1.86,-0.065291107,-0.062982559,0.069271445
1.87,-0.154792845,-0.074550629,-0.047670841
1.88,-0.245755434,-0.040534973,-0.145644307
1.89,-0.258928478,-0.011219978,-0.138011932
1.9,-0.257057071,-0.010612488,-0.133236945
1.91,-0.361922324,0.030771255,-0.135787547
1.92,-0.277075708,0.09849453,-0.052509904
1.93,-0.273868561,0.099237442,-0.047659457
1.94,0.025554001,0.095222473,0.116145909
1.95,0.028386533,0.095983505,0.121561348
1.96,-0.003638446,0.0968256,0.323201776
1.97,-0.015970945,0.040350914,0.382159293
1.98,0.008073807,-0.013726234,0.289895475
1.99,0.012679517,-0.012659073,0.29668957
2,-0.055504858,-0.2486763,-0.124913573
2.01,-0.16924721,-0.290788651,-0.204442978
2.02,-0.165558398,-0.289898872,-0.198772311
2.03,-0.176912665,-0.198381424,0.103360236
2.04,-0.052564442,-0.257849693,0.121901929
2.05,-0.052311063,-0.257750511,0.122791588
2.06,-0.028554499,-0.269908905,0.377191126
2.07,-0.073769391,-0.20550251,0.183143854
2.08,-0.156799138,-0.066870689,-0.01610899
2.09,-0.210637987,0.052613258,-0.270482659
2.1,-0.17429781,0.138683319,-0.195543528
2.11,-0.106075764,0.198264122,0.073425651
2.12,-0.119824767,0.262537956,0.468645573
2.13,-0.061361134,0.25494957,0.453740478
2.14,-0.129040361,0.190141678,0.153489709
2.15,-0.127894163,0.19047451,0.155740738
2.16,-0.2310009,0.016316414,-0.029106379
2.17,-0.227758288,0.017066956,-0.024386287
2.18,-0.002399504,-0.168972969,0.229054809
2.19,0.000477612,-0.168336868,0.232894898
2.2,0.127176106,-0.246743202,0.239367425
2.21,0.100796998,-0.214957237,0.112007678
2.22,0.030391753,-0.181097031,0.075787008
2.23,0.030657113,-0.180970192,0.076777875
2.24,0.087434649,-0.116325378,0.019889116
2.25,-0.04305774,0.05829525,0.024243712
2.26,-0.058944881,0.094031334,-0.048202753
2.27,-0.061049223,0.093797684,-0.048646688
2.28,-0.122835755,0.129471779,0.079904675
2.29,-0.110318184,0.105331421,0.112934887
2.3,-0.111536264,0.105218887,0.112868369
2.31,-0.085861564,0.069190025,0.255911291
2.32,-0.085937977,0.069024086,0.254507721
2.33,-0.078837991,-0.019759178,0.216754317
2.34,-0.16181469,-0.084589958,0.310111702
2.35,-0.143155217,-0.139836311,0.261351526
2.36,-0.095723271,-0.137598038,0.160176694
2.37,-0.026771188,-0.132904053,0.16966027
2.38,-0.001226604,-0.152173996,0.17207408
2.39,0.066747844,-0.10929203,0.214842558
2.4,0.088365197,-0.090459824,0.225943387
2.41,0.071267366,-0.088463783,0.208011508
2.42,0.046698809,-0.134366989,0.092075109
2.43,0.045749307,-0.134744644,0.089091063
2.44,-0.126968265,0.097072601,0.216983497
2.45,-0.082310796,0.098872185,0.25722754
2.46,-0.110806108,0.031173706,0.087317467
2.47,0.079871833,-0.067697525,0.605051041
2.48,0.075643301,-0.068831444,0.597204328
2.49,0.186286092,-0.137260437,0.828537345
2.5,0.068663418,-0.1765728,0.404036939
2.51,-0.113976419,-0.011914253,-0.137415588
2.52,-0.114834368,-0.012376785,-0.14124912
2.53,-0.102317929,0.013384819,0.287721574
2.54,-0.034373224,0.086760521,0.602938414
2.55,-0.038323343,0.085661888,0.594813824
2.56,-0.092241287,0.027130127,0.265846729
2.57,-0.09636271,-0.030889511,-0.016335487
2.58,-0.143148661,-0.045599937,0.00259757
2.59,-0.129964888,-0.057926178,0.150742471
2.6,-0.056818664,-0.024755478,0.265291631
2.61,0.074039161,-0.048923492,0.294513226
2.62,0.065541565,-0.06107235,0.076077044
2.63,-0.02205646,-0.049071312,0.079826415
2.64,-0.021295071,-0.065861702,0.152818382
2.65,0.012423098,-0.056377411,0.244536102
2.66,-0.033273757,-0.037351608,0.14247179
2.67,-0.091023088,0.082267761,0.11986202
2.68,-0.081485271,0.089416504,0.09037143
2.69,-0.084486663,0.089364052,0.092301905
2.7,-0.122960508,0.089370728,0.063490629
2.71,-0.046436846,0.122915268,0.12338686
2.72,-0.048859358,0.123001099,0.126187503
2.73,-0.127093136,0.017787933,0.15758729
2.74,-0.140774488,0.008185387,0.156355143
2.75,-0.054224253,-0.051832199,0.177853048
2.76,0.045820653,-0.016234398,0.217606127
2.77,0.032728553,0.007185936,0.332256734
2.78,-0.016177237,0.037684441,0.407257319
2.79,0.047876239,0.070504189,0.383138776
2.8,0.095352173,0.048394203,0.26689291
2.81,0.092796028,0.048037529,0.265146852
2.82,0.011840701,0.035857201,0.17825067
2.83,0.010174692,0.035676003,0.177625477
2.84,0.032091141,-0.012402534,0.155702293
2.85,-0.103222489,0.052191734,0.031497002
2.86,-0.051188588,0.078548431,-0.053933978
2.87,-0.133792639,0.057085991,-0.008888304
2.88,-0.018516779,-0.000357628,0.275388181
2.89,0.190594256,-0.125114441,0.64226687
2.9,0.146718681,-0.156859398,0.654424727
2.91,0.067828417,-0.145483971,0.481430054
2.92,-0.076709867,-0.083760262,-0.12015909
2.93,-0.079149127,-0.083891869,-0.119823635
2.94,-0.203990698,-0.050442696,-0.472656965
2.95,-0.026156068,0.030625343,0.211565077
2.96,0.061763227,0.082566261,0.68682909
2.97,-0.005088091,0.084263802,0.661239564
2.98,-0.007830143,0.083846092,0.658707082
2.99,-0.186281383,0.028684616,0.072061598
3,-0.124606431,0.02874279,0.025300801
3.01,0.03255403,-0.019155502,0.147924542
3.02,0.062176049,0.016654015,0.370640516
3.03,0.060915351,0.016490936,0.369726002
3.04,0.019149005,-0.043489456,0.115463436
3.05,0.020843327,-0.064938545,-0.129622638
3.06,-0.04492414,-0.059929848,-0.047432542
3.07,-0.055460393,-0.01906395,0.129984736
3.08,-0.05203855,-0.042984009,0.150266886
3.09,-0.053408206,-0.042969704,0.15156132
3.1,-0.005020142,0.06237793,0.028370678
3.11,-0.007250488,0.062355042,0.02979517
3.12,-0.088035345,0.048045158,0.002982855
3.13,-0.161464751,0.038558006,-0.064307511
3.14,-0.148560345,-0.016458511,-0.045868456
3.15,-0.15454042,-0.009270668,0.0243541
3.16,-0.129028976,0.021818161,0.113182247
3.17,-0.110786557,0.060006142,0.205930173
3.18,-0.111478508,0.059892654,0.205129623
3.19,-0.040463746,0.066883087,0.285099685
3.2,-0.069473863,0.030865669,0.269942462
3.21,0.037810802,-0.002747536,0.228398979
3.22,0.075924039,-0.038716316,0.139474154
3.23,0.075508714,-0.03875351,0.139262259
3.24,0.101203322,-0.010138512,0.129156828
3.25,0.045787752,0.049621582,0.125875771
3.26,0.045718908,0.049462318,0.124110222
3.27,-0.185978949,0.080488205,-0.006761253
3.28,-0.259298384,0.090033531,-0.038777053
3.29,-0.208079279,0.080471039,0.085268736
3.3,0.157772064,-0.025008202,0.457644522
3.31,0.153906822,-0.025446892,0.455786169
3.32,0.209973484,-0.100070953,0.403971046
3.33,-0.12733835,-0.016540527,0.308954299
3.34,-0.168201268,0.071668625,0.369610071
3.35,-0.14569217,0.049747467,-0.075657725
3.36,-0.049367905,0.032963753,-0.133941174
3.37,-0.050819695,0.03264904,-0.136101842
3.38,-0.091236413,0.055970192,0.629308522
3.39,-0.033519268,0.00254631,0.462204635
3.4,-0.020918965,-0.019582748,0.171964645
3.41,-0.021963418,-0.019946098,0.168669343
3.42,-0.096413195,-0.080090523,0.210995257
3.43,-0.02646029,-0.094766617,0.183316171
3.44,-0.026207626,-0.094976425,0.180538535
3.45,0.040699124,-0.076061249,0.326352239
3.46,0.040324152,-0.076278687,0.324077606
3.47,0.051713109,-0.026112556,0.14857924
3.48,-0.030050635,0.017050743,-0.039614379
3.49,-0.068741441,0.064964294,0.044824839
3.5,0.016823769,0.074542999,0.222637296
3.51,0.015896857,0.074534416,0.223216057
3.52,-0.06835562,0.065009117,0.166607261
3.53,-0.116258919,0.017178535,0.181561947
3.54,-0.170787752,0.060301781,0.210256398
3.55,-0.272311747,0.074759483,0.195744574
3.56,-0.219805419,0.024656296,0.131437898
3.57,-0.214977086,-0.034983635,0.108258724
3.58,-0.212244213,-0.034744263,0.108889401
3.59,-0.189971507,-0.072992325,0.313317776
3.6,-0.036902845,-0.075485229,0.281485379
3.61,0.062698901,-0.085274696,0.323661625
3.62,0.044688046,-0.056806564,0.477615416
3.63,0.048480749,-0.016420364,0.38178122
3.64,0.018806458,-0.009541512,0.21180892
3.65,-0.047127843,-0.045698166,0.090889633
3.66,-0.108545899,-0.06267643,0.130697668
3.67,-0.047982156,-0.024625778,0.194154501
3.68,-0.048277199,-0.024932861,0.190702558
3.69,-0.134982288,0.008307457,0.041792274
3.7,-0.266995609,0.08954525,0.100003421
3.71,-0.168198049,0.089429855,0.131580472
3.72,-0.038889289,0.06546402,0.363449425
3.73,-0.010483205,-0.023163795,0.545219362
3.74,-0.195223808,-0.130990028,-0.068429053
3.75,-0.194295764,-0.130755425,-0.066265583
3.76,-0.106532514,0.008190155,0.258816302
3.77,-0.05957824,0.039222717,0.084161937
3.78,-0.051653683,0.056064606,-0.128474057
3.79,0.029096186,0.065671921,0.23388809
3.8,0.029210091,0.041356087,0.540158033
3.81,0.059492409,0.004753113,0.508054018
3.82,0.04900527,-0.029430389,0.229763091
3.83,0.046635389,-0.029887199,0.226081014
3.84,-0.105551183,-0.09727478,0.014630795
3.85,-0.106379747,-0.097509384,0.012297869
3.86,-0.12402004,-0.07137394,0.010582507
3.87,0.035132706,-0.026130676,0.331773758
3.88,0.036156774,0.009542465,0.24854219
3.89,0.020616829,0.026158333,0.120576382
3.9,0.019654334,0.026098251,0.120642781
3.91,-0.086599708,0.069095612,0.252054393
3.92,-0.087100685,0.069005013,0.251165569
3.93,-0.070646882,0.057035446,0.158137322
3.94,-0.070554197,0.057182312,0.159769297
3.95,-0.137044311,0.026270866,0.020752907
3.96,-0.143376648,-0.014159203,-0.086456299
3.97,-0.206900656,-0.025760651,-0.111784279
3.98,-0.315525174,-0.032658577,-0.042307854
3.99,-0.313641131,-0.032481194,-0.04161942
4,-0.232557356,-0.025169373,0.183338642
4.01,-0.161209762,-0.003477097,0.114057124
4.02,-0.158826351,-0.00322628,0.115241706
4.03,-0.177344978,0.020986557,0.073009372
4.04,-0.102543116,0.004524231,0.076454282
4.05,-0.085322559,0.052664757,0.165863931
4.06,-0.018022954,0.062483788,0.197679043
4.07,-0.035353124,0.072312355,0.065178871
4.08,-0.084361255,0.07260704,-0.073521793
4.09,-0.1432845,0.070509911,-0.044447958
4.1,-0.171686113,0.029896736,-0.03870821
4.11,-0.202550888,-0.027471542,-0.133586288
4.12,-0.230975986,0.054095268,-0.246851146
4.13,-0.229875565,0.07347393,-0.086962104
4.14,0.003570557,0.073681831,0.165804565
4.15,0.003625393,0.073775291,0.16701436
4.16,-0.075552106,-0.115178108,0.317890823
4.17,-0.038251817,-0.145908356,0.254484892
4.18,-0.036570549,-0.145576477,0.256929994
4.19,-0.075073183,-0.116584778,0.160203636
4.2,-0.143687189,-0.075491905,-0.316720605
4.21,-0.086154222,-0.072527885,-0.256909072
4.22,-0.009105504,-0.003037453,0.136067987
4.23,-0.043516755,0.075695992,0.329709113
4.24,-0.071160734,0.075324059,0.146928132
4.25,-0.16061604,0.079894066,0.099544883
4.26,-0.129197955,0.070235252,0.074307323
4.27,-0.161825955,-0.003966331,-0.026686132
4.28,-0.1432423,-0.032529831,-0.124320626
4.29,-0.114765763,-0.049049377,-0.003695786
4.3,-0.112247944,-0.048775673,-0.002389312
4.31,-0.062019944,-0.084347725,-0.03148824
4.32,-0.045075059,-0.071921349,-0.069028258
4.33,-0.123826444,-0.035552979,-0.070617557
4.34,-0.120745301,-0.035121918,-0.068052709
4.35,-0.09427011,-0.022755623,-0.027495086
4.36,-0.168599844,-0.03199482,-0.030100465
4.37,-0.113430619,-0.019743919,0.02612257
4.38,-0.111370444,-0.019565582,0.026525855
4.39,-0.259491444,-0.048054695,0.024669588
4.4,-0.256053567,-0.047768593,0.024864078
4.41,-0.271011055,-0.100175858,-0.073697209
4.42,-0.366239846,-0.092662811,-0.064945638
4.43,-0.398793936,-0.039662361,-0.022908509
4.44,-0.392332554,-0.003419876,0.066204369
4.45,-0.280612588,0.001688957,0.004505932
4.46,-0.267065346,0.018795013,0.079471111
4.47,-0.260029793,0.019174576,0.077486396
4.48,-0.254254639,-0.04504776,0.132332504
4.49,-0.190722942,-0.078198433,0.038086176
4.5,-0.182150066,-0.077776909,0.03485626
4.51,-0.237769663,-0.087024689,0.087604523
4.52,-0.32004118,-0.192106247,0.034292698
4.53,-0.34277302,-0.227832794,-0.163293362
4.54,-0.327329516,-0.20365715,-0.331611753
4.55,-0.246872366,-0.007090569,-0.050123572
4.56,-0.204517782,0.040834427,0.154069781
4.57,-0.085761309,-0.033373833,0.243164957
4.58,-0.097288072,-0.11719799,0.466901064
4.59,-0.18253696,-0.177028656,0.299807698
4.6,-0.173736215,-0.176926613,0.291189522
4.61,-0.245834768,-0.207848549,0.000581861
4.62,-0.374923587,-0.097405434,-0.3591851
4.63,-0.473219037,-0.094691277,-0.16519177
4.64,-0.466582596,-0.149589539,0.235207111
4.65,-0.458808959,-0.149737358,0.223362953
4.66,-0.351629853,-0.257763863,0.157838762
4.67,-0.517865837,-0.298761368,0.018699884
4.68,-0.524545252,-0.416212082,0.018137276
4.69,-0.451724649,-0.48815918,-0.002315402
4.7,-0.424504578,-0.502658844,0.122758448
4.71,-0.35224545,-0.50050354,0.313446969
4.72,-0.233497262,-0.510576248,0.504311681
4.73,-0.113315821,-0.492378235,0.536525786
4.74,-0.096475005,-0.498469353,0.576705933
4.75,-0.024416387,-0.62020874,0.571820915
4.76,0.184884429,-0.835441589,0.547323823
4.77,0.256002665,-0.966984749,0.434479117
4.78,0.259369731,-1.031540871,0.27037248
4.79,0.314336658,-0.990912437,0.015358925
4.8,0.364733934,-0.720648766,-0.335402697
4.81,0.345642626,-0.72355938,-0.363027871
4.82,0.393311977,-0.391564369,-0.607864857
4.83,0.478544354,0.033590317,-0.89704454
4.84,0.45887053,0.054009438,-0.990980387
4.85,0.431029201,0.050550461,-1.03344202
4.86,0.253763735,0.047486305,-0.915151298
4.87,0.309168041,0.040143013,-1.05284369
4.88,0.553284943,0.042809486,-1.31382966
4.89,0.719094694,0.148718834,-1.411521792
4.9,0.86135155,0.518217087,-1.433923244
4.91,0.840544164,0.516716003,-1.447470665
4.92,0.951216817,0.874456406,-1.515706182
4.93,0.632056117,1.646543503,-1.137450695
4.94,0.614408851,1.645492554,-1.139442325
4.95,0.190182209,1.477025986,-0.752904713
4.96,0.050082922,1.117329597,-0.849627614
4.97,0.041829944,1.116930008,-0.842298567
4.98,0.02261579,0.609007835,-1.015608549
4.99,0.287698269,-0.763300896,-1.062653184
5,0.606314898,-1.369571686,-0.422655463
5.01,0.717621148,-1.710195541,-0.45479691
5.02,0.638337851,-1.720367432,-0.707196593
5.03,0.629539967,-1.720894814,-0.719271421
5.04,0.570194662,-1.369444847,-1.074995875
5.05,0.548836589,-1.219132423,-0.924920201
5.06,0.53879416,-1.219650269,-0.942651391
5.07,0.497365356,-0.870581627,-0.636139214
5.08,0.480310261,-0.813546181,-0.77610296
5.09,0.445613384,-0.832998276,-0.923895657
5.1,0.467398554,-0.811689377,-1.076408982
5.11,0.461529821,-0.823815346,-1.120702624
5.12,0.416866064,-0.843060494,-1.116844654
5.13,0.377307236,-0.936423302,-1.062362075
5.14,0.355803162,-1.041618347,-1.021167755
5.15,0.336346477,-1.065359116,-1.007173896
5.16,0.185127914,-1.084199905,-1.054291129
5.17,0.084275842,-1.093373299,-1.133225083
5.18,0.051304668,-1.047328949,-1.170599103
5.19,0.065658391,-1.046675682,-1.16868639
5.2,0.050266951,-0.811312676,-1.515028954
5.21,0.068433821,-0.810465813,-1.510276079
5.22,-0.08981806,-0.493366242,-1.765341163
5.23,-0.130481005,-0.331720352,-1.841229677
5.24,-0.156704187,-0.1146698,-1.602324247
5.25,-0.063029885,-0.000292778,-1.427215815
5.26,-0.029367447,0.001783371,-1.421203494
5.27,0.008422256,0.040043831,-1.287974715
5.28,0.142650545,0.042564392,-1.381683588
5.29,-0.129239142,0.471498489,-1.25536108
5.3,-0.259159029,0.764181137,-1.176973581
5.31,-0.142833769,0.989961624,-1.354914904
5.32,-0.107145011,0.993077278,-1.365194201
5.33,0.209425986,1.551677704,-1.1943537
5.34,0.298839867,1.786989212,-1.021614313
5.35,0.36454016,2.05594635,-0.752614379
5.36,0.39705646,2.617137909,-0.307196081
5.37,0.580974102,3.427503586,0.097451746
5.38,0.583668709,4.13004303,0.213528171
5.39,0.670734346,4.499634743,0.624112904
5.4,0.480989277,4.454683304,1.544565678
5.41,0.122317076,4.141524315,2.276042461
5.42,-0.213198662,3.60296917,2.515810251
5.43,-1.098768592,3.439506531,1.935135245
5.44,-0.733925581,2.702794075,2.15126276
5.45,0.009924173,2.251706123,2.661288738
5.46,0.309936643,2.107650757,3.233442783
5.47,0.172026217,2.313150406,3.7054739
5.48,-0.246404171,2.555013657,4.054842472
5.49,-0.777377009,2.565293312,4.54607296
5.5,-1.239161015,2.044884682,4.945764542
5.51,-1.420417428,1.161213875,4.731239796
5.52,-1.529490113,0.488540649,4.24115181
5.53,-1.780620933,0.16564846,3.609420538
5.54,-2.078879118,0.22612381,3.158285141
5.55,-2.403208733,0.61021328,2.856353045
5.56,-2.734496355,1.047421455,2.564177513
5.57,-2.851163149,1.346326828,2.332352877
5.58,-2.851866961,1.442083359,1.800738931
5.59,-2.708698034,1.291531563,1.205304146
5.6,-2.379709959,0.803516388,0.664890885
5.61,-2.372898102,0.806224823,0.635726929
5.62,-1.86815989,0.16222477,0.353466392
5.63,-1.494901299,-0.560940743,0.197673261
5.64,-1.08947885,-1.464144707,0.053705037
5.65,-0.410697937,-3.069405079,-0.080984533
5.66,-0.405149341,-3.068517208,-0.084631562
5.67,0.266708791,-4.341961861,0.071376503
5.68,0.784758449,-4.790625572,-0.021032214
5.69,0.988663197,-5.110898972,0.149606466
5.7,1.053817868,-5.527358532,0.193733037
5.71,1.242034674,-5.75255394,0.146674395
5.72,1.286180019,-5.875189781,0.044282317
5.73,1.261602998,-5.930992126,-0.018552363
5.74,1.172167063,-5.922340393,-0.07868737
5.75,0.970080376,-5.76074791,-0.067369223
5.76,0.869167984,-5.443606853,-0.343244672
5.77,0.746395588,-5.066709042,-0.760913491
5.78,0.388383448,-4.42401886,-1.166492224
5.79,-0.004882336,-3.646945953,-1.276238203
5.8,-0.529430091,-2.739956856,-1.214606047
5.81,-0.708954334,-1.887672901,-1.137572765
5.82,-0.612646163,-0.886701584,-0.723777533
5.83,-0.83208251,-0.134507179,-0.05509001
5.84,-1.497537851,0.304469109,0.201021791
5.85,-2.305721521,0.74859333,0.000937045
5.86,-2.565428734,0.946331978,-0.622278154
5.87,-2.490999222,1.07705307,-1.297874928
5.88,-2.448859453,1.315548897,-2.01482439
5.89,-2.427930832,1.314785004,-1.969917893
5.9,-2.017795324,1.596679688,-2.00762701
5.91,-1.379047394,2.007890701,-1.327780008
5.92,-0.770653665,2.402080536,-0.386146605
5.93,-0.497076154,3.425803185,0.326891035
5.94,-0.812048078,3.826865196,0.023609221
5.95,-1.617777705,3.873545647,-0.450125128
5.96,-1.625618935,3.872519493,-0.431706607
5.97,-3.248562574,3.053009987,-1.501326084
5.98,-3.265946865,2.502026558,-1.792725444
5.99,-2.621776819,2.688918114,-0.670345783
6,-1.026464939,3.271063805,0.657119632
6.01,-1.020946026,3.270967484,0.698943555
6.02,2.804704428,3.777622223,1.74369216
6.03,2.793229342,3.776685715,1.797044635
6.04,3.210089207,3.730847359,3.163758516
6.05,2.766341686,2.6963377,5.324586868
6.06,2.590710878,1.891466141,5.185644627
6.07,2.582545757,1.891055107,5.198250771
6.08,1.923043489,0.514079094,2.194691896
6.09,1.92241466,0.514137268,2.202590227
6.1,0.383261442,0.51672554,-0.418757975
6.11,-0.021911442,0.899956703,-0.283380717
6.12,-0.018277049,0.899975777,-0.304072529
6.13,0.266680926,1.450216293,0.143795312
6.14,1.039657712,2.112909317,1.179641247
6.15,1.38476181,2.277421951,1.494109869
6.16,1.372171164,2.276687622,1.452057481
6.17,1.339514732,2.16601181,2.034378052
6.18,0.651614964,1.27750206,2.503391266
6.19,0.193472087,0.449320793,1.866108179
6.2,-0.216902614,-0.56532383,1.098668933
6.21,-0.416612029,-1.850182533,0.234913379
6.22,-0.721201479,-2.864243984,-0.474005789
6.23,-0.805096388,-3.652898312,-0.794882059
6.24,-0.504528701,-4.436446667,-0.518980146
6.25,0.171539545,-4.961364746,0.275094807
6.26,0.347114891,-5.414499283,0.216975182
6.27,0.568168759,-5.508403778,0.240748987
6.28,0.628493428,-5.456203461,0.439130187
6.29,0.822460651,-5.221950054,0.315606117
6.3,0.83535862,-4.937498569,-0.197574154
6.31,0.891128182,-4.830247879,-0.573854208
6.32,0.912757933,-4.828325272,-0.57197988
6.33,0.588781118,-4.127291679,-0.794599533
6.34,0.574730277,-4.01049614,-1.027173162
6.35,0.511315823,-3.613867283,-1.298010826
6.36,0.448509455,-3.146021366,-1.571553349
6.37,0.567123771,-2.549453259,-1.568830252
6.38,0.609221876,-1.792983532,-1.20145905
6.39,0.605589509,-1.793377399,-1.198964596
6.4,0.558977783,-1.01803112,-0.833679855
6.41,0.575913787,-0.316802025,-0.452815354
6.42,0.367842913,0.557214737,0.121538952
6.43,0.034876823,0.682180405,-0.350784898
6.44,-0.292991042,0.927306175,-1.124129653
6.45,-0.624604881,1.136879921,-1.737970591
6.46,-0.727398396,1.466417313,-2.036142111
6.47,-0.714777947,1.999420166,-1.923010945
6.48,-0.701686382,2.000814438,-1.892837763
6.49,-0.082406521,2.83289814,-1.710952759
6.5,-0.154769659,2.618480682,-1.48259294
6.51,-0.165281773,2.114556313,-0.852698743
6.52,-0.15169239,2.11605072,-0.850954056
6.53,-0.497127056,2.930025101,1.213586569
6.54,0.058023095,3.938278198,2.093049526
6.55,0.013897538,4.602064133,2.138241768
6.56,-0.288682699,4.940964699,2.548889875
6.57,-0.538291216,4.852059364,3.719794989
6.58,-0.593013644,3.764953613,4.945791721
6.59,-0.475477934,2.471056938,5.867818356
6.6,-0.059335828,1.594731331,6.276809216
6.61,0.065348864,0.752436638,5.747210503
6.62,-0.046043515,0.322890282,3.986837149
6.63,-0.06016326,0.320858002,3.964775801
6.64,-0.863140941,0.754514694,2.465489864
6.65,-2.344433784,2.927016258,0.197548822
6.66,-3.292824745,4.245929718,0.567455173
6.67,-3.4446702,4.996477127,1.415726542
6.68,-3.324171066,5.165802002,1.798220038
6.69,-2.518275738,4.382309914,1.787351727
6.7,-1.34874773,3.159659386,1.687358975
6.71,-0.233429074,1.639263153,1.494311929
6.72,0.179249167,0.228203774,0.848319411
6.73,0.562657535,-0.85795784,0.435734421
6.74,0.916737199,-2.021705151,0.296470523
6.75,1.148725986,-3.131235123,0.08598958
6.76,1.235402107,-3.98764801,0.041058481
6.77,1.214581251,-4.714902878,-0.092470765
6.78,1.180182219,-5.264784813,-0.134289444
6.79,1.147810102,-5.268472672,-0.131769493
6.8,1.103985667,-5.623735428,0.297282577
6.81,1.251825213,-5.85656929,0.07456857
6.82,1.176353216,-5.940719128,-0.084413052
6.83,1.151878595,-5.943269253,-0.057752728
6.84,1.059789777,-6.118127823,-0.238361269
6.85,1.034703016,-6.120493889,-0.2132743
6.86,0.819413424,-5.981326103,-0.486707807
6.87,0.152607858,-5.346380234,-0.913594425
6.88,-0.160394132,-5.027232647,-1.091791511
6.89,-0.510540724,-4.655200958,-1.472537041
6.9,-0.829253674,-4.098416328,-1.779286981
6.91,-1.250533342,-3.385386944,-1.702184796
6.92,-1.376575589,-2.616038799,-1.594712615
6.93,-1.259650826,-1.80903244,-1.231580377
6.94,-0.94436866,-0.886263847,-0.769878507
6.95,-0.762900233,0.062869072,-0.521649063
6.96,-0.330988586,0.877360344,-0.549905777
6.97,0.031769574,1.78895092,-0.413079023
6.98,-0.02719593,2.680333138,-0.073487401
6.99,-0.037184656,2.680599213,-0.052858233
7,-1.105168939,3.691104889,0.723112226
7.01,-1.671784043,3.387042999,0.444072127
7.02,-2.134754658,2.584821701,-0.600127757
7.03,-2.138995647,2.584936142,-0.592303753
7.04,-3.725105047,1.716918945,-2.255994797
7.05,-3.175911427,2.888733864,-1.952908039
7.06,-1.831398249,4.071617126,-1.633534551
7.07,0.053619921,5.439452171,-1.021092653
7.08,2.382314205,6.123764992,1.476249933
7.09,3.708255529,6.358009338,4.137434959
7.1,3.339808464,6.017073631,5.156644344
7.11,2.528841496,4.712132454,4.086577415
7.12,2.230911255,3.260719299,2.531201839
7.13,1.793841243,1.967778206,0.661878109
7.14,1.702971697,1.039992332,-0.513410986
7.15,1.813322544,0.75411129,-0.345455766
7.16,1.861425161,0.895654678,0.337284565
7.17,2.134938955,1.488877296,0.404109299
7.18,1.842583895,2.462377548,0.645486474
7.19,1.708511233,3.062265396,1.319486856
7.2,1.675029874,3.056146622,1.266649246
7.21,0.698185027,3.797141075,2.010933876
7.22,-0.186888337,3.626458168,2.597433567
7.23,-1.004615307,2.427043915,2.359352589
7.24,-1.017235994,2.423585892,2.300034046
7.25,-0.88493681,0.771678925,1.212290764
7.26,-0.796647072,-2.233894348,-0.269700497
7.27,-0.614410281,-3.438140392,-0.802127779
7.28,-0.466081917,-4.459936619,-0.757527828
7.29,-0.248122811,-5.131975651,-0.346987397
7.3,0.087591648,-5.679479599,-0.037752599
7.31,0.107401609,-5.678721428,-0.059703201
7.32,0.421812028,-5.900627136,0.435398698
7.33,0.666434825,-5.638854504,0.633693755
7.34,0.850999773,-5.35541296,0.720970452
7.35,0.836943448,-5.196358681,0.581813812
7.36,0.821529746,-4.867054939,0.095401213
7.37,0.601126373,-4.638086319,-0.563206494
7.38,0.347850114,-4.370624065,-0.936531365
7.39,0.328199089,-4.105566978,-1.250723004
7.4,0.350758314,-3.826364994,-1.524201751
7.41,0.642597795,-3.291222095,-1.44716239
7.42,0.768819332,-2.65355444,-1.205916882
7.43,0.774468541,-2.653052807,-1.208736062
7.44,0.779743671,-1.74992466,-0.737022817
7.45,0.955976427,-0.176319122,0.25297159
7.46,0.854188561,0.410830498,0.317504168
7.47,0.860879958,0.411450386,0.31670025
7.48,0.101962864,1.300188065,-1.575918794
7.49,0.102667213,1.300253868,-1.573204875
7.5,-0.026302636,1.843333244,-1.723293781
7.51,0.049805164,2.850604057,-0.162718624
7.52,-0.262698889,2.945819855,-0.979573011
7.53,-0.483501375,3.099006653,-1.275482178
7.54,-1.088335514,3.003977776,-1.655073166
7.55,-1.293140888,3.539139748,-0.664482892
7.56,-0.196215451,4.672802925,0.908414304
7.57,-0.192548752,4.673144341,0.90981406
7.58,0.976276755,5.72428894,2.05328846
7.59,0.679036737,5.887555122,3.163609743
7.6,-0.274139404,4.988473892,4.70622015
7.61,-0.95769608,3.67346096,5.424773693
7.62,-1.533838153,2.358455658,5.102193356
7.63,-0.621801496,0.880057335,4.438444614
7.64,0.252480745,0.060049057,4.009969234
7.65,0.539732814,-0.339923859,3.574515343
7.66,-0.013746381,0.042355537,2.495326757
7.67,-0.771722138,0.793459892,1.485237598
7.68,-1.263211489,2.050292015,0.782126069
7.69,-1.286349535,2.048544884,0.740834475
7.7,-3.494051695,4.938409805,1.563362122
7.71,-3.604341745,5.312707901,1.485169649
7.72,-3.027365685,4.949886322,1.496547103
7.73,-2.271219492,3.63882637,1.296756506
7.74,-1.470033288,2.035305023,0.863016605
7.75,-1.469640732,2.035346031,0.863623262
7.76,0.134671569,-1.145360947,-0.227738828
7.77,0.628482342,-2.320381641,-0.208323851
7.78,1.115441322,-3.567829609,0.052843422
7.79,1.657076836,-4.681525707,0.097912818
7.8,1.974969149,-5.496122837,-0.138283253
7.81,1.930696845,-5.498888493,-0.15658237
7.82,1.562072873,-6.341788292,-0.280212402
7.83,0.988492012,-6.336754799,-0.214453429
7.84,0.78585732,-6.254944801,-0.347323299
7.85,0.580018878,-6.216139793,-0.331874698
7.86,0.508380771,-5.999992371,-0.12603046
7.87,0.450380951,-5.838764191,-0.341222823
7.88,0.424065232,-5.840312004,-0.328783929
7.89,-0.086938232,-5.243170738,-1.336880922
7.9,-0.381051332,-4.794228077,-1.633997321
7.91,-0.397424102,-4.795235157,-1.618862629
7.92,-0.56729579,-3.82883215,-1.148049116
7.93,-0.942089319,-3.029998779,-1.863589168
7.94,-1.309022307,-2.183016777,-1.698374867
7.95,-1.253891826,-1.095960617,-0.823425949
7.96,-1.352226019,-0.075393677,-0.786837935
7.97,-1.281609535,0.658431053,-1.029957175
7.98,-0.987043142,1.462278366,-0.98191601
7.99,-1.160985947,2.022158623,-0.723461747
8,-1.443415165,2.495932579,-0.573655367
8.01,-1.347605228,2.789952278,-0.559496403
8.02,-0.783643127,2.956577301,-0.276667506
8.03,-0.850989759,3.232477188,0.231360033
8.04,-1.531028748,3.270452499,-0.148606986
8.05,-3.041330576,3.313194275,-1.462425232
8.06,-4.273319244,3.40435791,-2.684906721
8.07,-4.221928596,4.612204552,-2.170058727
8.08,-1.637753844,5.938069344,0.092785358
8.09,1.246012688,6.74174881,1.126453876
8.1,2.675326347,6.73116684,1.310588002
8.11,2.662926674,6.732293129,1.348032713
8.12,2.964306116,6.615861893,2.452738523
8.13,1.428630233,4.262720108,4.326578617
8.14,1.410779119,4.262188911,4.333149433
8.15,3.174907446,-0.306120873,3.288609982
8.16,3.164259911,-1.3222332,0.736399531
8.17,1.92358911,-0.501204491,-0.885266066
8.18,0.826272726,0.504979134,-1.396502614
8.19,0.429239988,1.969182968,-1.14536345
8.2,0.426694572,1.968358994,-1.163233161
8.21,1.076843262,4.153158188,0.320871204
8.22,1.06571281,4.151620865,0.288819432
8.23,0.854763985,4.257469177,3.20761919
8.24,0.661172032,3.122904778,4.027494431
8.25,0.218229055,1.535965919,3.271324635
8.26,-0.306469262,-0.385647774,1.708343148
8.27,-0.318803787,-0.386405945,1.667983532
8.28,-0.249497578,-2.084301949,0.218914643
8.29,-1.103251696,-4.447415829,-1.274587393
8.3,-1.086933613,-4.447029591,-1.293525457
8.31,-0.893127203,-5.741744995,-0.55565697
8.32,-0.781210065,-6.116827011,-0.152547807
8.33,-0.541011453,-6.163558006,0.895569146
8.34,-0.035427839,-6.140600204,1.542851925
8.35,0.369831741,-6.105465889,0.695846438
8.36,0.403430939,-6.103780746,0.675693691
8.37,0.66718781,-5.40293026,0.08387062
8.38,0.906548023,-5.039664745,-0.31540063
8.39,1.075882316,-4.784331322,-1.059840202
8.4,1.019203544,-4.450068951,-1.249204397
8.41,1.033311367,-3.957791328,-1.208406448
8.42,1.044112206,-3.956514359,-1.236043572
8.43,0.965350151,-3.416777134,-1.107705951
8.44,0.836943865,-1.926979542,-0.914413571
8.45,0.618409872,-1.000066757,-0.813896537
8.46,0.503243029,-0.027561188,-0.489913702
8.47,0.625539839,0.600263596,-0.146476001
8.48,0.630017042,0.600779533,-0.153773755
8.49,0.462783456,1.154355049,-0.12642549
8.5,0.273029566,1.628602982,-0.692561626
8.51,0.259827375,1.985301018,-1.0772686
8.52,0.260449708,1.985070229,-1.06911695
8.53,-0.209451318,3.280097008,-1.10001862
8.54,-0.298963785,3.950224876,-1.251635075
8.55,-0.344842315,4.20132637,-1.49888289
8.56,-0.671569943,4.081451416,-1.617230177
8.57,-1.117037296,3.660177231,-1.536133051
8.58,-1.281201363,3.153149605,-1.31586647
8.59,-1.256364584,3.154084206,-1.286615133
8.6,-0.36665529,3.80427742,1.511587739
8.61,0.671389282,4.105042458,1.657541752
8.62,0.386328399,4.015697479,0.424540699
8.63,-0.572696805,3.733341217,1.201341987
8.64,-0.53270793,3.736666679,1.253661036
8.65,0.009877086,1.647319794,4.290574074
8.66,0.313747942,0.603679657,5.117289543
8.67,0.586969078,0.073037148,5.482654572
8.68,0.483201385,-0.166858673,4.815871239
8.69,-0.472281933,0.430334091,3.291864872
8.7,-1.504365802,1.202050209,1.791325688
8.71,-2.89366436,2.345065117,0.573310494
8.72,-4.07028532,3.764035225,-0.072155468
8.73,-4.275387764,4.7480793,-0.51556468
8.74,-4.269535542,4.748519897,-0.521786153
8.75,-2.489598751,4.576802254,0.939377368
8.76,-1.32199502,3.653310776,2.164872646
8.77,-0.706717551,2.095434189,1.881246328
8.78,-0.348629952,0.056503296,1.021991491
8.79,-0.340150416,0.057344437,1.034676552
8.8,0.406313539,-1.783855915,0.329321951
8.81,1.264380574,-3.211821079,-0.095818736
8.82,1.918704748,-4.410636902,-0.396133691
8.83,2.251540184,-5.77272892,0.332947701
8.84,2.418691158,-6.02422905,0.537394583
8.85,1.997806787,-5.988780975,0.359543711
8.86,1.543479204,-5.819280624,0.073105156
8.87,0.810440898,-5.620951176,-0.001831133
8.88,0.390409917,-5.312016487,0.001786698
8.89,0.371671319,-5.175067425,-0.391372383
8.9,0.357671768,-5.013888836,-0.795351505
8.91,0.381940067,-4.802144527,-0.903457522
8.92,0.356050313,-4.803374767,-0.883416176
8.93,0.197572231,-4.505165577,-0.82389611
8.94,-0.518356919,-3.962493896,-0.831988692
8.95,-0.535338163,-3.962973595,-0.810708225
8.96,-1.338995457,-3.084067822,-1.635505915
8.97,-1.337453246,-3.083024502,-1.59513855
8.98,-1.382243633,-2.341422558,-1.66035223
8.99,-1.297834992,-1.55850029,-1.473579049
9,-1.503751397,0.331129074,-0.974098682
9.01,-1.764637947,1.158230782,-0.742613792
9.02,-1.424721718,1.674625397,-1.026027918
9.03,-0.884178281,2.095173836,-1.078415036
9.04,-0.621657431,2.591759682,-0.522047341
9.05,-0.612370908,2.948523521,0.121224552
9.06,-0.60662365,2.950024605,0.139191955
9.07,-1.542915821,2.737739563,-0.391393304
9.08,-2.706763744,2.336315155,-1.41816628
9.09,-3.807832479,2.071884155,-2.178894043
9.1,-3.928026915,2.689926147,-2.004532576
9.11,-2.494991064,3.733524323,-1.140817404
9.12,-2.461389542,3.738965988,-1.100538611
9.13,1.634825945,4.991932869,0.175888777
9.14,3.345217466,4.924342155,1.981563091
9.15,3.659343004,5.073802948,3.602723598
9.16,3.251991034,4.552740097,3.887717724
9.17,2.750453234,3.81985569,3.591875315
9.18,2.524417639,3.104060173,2.690527201
9.19,2.043247938,1.9597826,0.984557748
9.2,1.347693205,1.389209747,-0.517332494
9.21,1.086878657,1.179643631,-0.719535887
9.22,1.065473914,1.175331116,-0.750426471
9.23,1.508293629,1.735575676,-0.468345046
9.24,1.871353388,2.245281219,0.430051267
9.25,2.042127132,2.706199646,1.585827589
9.26,1.999126196,2.699890137,1.53376174
9.27,1.26849556,2.099838257,2.420589447
9.28,0.378448606,1.054795265,2.063216925
9.29,0.338821292,1.049524307,2.000168562
9.3,-1.111977339,-1.538252831,0.465068638
9.31,-1.133806467,-1.541624069,0.406675845
9.32,-1.284201145,-3.797158718,-0.243080735
9.33,-0.941490233,-4.567511559,-0.266134173
9.34,-0.625087559,-5.188762665,0.204405755
9.35,-0.616596162,-5.189321518,0.17076689
9.36,-0.3957313,-5.876360416,0.424474001
9.37,-0.407286227,-5.904558659,0.479390472
9.38,-0.122831911,-5.755293369,0.274662912
9.39,-0.092082351,-5.754321575,0.248688698
9.4,0.416331708,-5.152313232,-0.181889445
9.41,0.982102573,-4.789804935,-0.345225751
9.42,1.243059516,-4.353229046,-0.277095467
9.43,1.117443442,-3.892638206,-0.363780379
9.44,1.134235144,-3.891664505,-0.397430718
9.45,0.860227585,-2.789381504,-1.06001389
9.46,0.80675149,-2.300262928,-1.281952024
9.47,0.812102854,-2.299724102,-1.303628445
9.48,0.418720722,-1.181229591,-0.870825172
9.49,0.443304181,-0.615840912,-0.772091568
9.5,0.442355454,-0.615600586,-0.789823055
9.51,0.562205315,-0.105453491,-0.404312998
9.52,0.537627399,0.768587112,-0.318929672
9.53,0.257935405,1.230784416,-0.73161912
9.54,-0.113938987,1.781573296,-1.131293416
9.55,-0.31482029,2.341929436,-1.273694158
9.56,-0.331180811,2.902210236,-1.347806096
9.57,-0.331205964,2.902130127,-1.34467268
9.58,-0.400252879,3.397669792,-1.684145927
9.59,-0.457924902,3.364167213,-1.631831884
9.6,-0.263106823,3.144134521,-0.73445034
9.61,-0.253641844,3.144615173,-0.729449511
9.62,-0.497919321,3.746291161,1.868636012
9.63,-0.150397241,4.302586555,1.974565029
9.64,0.619268298,4.521231651,1.228153467
9.65,0.637339234,4.521885872,1.26717329
9.66,0.065128982,4.149428368,2.844115734
9.67,-0.422585487,3.34135437,4.112214088
9.68,-1.470468521,2.815620422,4.824257374
9.69,-1.462142944,2.816216469,4.836740494
9.7,-0.118161857,0.881352425,5.52879858
9.71,-0.206847549,0.736309052,4.063625813
9.72,-0.85755527,1.345590591,2.299450874
9.73,-0.873907268,1.344521523,2.286114693
9.74,-1.443734765,2.045183182,0.933432281
9.75,-1.94084096,3.730217934,0.401731104
9.76,-1.937660694,3.730745316,0.371524215
9.77,-2.572298527,4.553144455,1.126024723
9.78,-2.621919632,4.250667572,1.943302512
9.79,-2.606531143,4.252037048,1.927360058
9.8,-1.816248655,3.120313644,0.829190433
9.81,-1.136835814,1.293538094,-0.237781405
9.82,0.454897195,-2.222127914,-0.671165884
9.83,1.296365023,-3.787068367,-0.697306514
9.84,1.865724087,-5.019643307,-0.500135422
9.85,1.828844786,-5.021719456,-0.510968149
9.86,2.053874016,-6.589606285,0.257710695
9.87,2.016870022,-6.591417313,0.247945517
9.88,1.124384284,-6.619412422,0.481637716
9.89,1.086524844,-6.621191978,0.480900168
9.9,0.585316241,-6.345245838,-0.286388546
9.91,0.550035477,-6.346782207,-0.280456454
9.92,0.254797041,-5.723216534,-0.590842009
9.93,0.19073841,-5.465858459,-0.612598121
9.94,0.163448423,-5.466875076,-0.602923095
9.95,-0.142025054,-5.24505043,-0.68612349
9.96,-0.869579494,-4.604042053,-0.904185236
9.97,-1.091941476,-4.137729645,-1.071077228
9.98,-1.260467052,-3.446286678,-1.348219633
9.99,-1.280094266,-2.618287086,-1.562761784
10,-1.621819615,-1.560261726,-1.522692204
10.01,-1.599002361,-1.560113907,-1.479046464
10.02,-1.379396558,0.451581955,-0.002581641
10.03,-1.819028735,1.21621418,-0.656936824
10.04,-1.799154758,1.988506317,-1.406643391
10.05,-1.697452545,2.61752224,-1.408311367
10.06,-1.596311331,3.237129211,-1.079147458
10.07,-1.335570693,3.703413963,-1.097248673
10.08,-1.021526098,3.999347687,-0.434321225
10.09,-1.308994055,3.935507774,-0.163460493
10.1,-2.322428226,3.727552414,-0.71144259
10.11,-3.786229372,3.43104744,-1.629601479
10.12,-4.545645237,3.49433136,-2.160039425
10.13,-4.514085293,3.496352196,-2.144646645
10.14,-0.820905566,5.182121277,0.105577394
10.15,1.586158276,5.752161026,0.737060607
10.16,1.588519096,5.754469872,0.791834593
10.17,3.620345116,5.94786644,3.072075844
10.18,3.563925505,5.518280983,4.280590534
10.19,3.551907063,5.519136429,4.308982849
10.2,2.691369057,2.916796684,4.373773098
10.21,2.825973749,1.254085541,2.381486416
10.22,1.948116779,0.18632412,0.262396962
10.23,0.488150597,0.028776169,-0.79409188
10.24,0.479075253,0.027043343,-0.820076406
10.25,-0.156588793,0.296097755,-0.788010359
10.26,-0.017713577,0.819149971,-0.598347068
10.27,0.409472764,1.553066254,-0.277748287
10.28,0.422648192,2.119242668,0.616441906
10.29,0.642865002,2.208704948,1.600821614
10.3,1.055406451,1.215719223,2.55782938
10.31,0.148152769,0.198864937,1.955058455
10.32,-0.49374488,-0.738467217,0.999607921
10.33,-0.745721817,-2.127765656,0.172739059
10.34,-0.9113096,-3.200479031,-0.180306792
10.35,-1.082523346,-4.004565239,-0.32597211
10.36,-0.917073131,-4.817800522,-0.204847813
10.37,-0.889810205,-4.816670418,-0.231387004
10.38,-0.153036594,-5.739426136,0.297774911
10.39,-0.00673002,-5.77101469,0.529419005
10.4,-0.088180721,-5.581868649,0.4449628
10.41,-0.132897139,-5.447359562,0.242858917
10.42,0.171758354,-5.22884798,-0.104837582
10.43,0.21180737,-5.225853443,-0.124407366
10.44,0.718498051,-4.612484932,-0.144806787
10.45,0.743935287,-4.610131264,-0.175240025
10.46,1.162257671,-4.430830002,-0.936147988
10.47,1.142847657,-3.887618065,-1.114908099
10.48,1.184186935,-3.215242386,-0.610346854
10.49,1.193789601,-3.213558197,-0.645297647
10.5,1.251863003,-2.506234169,-0.809143186
10.51,1.290619969,-0.578663826,-0.717426658
10.52,1.171149015,0.105921745,-0.443810999
10.53,0.87587595,0.766390801,-0.212094039
10.54,0.412481159,1.254522324,-0.292671382
10.55,0.363950759,1.50092411,-0.562056899
10.56,0.359275013,1.500377655,-0.557455361
10.57,-0.103151619,2.2296381,-1.418034792
10.58,-0.322751463,2.870125771,-1.593404531
10.59,-0.333098054,2.868877411,-1.579665899
10.6,-0.908037245,3.813493729,-1.532333136
10.61,-0.80224371,3.731102943,-1.499490857
10.62,-0.840146422,3.208654404,-1.22811079
10.63,-1.08785069,2.830472946,-0.965333939
10.64,-1.039669514,3.472824097,0.090392619
10.65,0.010929048,4.338086128,1.310083151
10.66,0.68998766,4.587779999,1.439283371
10.67,0.808570027,4.600514412,1.337048054
10.68,0.29105407,4.206977844,2.42078495
10.69,-0.392980158,3.057357788,3.712719679
10.7,-0.456226051,1.567777634,4.492712975
10.71,-0.230928004,0.305049896,5.17394352
10.72,0.14616406,-0.352770805,4.969239712
10.73,0.277516484,-0.448897362,4.392009258
10.74,-0.338972986,0.215251923,3.516858101
10.75,-0.686533451,1.16885376,1.969486237
10.76,-1.181290865,2.543704987,0.533848286
10.77,-1.631319046,4.012206078,-0.102537654
10.78,-2.571801901,5.278335571,-0.006865576
10.79,-4.37100172,6.650810242,0.827946723
10.8,-4.445185661,6.328901291,1.511731267
10.81,-3.047051907,4.529144287,1.600357056
10.82,-3.053749561,4.528430939,1.610108376
10.83,-1.42168653,2.408475876,0.87539345
10.84,-0.261273444,-1.557854652,-0.161219776
10.85,0.393926978,-2.787861824,-0.560163498
10.86,1.174118638,-3.994389534,-0.417990893
10.87,2.024491549,-4.818203449,0.51079464
10.88,1.977918506,-5.467345238,0.683207572
10.89,1.621566415,-5.979815006,0.480351985
10.9,1.590319395,-5.981985569,0.483777762
10.91,1.389690876,-6.201954842,0.684718251
10.92,0.861607671,-5.990673542,0.030559868
10.93,0.559327841,-5.884562016,-0.360962778
10.94,0.447937131,-5.761544704,-0.203981549
10.95,0.569966376,-5.66240406,-0.173647225
10.96,0.479842871,-5.319019794,-0.327883929
10.97,0.190712065,-4.879766464,-0.528851569
10.98,-0.067422092,-4.631961823,-0.806409717
10.99,-0.342222601,-4.161399841,-1.15869987
11,-0.760182262,-3.518341064,-1.392958283
11.01,-1.01083982,-2.886998177,-1.652478933
11.02,-1.37108469,-2.07806921,-1.586884856
11.03,-1.386371017,-1.189513206,-1.159452438
11.04,-1.47451961,-0.460906982,-0.687849343
11.05,-1.530044794,0.239514351,-0.480823398
11.06,-1.589111924,0.89511776,-0.694862247
11.07,-1.574291706,1.338603973,-0.970481932
11.08,-1.401258945,1.641465187,-1.073298097
11.09,-1.238284588,2.203328133,-1.069311619
11.1,-1.042773008,2.645560265,-0.916067123
11.11,-0.992449641,2.963006973,-0.579508841
11.12,-0.972790062,2.966159821,-0.542499304
11.13,-1.976047039,2.757461548,-0.94380033
11.14,-2.749282837,2.476446152,-1.474780321
11.15,-3.514487982,2.408636093,-1.756559134
11.16,-2.786824942,3.141564369,-1.074059963
11.17,-1.222768784,4.112462997,-0.745297074
11.18,1.045905471,5.07502079,-0.279954314
11.19,3.010329723,5.862483025,1.025999546
11.2,4.2249403,6.592123985,2.874505281
11.21,4.161346912,6.610737801,3.843513966
11.22,4.16276741,6.614542007,3.887217999
11.23,2.15281415,4.388803482,3.868505001
11.24,1.660820723,2.92001152,2.336294413
11.25,1.29447782,1.213784218,0.488491267
11.26,1.269179583,1.209656715,0.463616699
11.27,1.483864307,0.036074638,-0.557743371
11.28,0.928019404,0.330393791,-0.506401002
11.29,1.188752532,1.226294518,0.113358676
11.3,1.53644681,2.132134438,1.438793898
11.31,1.045893908,2.770120621,2.110741138
11.32,0.464243889,2.951454163,1.514649987
11.33,0.45373261,2.949120522,1.488750339
11.34,0.066479415,2.283574104,1.345313191
11.35,-0.654574812,-0.560815811,0.286168367
11.36,-0.494458079,-2.40182066,-0.154332399
11.37,-0.485678613,-3.447823524,0.023192763
11.38,-0.241965234,-4.641925812,0.302241564
11.39,-0.16716063,-5.399699211,0.411059976
11.4,-0.148481906,-5.39979744,0.3842628
11.41,-0.07734108,-5.952222824,0.467970252
11.42,0.122939646,-6.310143471,0.362032443
11.43,0.253121883,-6.459280014,0.3584387
11.44,0.335302204,-6.411795616,0.51973021
11.45,0.458154798,-6.076905251,0.705809832
11.46,1.234130263,-5.241660595,0.254676402
11.47,1.540361047,-4.825526237,-0.012628585
11.48,1.360421777,-4.359190941,-0.303816229
11.49,1.037278175,-3.813881397,-0.544386149
11.5,0.923671961,-3.283141613,-0.719321013
11.51,1.096104741,-2.750443459,-1.098540902
11.52,0.992885053,-2.125365734,-1.244110942
11.53,0.99105978,-2.12569952,-1.252604365
11.54,0.966188729,-0.653912544,-0.637350857
11.55,0.650279343,0.113898277,-0.095264465
11.56,0.322107196,0.704982758,-0.02734898
11.57,-0.102328599,1.162434578,-0.523521066
11.58,-0.373048782,1.452632904,-1.589688778
11.59,-0.368543863,1.453233719,-1.580353618
11.6,-0.715503335,2.114535332,-1.910987139
11.61,-0.765495896,2.734872818,-1.255439162
11.62,-0.808330119,3.362074852,-1.382220507
11.63,-0.749755442,3.56319046,-1.688623786
11.64,-0.74970305,3.563270569,-1.685528874
11.65,-1.213225007,3.35052681,-1.700780034
11.66,-1.446550131,3.698512077,-0.504816651
11.67,-1.435533285,3.699619293,-0.500940859
11.68,-0.452109754,5.290411949,0.618461847
11.69,-0.062512338,5.397175789,0.081013799
11.7,-0.138234139,5.085502625,0.499376655
11.71,-0.214347005,4.27889061,2.118189335
11.72,-0.030687392,2.871776581,4.196298122
11.73,-0.011140943,2.874515533,4.218677521
11.74,0.369556546,0.086857796,4.520601273
11.75,0.363601685,0.086303711,4.522698402
11.76,1.676820755,-0.704142571,4.890269279
11.77,0.572536469,0.082478523,3.554376841
11.78,0.547210217,0.079240799,3.530423403
11.79,-0.260031164,1.366529465,2.096757889
11.8,-1.016855478,2.709352493,0.805231035
11.81,-3.749099731,5.020187378,0.694582343
11.82,-5.017897606,5.351695061,1.279524684
11.83,-5.021808147,5.350866318,1.253790617
11.84,-3.915341854,4.39191246,1.232896805
11.85,-1.690275431,1.23501873,0.210554913
11.86,-1.694373012,1.234524727,0.200197369
11.87,-0.678613305,-1.078542709,-0.420865774
11.88,-0.683454931,-1.078983307,-0.422704101
11.89,-0.005303323,-2.202920437,-0.109075017
11.9,0.848533869,-3.437950611,0.157906115
11.91,2.035245657,-5.276863098,0.411287129
11.92,2.176312923,-5.921258926,0.588424981
11.93,2.056092262,-6.333454132,0.383355081
11.94,1.4862113,-6.482091427,0.468939602
11.95,1.303173304,-6.450888634,0.305807203
11.96,0.857970357,-6.455383301,0.003537122
11.97,0.578867436,-6.38517046,-0.031960495
11.98,0.169160426,-6.173213959,-0.232693374
11.99,-0.00764215,-5.982398987,-0.566558778
12,-0.000243485,-5.688381672,-0.76118505
12.01,-0.013492703,-5.68873167,-0.735263467
12.02,-0.55591774,-4.666499138,-1.058330894
12.03,-0.565115213,-4.666466713,-1.031552076
12.04,-1.341604471,-3.102788925,-1.687697768
12.05,-1.517885685,-1.914400101,-1.785771608
12.06,-1.394628763,-0.8685112,-1.759494543
12.07,-1.242410421,0.276042938,-1.214030504
12.08,-1.292562604,1.382433891,-0.438741356
12.09,-1.488944054,2.21827507,-0.214458704
12.1,-1.755455971,2.956108093,-0.80216074
12.11,-1.977120161,3.55537796,-1.4759233
12.12,-1.742952824,3.90571785,-1.793435574
12.13,-1.183451176,4.042251587,-1.618581295
12.14,-0.704515815,4.108654976,-0.315974295
12.15,-0.71135509,4.109519005,-0.297321856
12.16,-2.273701906,3.533255577,-1.183943391
12.17,-2.271983147,3.53467083,-1.165348172
12.18,-3.641483307,1.963701248,-2.25002265
12.19,-3.617828369,1.966464996,-2.231958866
12.2,-2.352671623,2.408878326,-0.996173024
12.21,0.252807319,3.686161995,-0.00740099
12.22,0.27126205,3.69246006,0.050809979
12.23,3.387629032,4.706664085,1.465134501
12.24,3.835005045,4.966486931,3.039282322
12.25,3.426427603,4.779767036,3.774323225
12.26,2.291332722,4.08385849,3.675479412
12.27,1.868422031,2.380339622,3.075402737
12.28,2.050563574,0.885475159,1.61508131
12.29,1.845093966,-0.203795433,0.398110747
12.3,1.527288437,-0.767140389,-0.376595974
12.31,1.178579807,-0.354798317,-0.52771914
12.32,1.412567616,0.452489853,-0.307968497
12.33,2.141517162,1.115854263,0.23058027
12.34,2.20340085,2.317503929,1.109822392
12.35,2.18172431,2.312285423,1.066491365
12.36,0.68193984,4.28518486,1.66958189
12.37,-1.170632124,4.774163246,1.7989856
12.38,-1.642406344,3.116006851,1.66253078
12.39,-1.311569929,1.288005829,1.281134129
12.4,-1.381859541,-1.090295792,0.617367327
12.41,-1.118990541,-3.118227959,0.119314075
12.42,-0.914663553,-4.453309536,-0.239006698
12.43,-0.736139417,-5.495569706,-0.451769054
12.44,-0.619928658,-6.281141758,-0.268393874
12.45,-0.409148634,-6.681023598,0.240000695
12.46,-0.098135293,-6.757545471,0.46609512
12.47,-0.067049801,-6.757252693,0.435534358
12.48,0.326025277,-6.215579987,0.405512542
12.49,0.693152964,-5.783842087,0.177777574
12.5,0.741771221,-5.36406374,0.0614191
12.51,0.773271501,-4.958518505,-0.004120111
12.52,0.943387628,-4.662966728,-0.24724856
12.53,1.36330235,-4.317222595,-0.569856405
12.54,1.425169826,-3.834987164,-0.649824917
12.55,1.095500231,-3.156441212,-0.616360545
12.56,1.074818611,-2.473240376,-0.559623897
12.57,1.213772416,-1.699550629,-0.277874261
12.58,1.211145282,-0.947777748,0.093305469
12.59,0.803434432,-0.497854233,-0.48129499
12.6,0.478032261,0.043195724,-0.686342657
12.61,0.477148801,0.043024063,-0.692908704
12.62,-0.059084415,1.084266663,-1.765939236
12.63,-0.230827034,1.82613945,-2.077804089
12.64,-0.435809791,2.670773506,-1.511275053
12.65,-0.445607126,2.669893265,-1.516051054
12.66,-0.39271456,4.009593964,-0.773170829
12.67,-0.404297054,4.008528709,-0.782907605
12.68,-0.436913073,3.425922394,-1.436630249
12.69,-0.80985409,3.092938423,-1.448913455
12.7,-1.161476851,3.474245071,-0.204502061
12.71,-0.439269245,4.622537613,1.32284677
12.72,0.125085652,5.184111595,1.267602682
12.73,0.52506429,5.116272926,1.081201434
12.74,0.402169198,4.462309837,2.493245125
12.75,0.084773362,3.512125969,3.50595355
12.76,-0.281335294,2.555214882,4.27665472
12.77,-0.404893637,1.379680634,5.001489639
12.78,-0.288510501,0.2840662,4.93201828
12.79,0.071720719,0.12789917,4.838576317
12.8,0.061103046,0.126254082,4.80738163
12.81,-0.363949239,0.572152138,4.174001217
12.82,-1.30920887,1.521492004,2.607218742
12.83,-2.557564735,3.7790308,0.534842074
12.84,-2.549395084,3.779750824,0.528629959
12.85,-3.849794626,5.627510071,1.157984734
12.86,-3.219429731,5.493179321,1.504883766
12.87,-1.996166825,4.37184906,1.618887544
12.88,-1.994800091,4.371931076,1.61157012
12.89,0.009472907,1.139145851,0.714352727
12.9,-0.002501369,1.137900352,0.706390083
12.91,0.868260264,-1.485595703,0.593343556
12.92,1.287237406,-2.414542675,0.234318152
12.93,1.448139668,-3.298316956,-0.030983388
12.94,1.301061869,-3.961843967,0.08366856
12.95,1.091270447,-4.512789249,0.120849431
12.96,0.828095615,-4.97508955,0.197039262
12.97,0.741970182,-5.300838947,-0.058537945
12.98,0.710631251,-5.30327177,-0.05059918
12.99,0.759426057,-5.897094727,-0.428039789
13,0.728035152,-5.89928627,-0.411487669
13.01,0.849585593,-6.037691116,0.620932698
13.02,0.582970142,-6.166259289,-0.09546902
13.03,0.239648432,-6.035769939,-0.620365143
13.04,-0.081253111,-5.837930202,-0.616369367
13.05,-0.004032552,-5.510764122,-0.643446088
13.06,-0.432527602,-4.946508884,-1.246669531
13.07,-0.629177511,-4.161778927,-1.429266453
13.08,-0.860308886,-3.379268646,-1.357482791
13.09,-1.184548378,-2.459887505,-1.529223084
13.1,-1.175772429,-1.436610222,-1.521525621
13.11,-1.165738821,-0.467668533,-1.170261145
13.12,-1.019769788,0.501619339,-0.54500705
13.13,-0.850138426,1.267601013,-0.406112731
13.14,-1.331677437,2.084220886,-0.694191575
13.15,-1.530268192,2.686252594,-1.142020702
13.16,-1.457649708,3.161566734,-1.328468084
13.17,-0.980018258,3.583786011,-0.833999276
13.18,-0.973570108,3.585926056,-0.803649187
13.19,-0.817745507,3.680368423,-0.364251852
13.2,-2.569831848,3.120548248,-1.312254667
13.21,-2.566744089,3.121105194,-1.306539297
13.22,-4.241919994,2.65581131,-2.202255487
13.23,-3.181637049,3.532993317,-0.902635872
13.24,-1.091473699,4.835225105,-0.805612326
13.25,0.984946132,5.300233841,-0.790077508
13.26,2.369612217,5.254802704,0.725318551
13.27,3.016969204,4.791262627,3.05804491
13.28,3.295905113,4.229140282,3.980194092
13.29,2.726186752,2.869529724,3.692782879
13.3,2.536141157,1.604734421,2.898472786
13.31,2.094693661,0.603818893,1.8935076
13.32,2.077827454,0.601861954,1.885411501
13.33,1.803492069,-0.186271668,0.204945803
13.34,1.449223518,0.432935715,-0.068482339
13.35,1.353855848,1.435408592,-0.02202493
13.36,1.215174437,2.553014755,0.477059305
13.37,0.972039461,3.428931236,1.113143206
13.38,1.193631649,3.86423111,1.5157516
13.39,1.092954278,4.091137886,1.402484417
13.4,0.819495738,3.48972702,1.116867542
13.41,0.59560442,2.406942368,0.647054195
13.42,-0.133584023,0.933821678,0.078517854
13.43,-0.545053959,-0.393122673,0.167638332
13.44,-0.543795228,-1.648169518,0.539164722
13.45,-0.507434011,-2.806920052,0.113688201
13.46,-0.501243293,-2.808414459,0.080083877
13.47,-0.509706378,-3.92735815,-0.340532988
13.48,-0.609601736,-4.619660378,-0.051002055
13.49,-0.712026417,-5.119912148,0.150004685
13.5,-0.386512756,-5.629281521,0.259415269
13.51,0.721904635,-6.013980865,1.024204373
13.52,1.003692508,-5.96256876,1.108746767
13.53,0.819161236,-5.84367466,0.854249716
13.54,0.852936089,-5.841669083,0.839555979
13.55,0.770390034,-5.595088959,0.407528639
13.56,0.648119628,-4.903112888,-0.573564887
13.57,0.885109663,-4.591943264,-0.811186671
13.58,0.910861194,-4.590035915,-0.822839379
13.59,0.965131164,-4.152780533,-0.685394466
13.6,0.867313206,-2.873194695,-0.720201373
13.61,0.59240222,-2.019981384,-0.76678443
13.62,0.55546236,-1.377776146,-0.990290761
13.63,0.408047795,-0.635190964,-0.685183406
13.64,0.485559702,0.009205818,-0.361299276
13.65,0.378402829,0.533893585,-0.425916344
13.66,0.114330053,1.001338005,-1.037327766
13.67,-0.277818322,1.631893158,-1.417263389
13.68,-0.509073556,2.367877007,-1.346866131
13.69,-0.683180213,3.142114639,-1.155749202
13.7,-0.783970177,3.844361305,-1.17759335
13.71,-0.972040892,4.014930725,-1.206176519
13.72,-0.926359713,3.606191635,-1.66719532
13.73,-0.915503085,3.607573509,-1.65838635
13.74,-1.205085397,3.040136337,-1.911133885
13.75,-1.492529988,2.784866333,-1.389149189
13.76,-0.151022792,4.67748642,0.922153652
13.77,0.342151821,5.200166702,0.647187054
13.78,0.621058226,5.296589851,0.71764338
13.79,0.40299803,4.957280159,1.907200098
13.8,0.425641835,4.960611343,1.922896385
13.81,-0.167778015,4.197997093,3.17784977
13.82,-0.363121748,1.320824623,3.391223907
13.83,-0.269397259,-0.370280266,3.084081411
13.84,0.614356995,-1.660243988,3.156965494
13.85,0.59005332,-1.664375305,3.132157803
13.86,-0.129027844,-1.247848511,2.98373127
13.87,-0.792837143,-0.136869431,2.921868324
13.88,-1.391104937,0.952960014,1.432826519
13.89,-1.825889349,2.266341209,0.866707206
13.9,-2.131209135,3.324510574,1.623110056
13.91,-2.141446352,3.322822571,1.604224443
13.92,-2.791254997,4.152773857,1.745880842
13.93,-2.793256283,4.152270317,1.736087799
13.94,-1.988936186,3.449837685,1.14627707
13.95,-0.870406508,1.396421432,0.230161667
13.96,-0.64164567,0.338260651,0.174973398
13.97,-0.219777644,-0.440431595,0.228049427
13.98,0.191480041,-1.22688961,0.308867812
13.99,0.429953218,-1.980190277,0.367580622
14,0.646501958,-2.620989799,0.462029398
14.01,0.826184034,-3.103535175,0.426826686
14.02,0.789013445,-3.456419945,0.264667809
14.03,0.671607673,-3.851810455,0.139938518
14.04,0.489750207,-4.064655304,0.306288362
14.05,0.463476598,-4.066270828,0.316742063
14.06,0.185319841,-4.675548553,-0.282137513
14.07,0.139834732,-4.860431671,-0.330869407
14.08,0.125024885,-4.860674858,-0.301166475
14.09,0.262646049,-5.148025036,-0.311775923
14.1,-0.041636348,-5.121534348,-0.377013832
14.11,-0.276075482,-5.065972805,-0.813531041
14.12,-0.390270531,-4.945336819,-1.205222845
14.13,-0.834404826,-4.733226299,-1.377572536
14.14,-1.078457355,-4.367179394,-1.59802866
14.15,-1.058365703,-3.851631641,-1.523394585
14.16,-1.042803288,-3.167336941,-0.962887883
14.17,-0.72617358,-2.460479259,-0.48799634
14.18,-0.286750674,-1.477636337,-0.233726025
14.19,0.007836342,-0.540429115,-0.148182273
14.2,0.113644004,0.168887138,-0.234726608
14.21,0.201628983,0.786529541,-0.371829808
14.22,0.202102363,0.790302277,-0.330352485
14.23,-0.132351697,2.107722282,-0.743728042
14.24,-0.344494283,2.717486382,-0.357004345
14.25,-1.100348473,3.235308647,-0.012326419
14.26,-2.219147205,3.251962662,-0.475935817
14.27,-3.347588062,2.720253944,-1.33118391
14.28,-4.152637005,1.906826019,-2.050972939
14.29,-3.705333233,2.41686058,-1.794797897
14.3,-1.891552567,3.65772438,-0.131907105
14.31,0.878655016,4.904597282,0.195215464
14.32,2.734950781,5.531745911,0.116371393
14.33,3.420903444,6.218158722,1.787489653
14.34,3.479203224,6.689745903,3.661512136
14.35,2.5940938,6.191720009,4.764513016
14.36,1.480178595,4.368196487,4.02512455
14.37,1.118754864,2.21750164,3.026937485
14.38,0.937317729,-0.027113914,1.451754928
14.39,1.004844546,-1.413147926,0.794887126
14.4,1.582330823,-1.467115402,0.390348852
14.41,1.984786987,-0.266644478,0.347935736
14.42,2.413252592,1.637878418,0.516866207
14.43,2.275751114,3.6525774,0.659645319
14.44,2.719063759,5.270041466,1.218016148
14.45,1.087557793,7.232039452,2.623021126
14.46,-1.56364727,8.028393745,4.03960228
14.47,-1.649588585,5.813264847,4.227082253
14.48,-0.226866961,2.854570389,2.752243996
14.49,-0.355964065,-0.010886192,0.647144735
14.5,-0.238302529,-1.874514103,-0.632598341
14.51,-0.240520477,-1.87687254,-0.664743424
14.52,-0.163958073,-4.060222149,-0.154858232
14.53,-0.006436765,-4.294214725,0.18302989
14.54,0.291071147,-4.240437508,0.480583251
14.55,0.261128336,-4.054465294,0.568694413
14.56,-0.303816557,-3.844057083,1.019486904
14.57,-0.277313292,-3.683465958,1.083323956
14.58,-0.158689201,-3.561115742,0.613983393
14.59,0.101963282,-3.493783474,0.380357236
14.6,0.335942626,-3.448077679,0.153900415
14.61,0.351981759,-3.447888851,0.131964803
14.62,0.508397937,-3.493080616,0.05061996
14.63,0.43606925,-3.415822983,-0.001017421
14.64,0.451211453,-3.415031433,-0.009476244
14.65,0.867050886,-3.205945492,0.193021923
14.66,1.086815119,-2.975395203,0.53087759
14.67,1.33067596,-2.728210926,1.05580914
14.68,1.233861446,-2.383114815,1.207417965
14.69,1.181567669,-2.018813133,1.134495258
14.7,1.184039593,-2.018654823,1.133802772
14.71,0.686944246,-1.034482002,0.124987215
14.72,0.528381586,-0.253858566,-0.486863911
14.73,0.423724294,0.588489533,-0.353314728
14.74,0.413559079,0.587604523,-0.356146008
14.75,0.08593899,2.326957703,-0.326869577
14.76,-0.041037381,2.704092026,-0.650564253
14.77,-0.171044648,2.777084351,-0.54683733
14.78,-0.024480641,2.555499077,-0.442011416
14.79,0.072811365,2.432441711,-0.307292491
14.8,0.067558527,2.432161331,-0.305006981
14.81,0.377865225,2.746147156,0.095624357
14.82,0.380119056,2.747071266,0.118229777
14.83,-0.039444149,2.829727173,0.410406649
14.84,-0.117589772,2.744532585,1.27744174
14.85,0.020713806,2.587152481,1.920349717
14.86,0.362457067,2.257052422,1.892726898
14.87,0.36643368,1.81404686,1.362756252
14.88,0.362878859,1.813777924,1.361884356
14.89,-0.257166624,1.317446709,1.212292552
14.9,-0.438706279,0.27722168,1.63002038
14.91,-0.288277745,-0.157593727,1.825770974
14.92,-0.297794223,-0.159154892,1.799409866
14.93,-0.210182428,-0.230054855,1.550266743
14.94,-0.034537673,0.343212128,1.900811672
14.95,-0.191074491,0.677406311,2.213645458
14.96,-0.196445704,0.6766119,2.196281433
14.97,-0.527650714,1.150067329,2.086645365
14.98,-0.610451579,1.051490784,1.66037941
14.99,-0.654171407,0.909892082,1.436769485
15,-0.625938833,0.607914925,1.212914586
15.01,-0.488421798,0.260356903,1.084571362
15.02,-0.63871783,-0.087210655,1.163118958
15.03,-0.61410141,-0.086799622,1.057537794
15.04,-0.680407941,-0.487493515,1.04696393
15.05,-0.316348672,-1.227567673,0.534397185
15.06,-0.06081146,-1.352185249,0.556778014
15.07,-0.050464153,-1.34996891,0.492929339
15.08,0.075193226,-1.484292984,0.599049985
15.09,0.529737055,-1.312274933,0.974585414
15.1,0.47440052,-1.252797127,1.006861687
15.11,0.250720114,-1.068857193,0.510943592
15.12,-0.011445642,-0.949809074,0.106253684
15.13,-0.529519618,-0.752124786,-0.561128616
15.14,-1.127265573,-0.633833885,-0.978307426
15.15,-1.290939927,-0.479745865,-1.137999535
15.16,-1.277097583,-0.478609085,-1.139683723
15.17,-0.626554132,-0.139536858,0.642649531
15.18,-0.606247842,-0.137505531,0.635025621
15.19,-0.27074033,0.065818787,1.041343927
15.2,-0.398650885,-0.008309364,0.852711499
15.21,-0.299111784,-0.340344429,1.299014568
15.22,0.009819329,-0.66201973,1.192511201
15.23,0.119868159,-0.830308914,0.701386273
15.24,0.221754134,-0.845569611,0.352611959
15.25,0.23044014,-0.844297409,0.345841765
15.26,0.202615976,-0.606230736,-0.078962624
15.27,0.09630543,-0.320420265,-0.411940098
15.28,-0.358939529,0.092335701,-0.572625637
15.29,-0.706869483,0.8951931,-0.372301877
15.3,-0.707048118,0.895772934,-0.380490124
15.31,-1.174107194,1.260094643,-0.413334072
15.32,-1.565788507,1.308107376,-0.753843546
15.33,-1.13559866,0.410006523,-1.16968441
15.34,-0.846998155,0.033740044,-0.82939744
15.35,-0.6519835,-0.26835537,-0.448392212
15.36,-0.392597675,-0.493934631,-0.34966144
15.37,-0.391572118,-0.494693756,-0.33660689
15.38,-0.393712163,-0.507476807,-0.3141478
15.39,-0.567781687,-0.433940888,-0.119961023
15.4,-0.567339957,-0.434700966,-0.106874645
15.41,-0.600628614,-0.445131302,-0.274335235
15.42,-0.319608152,-0.522730827,-0.355961323
15.43,-0.19126755,-0.478268623,-0.590408623
15.44,-0.232025862,-0.429113388,-0.46373567
15.45,-0.170150101,-0.51399231,-0.355239242
15.46,-0.175726295,-0.515111923,-0.344219297
15.47,-0.642317593,-0.485099793,-0.906138301
15.48,-0.646138787,-0.486092567,-0.893635035
15.49,-0.577889681,-0.478888512,-0.842144251
15.5,-0.523477554,-0.301617622,-0.568376601
15.51,0.056704342,0.229657173,-0.487015784
15.52,0.167005837,0.552174568,-0.446749985
15.53,0.300468326,0.896101952,-0.280335039
15.54,0.32386601,1.055591583,-0.155669972
15.55,0.308123887,0.923018456,-0.090900615
15.56,0.221136034,0.6109972,-0.20926328
15.57,0.225929022,0.083600998,-0.234520674
15.58,0.133329749,-0.287978172,-0.229736954
15.59,-0.011508465,-0.587576866,-0.345170379
15.6,-0.012262821,-0.587808609,-0.339754343
15.61,0.039766967,-0.707795143,-0.570060372
15.62,0.390092075,-0.442341805,0.201629371
15.63,0.438997865,-0.308650971,-0.187635094
15.64,0.456726164,-0.213511467,-0.456502914
15.65,0.475917041,-0.120869637,-0.300208569
15.66,0.563349366,0.065095901,-0.267951667
15.67,0.536876202,0.145571709,-0.442951918
15.68,0.528219342,0.144435883,-0.430140406
15.69,0.534941316,0.34889698,0.252745718
15.7,0.567283273,0.388153076,0.180011436
15.71,0.55171907,0.386497498,0.191464558
15.72,0.314826608,0.078313828,-0.344386458
15.73,0.310690165,0.012085915,-0.248004884
15.74,0.244719505,-0.073185921,-0.228674039
15.75,0.182998776,-0.093599319,-0.206460714
15.76,0.091869891,-0.101855278,0.018253416
15.77,0.136728346,-0.164974213,0.049555212
15.78,0.168019891,-0.237620354,-0.021853283
15.79,0.158910215,-0.238393784,-0.018511757
15.8,0.224172652,-0.181667328,0.22094208
15.81,0.187815189,-0.17992878,0.03072156
15.82,0.119015515,-0.16375351,-0.193469554
15.83,0.113753319,-0.164243698,-0.186721087
15.84,-0.071713746,-0.008970261,-0.328276515
15.85,-0.168418825,0.045760155,-0.455847263
15.86,-0.185593188,0.11254406,-0.299514413
15.87,-0.231592238,0.157762528,-0.170357734
15.88,-0.350815952,0.171948433,0.069142967
15.89,-0.350964904,0.171905518,0.07281033
15.9,-0.469607711,0.080936432,-0.454209447
15.91,-0.506161332,0.04509449,-0.433984935
15.92,-0.365707934,0.002075195,-0.362842679
15.93,-0.324826539,-0.053040504,-0.117767081
15.94,-0.210317731,-0.110559464,-0.026641496
15.95,-0.211513579,-0.110684395,-0.021289464
15.96,-0.114973843,-0.187457085,-0.10092859
15.97,-0.066166282,-0.180419922,-0.094429865
15.98,0.011529624,-0.204480171,-0.267096251
15.99,-0.05716604,-0.178299904,-0.331103414
16,0.021718621,-0.113853455,-0.23701936
16.01,0.125401497,-0.085435867,-0.306208253
16.02,0.220310569,0.043417931,-0.516429663
16.03,-0.058823526,0.136343956,-0.54873693
16.04,-0.167474449,0.205542564,-0.456854135
16.05,-0.097829103,0.25090313,-0.394106567
16.06,0.039103568,0.289126396,-0.07875903
16.07,0.041314185,0.066334724,-0.493723989
16.08,0.071119308,-0.084651947,-0.252187461
16.09,0.255521983,-0.132744789,0.051848754
16.1,0.250052601,-0.133039475,0.062389046
16.11,0.073518634,-0.226537705,-0.727256
16.12,0.018107116,-0.176239014,-0.305517674
16.13,-0.05576247,-0.092365265,-0.122781202
16.14,-0.03764677,-0.185614586,-0.150250867
16.15,-0.004381955,-0.305151939,-0.255977005
16.16,-0.00386548,-0.304943085,-0.246608838
16.17,-0.122269929,-0.252046585,-0.244340763
16.18,-0.119558573,-0.141608238,-0.192655623
16.19,-0.05166322,-0.004802704,-0.144425854
16.2,0.047883451,0.103307724,-0.029846251
16.21,0.109321117,0.165905953,0.057642251
16.22,0.109005392,0.195037842,0.009153157
16.23,0.10236299,0.181192398,-0.047501534
16.24,-0.152888298,0.131489754,-0.303245306
16.25,-0.251167059,0.093948364,-0.395389497
16.26,-0.27740556,0.056467056,-0.366927028
16.27,-0.270246565,0.04532814,-0.436684728
16.28,-0.184005439,0.039032936,-0.493524551
16.29,-0.14331311,0.049543381,-0.458136737
16.3,-0.074492097,0.146250725,-0.208941966
16.31,-0.068433106,0.147171021,-0.194481283
16.32,0.033347249,-0.000308037,-0.234124363
16.33,0.088868558,-0.186066628,-0.339298695
16.34,0.121741295,-0.252131462,-0.366991788
16.35,0.172189534,-0.282375336,-0.289637566
16.36,0.306533516,-0.274564743,-0.231155247
16.37,0.327113658,-0.224012375,-0.258575976
16.38,0.393400639,-0.168839455,-0.219543219
16.39,0.292360067,-0.068407059,-0.031752318
16.4,0.283710182,-0.068702698,-0.023294091
16.41,0.200164974,0.03145504,-0.052239209
16.42,0.066135705,0.040634155,-0.002337486
16.43,0.009684145,0.054642677,-0.008349687
16.44,0.002285123,0.054383278,-0.002243698
16.45,-0.085412025,-0.039140701,-0.000403434
16.46,-0.091234982,-0.039147377,0.007660091
16.47,-0.240355432,-0.17317009,-0.280072898
16.48,-0.244597137,-0.172999382,-0.270644546
16.49,-0.307232499,-0.18004036,-0.292802095
16.5,-0.211183012,-0.057770729,0.096198738
16.51,-0.069692135,-0.064882278,0.210643232
16.52,-0.072600722,-0.064827919,0.215482175
16.53,-0.000884831,-0.186812401,0.47695443
16.54,0.064268947,-0.110192299,0.477362573
16.55,-0.190432489,-0.042992592,-0.292164385
16.56,-0.31196481,0.055535316,-0.212015212
16.57,-0.26110965,0.118041992,-0.133753061
16.58,-0.348269522,0.194787026,0.020577312
16.59,-0.38096267,0.1421175,0.070234299
16.6,-0.291090906,0.074995995,0.139810354
16.61,-0.23977983,0.00305748,0.06539312
16.62,-0.240523756,0.003130913,0.06725499
16.63,-0.187269986,-0.082760811,0.009739399
16.64,-0.183765769,-0.111177445,0.081038058
16.65,-0.094555795,-0.142007828,0.071071893
16.66,0.032233179,-0.129777908,0.10432151
16.67,0.098548114,-0.100881577,0.290103048
16.68,0.10989815,-0.014511108,0.262510002
16.69,-0.192365348,1.71661E-05,0.182269871
16.7,-0.097440481,-0.002322197,0.217656702
16.71,-0.008483946,-0.069419861,-0.065936029
16.72,-0.119528949,-0.064679146,-0.062959731
16.73,-0.139064431,-0.038435936,0.084896803
16.74,-0.220103145,-0.017097473,0.052368104
16.75,-0.23090601,-0.036405563,-0.053991854
16.76,-0.231670022,-0.036486626,-0.054580092
16.77,-0.253381014,-0.031775475,-0.005460978
16.78,-0.236534178,-0.031898499,0.121800423
16.79,-0.233174384,0.008734703,0.203275949
16.8,-0.224276364,-0.000843048,0.088864744
16.81,-0.236733079,-0.02475071,0.063228309
16.82,-0.220394075,-0.031902313,0.035155296
16.83,-0.144428372,0.011240959,-0.057084143
16.84,-0.09809196,0.023244858,0.043006837
16.85,-0.097781181,0.023229599,0.042427003
16.86,-0.082814097,0.056761742,0.123170167
16.87,-0.094531596,0.056765556,0.194835752
16.88,-0.098135352,0.054474831,0.204847723
16.89,-0.117923141,0.047478676,0.093478978
16.9,-0.116095781,0.047699928,0.094988048
16.91,-0.145808339,0.047861099,0.093572468
16.92,-0.27622366,-0.004703522,-0.116594136
16.93,-0.274378777,-0.004519463,-0.115701258
16.94,-0.221741974,0.057925224,0.064404011
16.95,0.035192668,0.074641228,0.577505767
16.96,-0.032363653,0.040999413,0.229045928
16.97,-0.032165289,0.041140556,0.23087883
16.98,-0.09416604,-0.152685165,0.366863161
16.99,-0.174381971,-0.092897415,0.23255533
17,-0.102734387,-0.054570198,-0.232017219
17.01,0.018231988,0.058098793,0.01061672
17.02,0.022959948,0.108362198,0.331126511
17.03,-0.042237282,0.089133263,0.297071725
17.04,-0.042402983,0.089148521,0.297710568
17.05,-0.162490726,0.055649757,0.085483432
17.06,-0.213148713,0.00538826,0.093236595
17.07,-0.12000829,-0.075995445,0.031621993
17.08,-0.119733155,-0.075886726,0.03327626
17.09,-0.194837034,-0.006235123,0.192985833
17.1,-0.096136749,-0.020359039,0.301533699
17.11,0.002570271,0.013410568,0.227933049
17.12,0.00532788,0.013831139,0.231655955
17.13,-0.035286605,0.007118225,0.013966918
17.14,0.071330786,-0.011622429,0.045699358
17.15,0.16010356,-0.020834923,0.063221276
17.16,0.075209975,0.01535511,0.080818117
17.17,0.08100915,0.051490784,0.186575711
17.18,-0.042775631,0.061123848,0.215729952
17.19,-0.043897033,0.061159134,0.217718184
17.2,-0.097449839,0.008538246,0.056741953
17.21,-0.098109305,-0.012911797,-0.003273666
17.22,-0.177681983,-0.022359848,-0.007784963
17.23,-0.177491009,-0.022183418,-0.005270898
17.24,-0.134489715,-0.060357094,0.056705058
17.25,-0.117613316,-0.019523621,0.152065456
17.26,-0.124390006,0.0116539,0.240956187
17.27,-0.12347573,0.011651039,0.240015149
17.28,-0.038276553,-0.019441605,0.212531328
17.29,-0.049508154,-0.04336834,0.10680002
17.3,-0.029990613,-0.017012596,0.137660265
17.31,-0.030253291,-0.017036438,0.137583971
17.32,0.045495808,-0.031463623,0.12098676
17.33,0.028106093,0.049860001,0.201802373
17.34,-0.097209394,0.056959152,0.242084533
17.35,-0.071036279,-0.000526428,0.086235106
17.36,-0.100142121,-0.038811684,0.036752582
17.37,-0.261046231,0.013886452,0.073543966
17.38,-0.258785129,0.061814308,-0.062202275
17.39,-0.258938253,0.061903,-0.060668886
17.4,0.037144423,0.061937332,0.577681363
17.41,0.035583973,0.061779022,0.577096343
17.42,-0.018672943,-0.022061348,-0.140107334
17.43,-0.018898964,-0.021748543,-0.13520062
17.44,-0.152505338,-0.086196899,0.020664334
17.45,-0.089241862,-0.095685959,0.066285849
17.46,-0.129528225,-0.095499039,-0.201932788
17.47,-0.098495066,-0.040241241,0.227279246
17.48,-0.032932341,-0.033245087,0.350628346
17.49,0.026365817,0.030961037,0.280145049
17.5,-0.011240423,0.061548233,0.257020474
17.51,-0.103896022,0.06336689,0.302654713
17.52,-0.170768142,0.029397011,0.130562842
17.53,-0.188217819,-0.001930237,0.003737867
17.54,-0.14316088,-0.033075333,0.008641183
17.55,-0.098075032,-0.068914413,0.225760609
17.56,-0.005093217,-0.044885635,0.162939698
17.57,0.015831828,-0.025565147,-0.032605529
17.58,0.060168028,-0.006185532,0.132591128
17.59,0.10644877,-0.022789955,0.194111317
17.6,0.05197221,0.049202919,0.253519326
17.61,-0.007199526,0.051701546,0.278442621
17.62,-0.061048031,0.04216671,0.201390654
17.63,-0.115241587,0.025408745,0.126302779
17.64,-0.142971158,0.008665085,0.072944224
17.65,-0.144130707,0.008722305,0.074713349
17.66,-0.194888592,-0.003206253,0.02329576
17.67,-0.299387991,-0.058167458,0.126964986
17.68,-0.274180651,-0.069990158,0.029864669
17.69,-0.116903901,-0.036225319,0.048595667
17.7,-0.098845899,-0.01201725,0.211577237
17.71,-0.097332776,-0.011775017,0.213432014
17.72,-0.052333951,0.029118538,0.298132986
17.73,-0.092712879,0.062905312,0.194011182
17.74,-0.147011221,0.063221931,0.073343277
17.75,-0.031971633,0.029998779,0.039420486
17.76,-0.029936254,0.030316353,0.04172802
17.77,-0.037851036,-0.065187454,0.240373135
17.78,-0.021807492,-0.040992737,0.161000133
17.79,-0.072954774,0.002400398,0.106125891
17.8,-0.09318012,0.029014587,0.175939381
17.81,-0.061012328,0.017288208,0.113594174
17.82,-0.032009482,-0.020816803,0.018082619
17.83,-0.137543023,-0.027775764,-0.076667786
17.84,-0.340672016,0.020372391,-0.022906005
17.85,-0.163818121,-0.034393311,-0.049567699
17.86,-0.062135816,0.006539345,0.400101721
17.87,0.094096839,-0.000555038,0.336126566
17.88,-0.121402562,-0.065042496,-0.042159855
17.89,-0.206717134,-0.057572365,0.252958179
17.9,-0.205562174,-0.057526588,0.252430081
17.91,-0.057690024,0.045536041,-0.114175439
17.92,-0.046673,0.024376869,-0.110341787
17.93,-0.009622753,0.06782341,0.295795023
17.94,0.005069852,0.063158035,0.393057138
17.95,0.088305295,0.067936897,0.395658255
17.96,0.081848979,0.058131218,0.336791068
17.97,0.015627503,0.067437172,0.257746279
17.98,-0.116782785,0.067171097,0.092317402
17.99,-0.188011646,0.076755524,0.122770846
18,-0.186429977,0.076895714,0.123151362
18.01,-0.119685412,0.067564011,0.251484662
18.02,-0.03152591,-0.039877892,0.215290695
18.03,-0.128974378,-0.051341057,0.245557189
18.04,-0.041507185,-0.081998825,0.056776822
18.05,-0.036499739,-0.079120636,-0.226448417
18.06,-0.051582038,0.00752449,-0.123837173
18.07,-0.050828815,0.0078125,-0.120826781
18.08,0.101678968,0.144335747,0.208592892
18.09,0.000310123,0.161105156,0.305175424
18.1,0.000143647,0.161155701,0.306132019
18.11,-0.09002459,0.070343971,0.274228066
18.12,-0.086623251,-0.041912079,0.135366142
18.13,-0.142651022,-0.139816284,0.084889948
18.14,-0.141525686,-0.139657021,0.085787237
18.15,-0.06411171,-0.139567375,0.11257869
18.16,-0.022967577,-0.058139801,0.174735606
18.17,-0.046242297,-0.024542809,0.084114075
18.18,-0.131859601,-0.005327225,-0.011345267
18.19,-0.071144164,0.047418594,-0.030498207
18.2,-0.045028389,0.071278572,0.079017103
18.21,0.035748184,0.083140373,0.214371204
18.22,0.035174429,0.083034515,0.213580787
18.23,0.01056987,0.071016312,0.333370298
18.24,-0.046515465,0.059131622,0.238489151
18.25,-0.098157346,0.011511803,0.030152023
18.26,-0.065792322,-0.011992455,-0.060950756
18.27,-0.064432502,-0.013855934,0.057081461
18.28,-0.063564003,-0.013466835,0.061403275
18.29,-0.132077694,-0.053853989,0.050268948
18.3,-0.159548342,-0.034321785,0.005838454
18.31,-0.255948186,0.006729126,0.11637491
18.32,-0.083897471,0.057235718,0.359344304
18.33,-0.00650543,-0.028846741,0.443577379
18.34,-0.009042501,-0.165355682,0.249566197
18.35,-0.023858666,-0.253997803,0.265898407
18.36,-0.045480311,-0.129740715,0.301239073
18.37,-0.113694131,-0.058169365,-0.076809287
18.38,-0.097916782,-0.010205269,-0.110762894
18.39,-0.096903443,-0.010057449,-0.109798789
18.4,-0.003723323,0.143162727,0.304666042
18.41,0.021208763,0.186089516,0.346875876
18.42,0.019508958,0.18578434,0.344556004
18.43,-0.041673899,0.149563789,0.356028497
18.44,-0.035516024,0.072710991,0.200720251
18.45,-0.035741746,0.072674751,0.200692117
18.46,-0.023620307,-0.035001755,0.254050434
18.47,0.072856963,-0.099515915,0.384286791
18.48,0.073292673,-0.099409103,0.3853558
18.49,-0.019535542,-0.218846321,0.10338217
18.5,-0.044827402,-0.261559486,0.095420837
18.51,-0.084869921,-0.244456291,0.015296042
18.52,-0.053457201,-0.157938004,-0.10771519
18.53,-0.083087802,-0.023616791,-0.065323055
18.54,-0.098910928,0.074627876,0.176238656
18.55,-0.094064295,0.129652023,0.099009216
18.56,-0.096311927,0.129658699,0.10117799
18.57,-0.167384684,0.148920059,-0.018022358
18.58,-0.201885164,0.120268822,0.048429012
18.59,-0.242783546,0.072439194,0.123468697
18.6,-0.163802385,0.022190094,0.104782641
18.61,-0.168521404,-0.061602592,0.12414968
18.62,-0.034352481,-0.028090477,0.190861702
18.63,-0.034914315,-0.02818203,0.190175414
18.64,0.043042839,-0.016358376,0.182076156
18.65,-0.006128728,0.002626419,0.162155092
18.66,0.053249478,-0.014219284,0.103926599
18.67,-0.026314139,-0.083734512,0.098704159
18.68,-0.036109626,-0.059819222,0.203811646
18.69,0.016296864,-0.095819473,0.19580847
18.7,0.116060793,-0.024132729,0.214064121
18.71,0.114317238,-0.024307251,0.213397503
18.72,0.020205438,0.009152412,0.187087417
18.73,-0.092390835,0.073879242,0.08740139
18.74,-0.204678059,0.074093819,-0.099253654
18.75,-0.26121825,0.050524712,-0.205548823
18.76,-0.259524167,0.050974846,-0.201441944
18.77,-0.176050603,0.072879791,0.112371802
18.78,-0.073716044,0.037226677,0.334253103
18.79,0.025520265,-0.020069122,0.392801017
18.8,0.099628866,-0.077511787,0.627865255
18.81,0.099154532,-0.077667236,0.626242816
18.82,0.108261228,-0.20950985,0.320793867
18.83,0.009072483,-0.204792023,0.086243868
18.84,0.010702074,-0.204709053,0.086020768
18.85,-0.014596462,-0.185448647,0.078958869
18.86,-0.00746429,0.049074173,0.482287794
18.87,-0.025159955,0.072690964,0.342428684
18.88,-0.026667416,0.072247505,0.338598609
18.89,-0.096904099,-0.138798714,0.164794684
18.9,-0.090043783,-0.186994553,0.161184907
18.91,-0.082723737,-0.136917114,0.167959631
18.92,-0.010586381,-0.117884636,0.223709166
18.93,0.020719409,-0.082055092,0.430832267
18.94,0.147319973,-0.029580116,0.481217891
18.95,0.067134082,-0.044226646,0.19841969
18.96,-0.048620105,-0.085124969,0.043649614
18.97,-0.049663126,-0.085249901,0.042948663
18.98,-0.067607164,-0.08540535,0.056378484
18.99,-0.102389336,0.06997776,0.188613713
19,-0.148932576,0.072216034,0.173281908
19.01,-0.197218597,0.079346657,0.091693521
19.02,-0.197260082,0.079429626,0.092639148
19.03,-0.148818135,0.055616379,0.089150965
19.04,-0.140928447,-0.006477356,0.205191135
19.05,-0.065793157,-0.071029663,0.203196883
19.06,-0.029120624,-0.078132629,0.172489584
19.07,0.014592707,-0.044557571,0.201295435
19.08,0.019901931,0.000914574,0.19571811
19.09,0.00850296,-0.003931046,0.189734638
19.1,-0.041369438,0.0055933,0.174152136
19.11,-0.04345566,-0.023170471,0.204765737
19.12,-0.052803218,-0.006422997,0.189825594
19.13,-0.055366218,-0.061476707,0.197531641
19.14,-0.000666738,-0.025571823,0.180899262
19.15,-0.030285656,0.012643814,0.144687951
19.16,-0.004995763,0.038866043,0.06992507
19.17,-0.006416261,0.038763046,0.069975138
19.18,-0.051027894,0.069748878,0.076751351
19.19,-0.088415325,0.072031975,0.143694401
19.2,-0.113737822,0.014444351,0.148148656
19.21,-0.148525953,-0.011990547,0.047560096
19.22,-0.249466658,4.48227E-05,-0.085323691
19.23,-0.248562813,0.064855576,-0.043170393
19.24,-0.046620607,0.072202683,0.19981575
19.25,0.101201117,0.057792664,0.432189941
19.26,0.140100241,-0.02375412,0.587570965
19.27,0.078185976,-0.086205482,0.567722678
19.28,0.07711041,-0.086427689,0.565796137
19.29,-0.160467386,0.011608124,-0.301999629
19.3,-0.189036965,0.071597099,-0.094391227
19.31,-0.064972162,0.076411247,0.286784291
19.32,0.001858354,0.071300507,0.395376027
19.33,-0.056050658,0.070925713,0.311672151
19.34,-0.058110416,0.070584297,0.30920881
19.35,-0.071116149,-0.001456261,0.199670494
19.36,-0.193186641,-0.070933342,0.13439405
19.37,-0.144551635,-0.058877945,0.158756435
19.38,-0.143430591,-0.058656693,0.160535395
19.39,-0.063395083,-0.022492409,0.141257644
19.4,-0.002411008,0.001713753,0.222736895
19.41,0.01748687,-0.005223274,0.002535939
19.42,-0.024505854,-0.055035591,-0.064267397
19.43,-0.068856239,-0.035342216,0.063605189
19.44,-0.003480434,-0.042113304,0.084982812
19.45,0.025506794,-0.001023293,0.072822273
19.46,0.013223827,0.040009499,0.139399171
19.47,-0.095185816,0.059416771,0.200742602
19.48,-0.13663286,0.057250977,0.122728407
19.49,-0.137044549,0.057536125,0.126635611
19.5,-0.213355601,-0.014032364,0.098548234
19.51,-0.21207118,-0.013739586,0.100888848
19.52,-0.112036169,-0.020616531,0.162785351
19.53,-0.172092676,-0.044269562,0.229058564
19.54,-0.15707165,-0.031998634,0.24207294
19.55,-0.115913153,-0.027009964,0.244421125
19.56,-0.110792637,-0.046013832,0.200591743
19.57,-0.064902723,-0.021915436,0.226474524
19.58,-0.057436407,-0.002636909,0.201474607
19.59,0.009804606,0.050169945,0.210495651
19.6,0.009747148,0.067085266,0.224360764
19.61,-0.004583061,0.06728363,0.174348176
19.62,-0.026406825,0.012433052,0.137000501
19.63,-0.039046347,-0.025606155,0.191371322
19.64,-0.008658648,-0.008550644,0.188550413
19.65,-0.081625879,0.075532913,0.231520116
19.66,-0.113382697,0.068590164,0.165830493
19.67,-0.186275542,-0.00052166,0.039027631
19.68,-0.28967005,-0.052759171,-0.206329405
19.69,-0.282570779,-0.033086777,-0.163999021
19.7,-0.117786288,-0.020718575,0.186005771
19.71,-0.11711514,-0.020602226,0.186892986
19.72,0.056637824,-0.039813995,0.314016223
19.73,0.072442949,-0.168925285,0.400711
19.74,0.061745226,-0.202430725,0.447446466
19.75,-0.084875882,-0.12109375,0.004132867
19.76,-0.234942734,0.006017685,-0.154282093
19.77,-0.075544119,0.08057785,0.17868346
19.78,0.030819237,0.149949074,0.351552784
19.79,-0.043615878,0.156896591,0.411005348
19.8,-0.082577944,0.079853058,0.317773044
19.81,-0.145654738,0.036244392,0.288372099
19.82,-0.129016757,-0.038481712,0.179152548
19.83,-0.130847216,-0.038874626,0.17607379
19.84,-0.202723801,-0.01993084,0.197750032
19.85,-0.166334748,-0.02720356,0.203380942
19.86,-0.057446003,0.008712769,0.343596578
19.87,-0.056242168,0.008771896,0.34310472
19.88,-0.023670256,-0.000552177,0.028899908
19.89,0.085603714,-0.045583725,0.059258521
19.9,0.115098894,-0.004364014,0.114988804
19.91,0.165281117,-0.008685112,0.144547522
19.92,0.059015751,0.020425797,0.161892593
19.93,0.033786595,0.037494659,0.08745259
19.94,-0.061648607,0.018577576,0.070457101
19.95,-0.085862517,0.033038139,0.057169795
19.96,-0.12681973,-0.033934593,0.103367567
19.97,-0.140630066,-0.060183525,0.137060762
19.98,-0.120594561,-0.112734795,0.041499972
19.99,-0.076502442,-0.081481934,0.08723253
20,-0.130668044,-0.031170845,0.194216609
20.01,-0.126614928,0.023888588,0.326441526
20.02,-0.103348374,0.052560806,0.232884586
20.03,-0.10398829,0.052540779,0.233195841
20.04,-0.073100567,0.059837341,0.110195994
20.05,-0.039630592,0.074293137,0.130335152
20.06,-0.039383113,0.074316025,0.130625904
20.07,-0.070405424,0.057579994,0.207221031
20.08,-0.00826329,0.064785957,0.250811338
20.09,0.02482003,0.055204391,0.188881934
20.1,-0.009498894,0.081598282,0.194805145
20.11,-0.076897144,0.084067345,0.253595471
20.12,-0.095805287,0.081770897,0.129946649
20.13,-0.09792906,-0.030572891,0.035867274
20.14,-0.116623819,-0.066218376,0.110366643
20.15,-0.161250532,-0.025279045,-0.098344028
20.16,-0.243730307,0.01336956,-0.07637018
20.17,-0.242312849,0.013642311,-0.074576139
20.18,-0.1150527,-0.007784843,0.261570275
20.19,0.12372303,-0.06291008,0.125183165
20.2,-0.022784948,-0.100881577,0.023953855
20.21,-0.048953474,-0.184346199,0.434519291
20.22,0.0875839,-0.115006447,0.404598862
20.23,0.087213159,-0.115112305,0.403673679
20.24,-0.063719392,0.033407211,0.110122621
20.25,-0.016719043,0.081166267,0.195680976
20.26,-0.095558286,0.083236694,0.196224868
20.27,-0.098466277,0.082837105,0.194138944
20.28,-0.130226731,0.077530861,0.282012165
20.29,-0.067873836,0.038730621,0.192035258
20.3,-0.069483876,0.038365364,0.18934089
20.31,-0.05757463,-0.004876137,0.178209662
20.32,-0.033148587,0.035862923,0.14460367
20.33,-0.070507288,0.009672165,0.351454496
20.34,-0.008842111,-0.033176422,0.233042359
20.35,-0.031132519,-0.023241997,-0.001483321
20.36,-0.00076443,-0.001255035,0.181765795
20.37,0.057669461,-0.020116806,0.205735683
20.38,0.093816519,-0.003112793,0.237076163
20.39,0.062351823,0.011444092,0.248958826
20.4,-0.002911389,0.018718719,0.243394852
20.41,-0.049237907,-0.024390221,0.064221263
20.42,-0.09808296,-0.081877708,-0.021457076
20.43,-0.091753781,-0.06036377,-0.00200671
20.44,-0.195338011,-0.029307365,0.198813319
20.45,-0.243195474,-0.065390587,0.388532519
20.46,-0.149175048,-0.041584015,0.219053209
20.47,-0.153072357,-0.046339035,0.132310987
20.48,-0.168855965,-0.053458214,0.084476709
20.49,-0.122292876,-0.039034843,0.093759537
20.5,-0.094981194,-0.012708664,0.085658431
20.51,-0.07298696,0.008765221,0.161067069
20.52,-0.077501535,0.082897186,0.188570321
20.53,0.016258419,0.085212708,0.187370062
20.54,-0.02931124,0.082772255,0.119845986
20.55,-0.029164255,0.082843781,0.120733082
20.56,-0.055089891,0.049394608,0.17623508
20.57,-0.173878074,-0.003183365,0.195512712
20.58,-0.09599781,0.006471634,0.200358748
20.59,0.007731497,0.05928421,0.158117056
20.6,0.007924736,0.05949688,0.160198629
20.61,-0.116461098,-0.026486397,0.100189805
20.62,-0.115609467,-0.026302338,0.101532042
20.63,-0.253410757,-0.047710419,-0.180309117
20.64,-0.235307157,-0.021257401,0.083053529
20.65,0.017358601,-0.011714935,0.39785707
20.66,0.13745755,-0.021373749,0.504509389
20.67,-0.013665736,-0.030963898,0.092724144
20.68,-0.022966206,-0.059458733,0.097476661
20.69,-0.022396445,-0.059352875,0.098059893
20.7,-0.100307703,-0.073782921,0.221001446
20.71,-0.094418943,0.002770424,0.006302714
20.72,-0.036460698,0.021864891,0.065250397
20.73,-0.022670329,0.083917618,0.151916206
20.74,-0.024737179,0.083491325,0.148961425
20.75,-0.082092285,0.147642136,0.195792615
20.76,-0.201521277,0.096873283,0.230304837
20.77,-0.176097035,0.077342033,0.21721065
20.78,-0.176412642,0.077045441,0.214125454
20.79,-0.079982936,-0.018883705,0.230901003
20.8,-0.078729987,-0.018834114,0.230598867
20.81,-0.098647058,-0.052091599,0.236822009
20.82,-0.094604433,-0.075710297,-0.057686806
20.83,-0.105134964,-0.020166397,-0.115856469
20.84,-0.104229271,-0.019712448,-0.111576974
20.85,-0.077662945,0.083519936,0.099719524
20.86,-0.077800035,0.083766937,0.102501035
20.87,-0.051621377,0.084074974,0.129876792
20.88,-0.11654979,0.108332634,0.002036691
20.89,-0.11641413,0.108757019,0.006519914
20.9,-0.154039502,0.092515945,0.054766357
20.91,-0.100374699,0.061944008,0.134227037
20.92,-0.048880577,-0.026060104,0.175391436
20.93,-0.033432841,-0.109309197,0.21146816
20.94,0.008491814,-0.120812416,0.11015141
20.95,0.026068032,-0.149100304,0.087811589
20.96,0.026519418,-0.148880005,0.089793026
20.97,0.035937667,-0.01721859,0.206943631
20.98,0.030528903,0.011366844,0.143705666
20.99,-0.008646309,0.087830544,0.133207679
21,-0.00971204,0.087652206,0.132181287
21.01,0.022720039,0.087519646,0.172295868
21.02,0.021032929,0.087369919,0.172115386
21.03,0.069261432,0.087182999,0.234057963
21.04,0.129391074,0.03911972,0.272033393
21.05,0.12741667,0.038981438,0.272233129
21.06,0.108354747,-0.001854897,0.291711092
21.07,0.106057882,-0.001994133,0.291969657
21.08,0.136932194,-0.018922806,0.18695581
21.09,0.002756,-0.059780121,0.156110942
21.1,-0.166693807,-0.074230194,-0.058975518
21.11,-0.167228043,-0.074193954,-0.057939529
21.12,-0.228729129,0.062241554,0.338409603
21.13,-0.101015687,0.042978287,0.255198598
21.14,-0.017011642,-0.026498795,0.335982204
21.15,0.018597782,-0.076889992,0.15546447
21.16,-0.003627121,-0.081767082,0.303510547
21.17,-0.003805399,-0.082026482,0.300884843
21.18,0.020183384,-0.068030357,0.325725079
21.19,0.087024629,-0.027459145,0.061082363
21.2,0.064615786,-0.010850906,0.160733402
21.21,-0.041688025,0.082240105,0.392933309
21.22,-0.119733453,0.084142685,0.393491685
21.23,-0.12121594,0.0834589,0.387403607
21.24,-0.091746151,-0.012966156,0.132502914
21.25,-0.140692711,-0.061191559,0.139222264
21.26,-0.152900636,-0.082852364,0.15008378
21.27,-0.121233642,-0.082751274,0.098141372
21.28,-0.019732118,-0.046545982,0.22011441
21.29,-0.01877296,-0.04629612,0.222259283
21.3,0.080776632,-0.050733566,0.291945517
21.31,0.12042135,0.016699791,0.156323195
21.32,0.00214529,0.0314188,0.149473131
21.33,-0.018578589,0.019734383,0.073044837
21.34,-0.018220901,0.020032883,0.075988948
21.35,-0.11439544,0.111260414,0.09799403
21.36,-0.205998659,0.085089684,0.162407219
21.37,-0.261069238,0.082867622,0.145262301
21.38,-0.202960253,0.028045654,0.097079754
21.39,-0.16337353,-0.057860374,0.089642882
21.4,-0.092253506,-0.095844269,0.118046999
21.41,-0.090446591,-0.095550537,0.119730294
21.42,-0.060140729,-0.138408661,0.123420298
21.43,-0.053613544,-0.140647888,0.1954813
21.44,-0.047297776,-0.071130753,0.250344157
21.45,0.020716131,-0.092588425,0.236086607
21.46,0.019304752,-0.085395813,0.254545212
21.47,0.019791543,-0.085468292,0.253426254
21.48,0.034118772,-0.087988853,0.165988207
21.49,0.047699094,-0.085748672,0.069112122
21.5,-0.056490719,-0.040390968,0.116617918
21.51,-0.05753845,-0.040534019,0.115848124
21.52,-0.077746212,0.052660942,0.208194137
21.53,-0.078652978,0.052474976,0.206883431
21.54,-0.084026933,0.090685844,0.101029992
21.55,-0.084110975,0.09079361,0.102156103
21.56,-0.152600348,0.086221695,0.086921155
21.57,-0.25914532,0.026639938,0.036415517
21.58,-0.257234812,0.027010918,0.038765669
21.59,-0.133288324,-0.044532776,0.050042987
21.6,0.030182421,-0.087431908,0.171155274
21.61,0.063028753,-0.092215538,0.195694685
21.62,0.169262946,-0.058830261,0.557047963
21.63,0.166962802,-0.059242249,0.554394841
21.64,0.136152983,-0.059808731,0.609867334
21.65,0.015405476,0.002013206,0.156114996
21.66,-0.009083748,-0.017266274,-0.055668354
21.67,0.00911355,0.0019207,0.050834954
21.68,-0.048269153,0.085586548,0.326665878
21.69,-0.046543241,0.092412949,0.320233941
21.7,-0.069054365,0.063182831,0.303223133
21.71,-0.133504629,-0.052119255,0.291288614
21.72,-0.065145135,-0.097946167,0.120993793
21.73,-0.065933049,-0.098111153,0.119754791
21.74,-0.094956875,-0.11972332,0.042747557
21.75,0.062973559,-0.146159172,0.163769841
21.76,0.107715011,-0.100747109,0.237887442
21.77,0.094552994,-0.084061623,0.154133439
21.78,0.00451839,-0.088909149,-0.029826224
21.79,-0.023380756,-0.052991867,0.129472077
21.8,0.006038189,0.011514664,0.18676126
21.81,-0.025050163,0.05437851,0.078293085
21.82,-0.082337976,0.082957268,0.078297377
21.83,-0.160807669,0.082818985,0.080800116
21.84,-0.20271492,0.082782745,-0.002600968
21.85,-0.183796525,0.082829475,0.0148803
21.86,-0.183680058,0.082838058,0.014874637
21.87,-0.146979332,0.00387001,0.189457059
21.88,-0.145622373,0.003975868,0.189747155
21.89,-0.129627526,-0.022247314,0.177600503
21.9,-0.053918183,-0.050923347,0.215331316
21.91,-0.029015303,-0.043783188,0.170994282
21.92,-0.050029814,-0.041496277,0.176599324
21.93,-0.049664915,-0.041682243,0.174480498
21.94,-0.052058518,-0.058579445,0.168160081
21.95,-0.03071475,0.001209259,0.107593477
21.96,0.002377987,-0.020430565,0.123774946
21.97,0.001668692,-0.020559311,0.122957408
21.98,-0.013492405,0.010453224,0.172491014
21.99,-0.000483394,0.041360855,0.202429771
22,-0.023379505,0.081863403,0.265857279
22.01,-0.034047902,0.081583977,0.342678249
22.02,-0.059137344,0.100400925,0.237053335
22.03,-0.060276866,0.06428051,0.094224036
22.04,-0.061125457,0.064231873,0.094407678
22.05,-0.209890664,-0.052999496,-0.158191383
22.06,-0.273947716,-0.062449455,-0.011212766
22.07,-0.18433547,-0.038369179,0.063746512
22.08,-0.183917224,-0.038266182,0.064488947
22.09,0.03018707,-0.016735077,0.26418215
22.1,0.059776247,-0.07427597,0.6139009
22.11,0.030216873,-0.060126305,0.509350479
22.12,-0.031595886,0.006697655,0.092583716
22.13,-0.109730482,0.042583466,-0.121665478
22.14,-0.119867265,0.080818176,0.067079604
22.15,-0.05515486,0.116472244,0.33425355
22.16,-0.137609005,0.096955299,0.390266329
22.17,-0.190880835,0.07971859,0.305835307
22.18,-0.204500079,-0.004515648,0.096419871
22.19,-0.183465898,-0.033405304,-0.005389333
22.2,-0.163738847,-0.050011635,0.13940078
22.21,-0.133845389,-0.001832008,0.232805371
22.22,-0.047939539,-0.008658409,0.273511827
22.23,0.05238086,-0.001099586,0.287908673
22.24,0.092429042,-0.003120422,0.216527343
22.25,0.093524039,0.059549332,0.162765086
22.26,0.096290588,0.023935318,0.228150189
22.27,0.095900893,0.024166107,0.230921328
22.28,0.063903093,0.017223358,0.195851922
22.29,-0.013478458,0.031801224,0.15561378
22.3,-0.083988786,-0.008792877,0.138531864
22.31,-0.104983509,-0.078324318,0.241678894
22.32,-0.092650652,-0.078551292,0.188108087
22.33,-0.113343775,-0.069127083,0.142095745
22.34,-0.114099979,-0.069170952,0.142238736
22.35,-0.240939736,-0.016431808,0.17645663
22.36,-0.162983239,-0.021097183,0.1792292
22.37,-0.140076995,-0.006645203,0.274849415
22.38,-0.05501765,-0.004288673,0.275730848
22.39,-0.061022222,0.012341499,0.211272895
22.4,-0.038328767,0.031399727,0.197480321
22.41,-0.02529943,0.048051834,0.185948074
22.42,-0.120387554,0.074336052,0.199005783
22.43,-0.110200703,0.045639992,0.196609438
22.44,-0.075901091,-0.002114296,0.125568509
22.45,-0.060799181,-0.03541851,0.144134641
22.46,-0.117686629,-0.056721687,0.220571756
22.47,-0.061299682,-0.027749062,0.18406868
22.48,-0.059922397,-0.02743721,0.186250508
22.49,-0.03941381,-0.008044243,0.214204192
22.5,-0.040231764,0.018543243,0.189435303
22.51,-0.038735688,0.018876076,0.191828907
22.52,-0.009038329,-0.043036461,0.11087662
22.53,-0.230438769,0.060346603,-0.187179387
22.54,-0.2291224,0.06064415,-0.185021043
22.55,-0.04226923,0.106221199,0.529286504
22.56,0.18366003,0.084441185,0.64296329
22.57,0.11147058,-0.040355682,0.215626419
22.58,0.108529389,-0.040486336,0.216549993
22.59,0.122339129,-0.143924713,0.457835466
22.6,-0.108512998,-0.082087517,-0.182727039
22.61,-0.207087874,-0.005678177,-0.045853376
22.62,-0.207413495,-0.005926132,-0.048293591
22.63,-0.031726062,0.079862595,0.307694793
22.64,-0.041404784,0.081899643,0.365528941
22.65,-0.065101206,0.081540108,0.391907215
22.66,-0.066162109,0.081254005,0.38970983
22.67,-0.056647122,-0.00019455,0.156962693
22.68,-0.063067734,-0.00724411,0.174645364
22.69,0.005212367,-0.016592979,0.051793933
22.7,0.087485373,-0.023356438,0.144040585
22.71,0.087133944,-0.023136139,0.146861911
22.72,0.170021713,0.00574398,0.295059681
22.73,0.097362995,0.046693802,0.212066829
22.74,0.026914895,0.001521111,0.091873407
22.75,0.107121766,-0.036444664,0.144340396
22.76,0.117098093,-0.016975403,0.16342479
22.77,0.081131279,0.045409203,0.118785381
22.78,-0.002765894,0.028739929,0.138326824
22.79,0.030855,0.052759171,0.143123925
22.8,-0.055809021,-0.007119179,0.094701171
22.81,-0.058071733,-0.007052422,0.096922755
22.82,-0.196076155,-0.05484581,0.101300538
22.83,-0.124850571,-0.109830856,0.102563918
22.84,-0.154059112,-0.0834198,0.096532583
22.85,-0.113397479,0.024352074,0.238057852
22.86,-0.127729118,0.041034698,0.287616313
22.87,-0.115078211,0.072039604,0.199752867
22.88,-0.120856822,0.064808846,0.124094665
22.89,-0.145303071,0.024147987,0.089559197
22.9,-0.154936254,0.033795357,0.141377032
22.91,-0.152180374,0.033880234,0.140200794
22.92,-0.063086391,0.06027317,0.22494179
22.93,-0.060182452,0.060418129,0.224236727
22.94,-0.014657676,0.027143478,0.158023059
22.95,-0.012194216,0.027384758,0.158804119
22.96,0.038220942,-0.051457405,0.216235042
22.97,0.039789915,-0.051363945,0.216205835
22.98,0.031385958,-0.075203896,0.13488847
22.99,0.046383798,-0.036937714,0.150821984
23,-0.005768716,-0.01791954,0.053049803
23.01,-0.228048623,0.010650635,-0.113990009
23.02,-0.178677857,0.075188637,0.080107152
23.03,-0.021911323,0.022266388,0.481299281
23.04,0.076390147,0.045805931,0.65650177
23.05,-0.041424513,-0.028792381,-0.02707094
23.06,-0.139455676,-0.050147057,0.12571162
23.07,-0.138633251,-0.050118446,0.125414133
23.08,-0.055997908,-0.071742058,0.173862577
23.09,-0.136110127,-0.018967628,-0.084523082
23.1,-0.12025857,-0.00196743,0.070181251
23.11,-0.120040536,-0.002063751,0.069034398
23.12,-0.065658987,0.040822029,0.229967594
23.13,-0.088387012,0.006960869,0.311004996
23.14,-0.072235584,-0.010201454,0.244907796
23.15,-0.180206358,-0.056074142,0.118837237
23.16,-0.179312646,-0.056195259,0.116892576
23.17,-0.140105248,0.003673553,0.070856512
23.18,-0.110139012,0.058738709,0.237424791
23.19,-0.017863333,0.029942513,0.298136115
23.2,-0.016865551,0.029893875,0.296750903
23.21,0.026922166,0.073064804,-0.007035553
23.22,-0.028202116,0.032511711,0.09515959
23.23,-0.054697812,0.05406189,0.188682675
23.24,-0.055592597,0.054006577,0.188702762
23.25,0.002756655,0.053935051,0.141270518
23.26,-0.082732379,0.082624435,0.194762766
23.27,-0.083856165,0.082592964,0.195271194
23.28,-0.166011989,0.060980797,0.144834936
23.29,-0.163944304,0.020238876,0.099363267
23.3,-0.192520976,-0.070631981,0.100252509
23.31,-0.191995621,-0.070500374,0.16359818
23.32,-0.133042991,-0.046401978,0.185742378
23.33,-0.13138628,-0.046236992,0.186183035
23.34,-0.136431396,-0.05085659,0.179302514
23.35,-0.065225124,-0.005232811,0.177010357
23.36,-0.063543916,-0.005076408,0.177255034
23.37,-0.123982132,-0.026496887,0.060080886
23.38,-0.100981772,0.002404213,0.065579236
23.39,-0.050494313,-0.009523392,0.068143368
23.4,-0.084227502,2.67029E-05,0.135095537
23.41,-0.022335708,0.064658165,0.120793521
23.42,-0.032367826,0.079018593,0.180867493
23.43,-0.003931582,0.083771706,0.224028289
23.44,-0.037618756,0.083812714,0.16703105
23.45,-0.047059357,0.057707787,0.097601831
23.46,-0.065951109,0.029261589,0.148402691
23.47,-0.075338662,0.01275444,0.162960231
23.48,-0.075224996,0.012999535,0.165310562
23.49,-0.094277203,-0.005914688,0.012260377
23.5,-0.168507874,0.035021782,-0.035726488
23.51,-0.120151877,0.059123039,0.226760566
23.52,0.097893715,0.066264153,0.525433064
23.53,0.123229027,0.011003494,0.406833649
23.54,-0.079191625,-0.051322937,-0.019105613
23.55,-0.104057193,-0.077523232,0.160122871
23.56,-0.073646486,-0.01791954,0.311268151
23.57,-0.112189293,0.022520065,-0.014574409
23.58,-0.080698252,0.075251579,-0.011916459
23.59,-0.080410481,0.075289726,-0.011531293
23.6,-0.056831896,0.084745407,0.3081007
23.61,-0.191352129,0.079825401,0.146767974
23.62,-0.172696292,0.046150208,0.152602375
23.63,-0.103683293,0.065062523,0.203121483
23.64,-0.046379864,-0.002202034,0.215260685
23.65,-0.046197772,-0.002257347,0.214266598
23.66,-0.032766998,-0.009333611,0.195305586
23.67,-0.061998725,-0.028162956,0.120542646
23.68,-0.01181078,-0.092382431,0.283989608
23.69,-0.009597957,-0.092019081,0.285945773
23.7,0.06379962,-0.074871063,0.008796692
23.71,0.038640559,-0.004995346,0.050964713
23.72,0.072954178,0.033706665,0.135904968
23.73,0.125019014,0.065069199,0.083714128
23.74,0.037702799,0.096391678,0.053110123
23.75,-0.049901068,0.086981773,0.051078498
23.76,-0.051398635,0.087107658,0.053591371
23.77,-0.11280638,0.087213516,0.048532724
23.78,-0.118808985,0.060992241,0.139235079
23.79,-0.114545167,-0.005935669,0.200686455
23.8,-0.131159842,-0.082388878,0.276402772
23.81,-0.130101144,-0.115697861,0.225330353
23.82,-0.09036082,-0.124988556,0.18152678
23.83,-0.091077089,-0.11275959,0.156655848
23.84,-0.074811399,-0.095791817,0.10704571
23.85,-0.128110647,-0.043016434,0.037391067
23.86,-0.193189502,0.038559914,0.068745792
23.87,-0.22897023,0.033922195,0.035056114
23.88,-0.154025495,0.029401779,0.066503286
23.89,-0.088765085,0.046387672,0.152792573
23.9,-0.054556012,0.001122475,0.238975704
23.91,-0.051344514,0.00137043,0.23910296
23.92,0.042524278,-0.046169281,0.218749166
23.93,-0.030880392,-0.064946175,0.241776943
23.94,-0.064140618,-0.11009407,0.125920415
23.95,-0.062233746,-0.10987854,0.126604855
23.96,-0.028004706,-0.083477974,0.069343269
23.97,-0.044907272,-0.097885132,0.023516834
23.98,-0.160203219,-0.06213665,-0.15020901
23.99,-0.23454833,0.033465385,0.07320416
24,-0.176791132,0.052276611,0.270634413
24.01,-0.107809007,0.035219193,0.172136903
24.02,-0.077145815,0.001537323,0.211451829
24.03,-0.096686065,-0.044068336,0.1865744
24.04,-0.149264157,-0.070509911,0.173540771
24.05,-0.14530009,-0.005893707,0.167145908
24.06,-0.175690234,0.022909164,-0.088284492
24.07,-0.11297363,0.023218155,-0.022643924
24.08,-0.099368095,0.088171959,0.086969435
24.09,-0.038909495,0.09311676,0.284348369
24.1,-0.06349045,0.095364571,0.335966766
24.11,-0.121891856,0.090298653,0.274115443
24.12,-0.181339502,0.013576508,0.117024005
24.13,-0.191872299,-0.094099045,0.028021812
24.14,-0.134947479,-0.168130875,0.028468966
24.15,-0.090227902,-0.196695328,0.131976843
24.16,-0.052976251,-0.196632385,0.169924438
24.17,-0.051808417,-0.196533203,0.169948518
24.18,0.006382525,-0.139016151,0.177104175
24.19,-0.071838379,-0.143681526,0.029295921
24.2,-0.071128488,-0.143568039,0.029838681
24.21,-0.07104212,-0.050161362,0.006177068
24.22,-0.110205948,0.045529366,0.092407763
24.23,-0.111364663,0.045385361,0.091728449
24.24,-0.248567939,0.093118668,0.045167804
24.25,-0.327903152,0.071554184,-0.052961946
24.26,-0.336581886,-0.016951561,-0.040645123
24.27,-0.344391763,-0.019218445,0.00471735
24.28,-0.348846316,-0.088506699,0.037457287
24.29,-0.309141219,-0.119405747,0.003285468
24.3,-0.235570669,-0.128665924,0.010369837
24.31,-0.126080692,-0.154697418,0.091691792
24.32,-0.120148301,-0.161657333,0.047921777
24.33,-0.18665731,-0.192615509,0.001795828
24.34,-0.167086959,-0.194882393,0.01739341
24.35,-0.158304513,-0.190192223,0.022254527
24.36,-0.109839141,-0.152115822,0.055271208
24.37,-0.08404249,-0.135792732,0.046523035
24.38,-0.047451258,-0.078875542,0.022954345
24.39,-0.050026655,-0.079509735,0.018444896
24.4,-0.220131517,-0.077717781,-0.005060613
24.41,-0.260394633,-0.08787632,-0.007221103
24.42,-0.268836081,-0.062019348,-0.118963599
24.43,-0.310190499,-0.057559967,-0.19625169
24.44,-0.283907414,-0.086450577,-0.255411804
24.45,-0.25942868,-0.139194489,-0.249367178
24.46,-0.383146107,-0.148723602,-0.338084996
24.47,-0.380866051,-0.148463249,-0.337326944
24.48,-0.546450377,-0.100070953,-0.42165482
24.49,-0.414026678,-0.104170799,-0.31374836
24.5,-0.234402299,-0.208896637,-0.150751472
24.51,-0.231642008,-0.208565712,-0.14958781
24.52,-0.101282299,-0.335552216,0.157368779
24.53,-0.10026902,-0.335715294,0.154610992
24.54,-0.351614118,-0.388443947,-0.319624245
24.55,-0.379564107,-0.35959053,-0.452864826
24.56,-0.299603045,-0.275499344,-0.265953362
24.57,-0.297915816,-0.275357246,-0.265874624
24.58,-0.360507369,-0.108057022,0.083125293
24.59,-0.487572908,-0.137153626,-0.052443802
24.6,-0.545895457,-0.149366379,-0.190541625
24.61,-0.509068191,-0.23324585,-0.256543279
24.62,-0.509153068,-0.278559685,-0.227853358
24.63,-0.503362238,-0.278279305,-0.230074763
24.64,-0.334486544,-0.242030144,-0.294313371
24.65,-0.280784011,-0.19139576,-0.156956077
24.66,-0.259137213,-0.100193977,0.008517861
24.67,-0.336148083,-0.133556366,-0.219041765
24.68,-0.330691576,-0.133131027,-0.219515681
24.69,-0.600179017,-0.345458031,-0.412946761
24.7,-0.560810685,-0.452133179,-0.487931967
24.71,-0.520478189,-0.50346756,-0.357582033
24.72,-0.511033773,-0.499689102,-0.217766523
24.73,-0.379782617,-0.445782661,-0.256386578
24.74,-0.308401763,-0.401742935,-0.305563688
24.75,-0.301685035,-0.401034355,-0.304689825
24.76,-0.185154975,-0.43666935,-0.260260463
24.77,-0.092545211,-0.523041725,-0.122633278
24.78,-0.093203068,-0.523773193,-0.129970849
24.79,0.014014959,-0.867471695,0.032909513
24.8,0.008283854,-0.869429588,0.016671419
24.81,0.027532876,-1.161340714,-0.123526752
24.82,-0.013890445,-1.649806976,-0.352049649
24.83,-0.0217188,-1.65231514,-0.374181271
24.84,0.27123034,-1.919909954,-0.53183496
24.85,0.70954895,-1.65162468,-0.502459705
24.86,0.958112359,-1.067436218,-0.275845349
24.87,1.277970314,-0.322957993,-0.318818212
24.88,1.249456167,-0.327833176,-0.360530734
24.89,1.136456013,0.665741921,-0.797134101
24.9,0.963799596,0.972037315,-1.036627054
24.91,0.680291951,0.976412773,-0.81104362
24.92,0.492071509,0.861188889,-1.019122601
24.93,0.304161489,0.624286652,-1.521428347
24.94,0.115278751,0.363974571,-1.895546436
24.95,-0.226025134,0.0754776,-2.226875305
24.96,-0.520678461,-0.25064373,-2.314047098
24.97,-0.62942344,-0.521064758,-2.084596872
24.98,-0.672627091,-0.79577446,-1.613186479
24.99,-0.482268989,-1.101248741,-1.424729943
25,-0.502523661,-1.102297783,-1.453236222
25.01,-0.278613985,-1.735157967,-1.384179592
25.02,-0.290626794,-1.735754967,-1.415430784
25.03,-0.414161474,-1.712157249,-0.505591393
25.04,0.111769795,-2.059546471,-1.091927528
25.05,0.410842836,-2.191337585,-0.896182597
25.06,0.510640264,-2.145857811,-0.392730773
25.07,0.493937224,-2.145676613,-0.441548944
25.08,0.996095657,-1.989550114,-0.836862803
25.09,0.964371026,-1.988667011,-0.900308192
25.1,0.928444028,-1.405313492,-0.936474443
25.11,0.885773301,-1.40294075,-1.01202631
25.12,0.263039976,-0.990203857,-1.053127289
25.13,0.055548504,-0.871032715,-1.413761973
25.14,0.045892939,-0.679060936,-1.478669167
25.15,-0.051439676,-0.519547463,-1.38355422
25.16,-0.110178873,-0.512313843,-1.464468837
25.17,-0.016714692,-0.181224823,-1.629464865
25.18,0.039964944,0.042588234,-1.28937757
25.19,-0.015461475,0.051375389,-1.35799551
25.2,-0.184434712,0.292272568,-1.059749961
25.21,-0.285085946,0.81320858,-0.918006063
25.22,-0.317776501,0.821528435,-0.974104524
25.23,-0.954779148,1.349162102,-1.083361387
25.24,-0.969984531,1.356739998,-1.134508967
25.25,-0.84714973,1.701231956,-1.935169697
25.26,-0.645840526,2.026833534,-1.655380368
25.27,-0.470720172,2.31059742,-1.183618546
25.28,-0.005528033,2.442899704,-0.49762404
25.29,0.363524139,2.436233521,-0.25696075
25.3,0.00855577,2.676218987,-0.36098969
25.31,-0.779188931,2.850820541,-0.68953073
25.32,-1.560998797,3.095329285,-0.690530539
25.33,-2.162671804,3.172440529,-0.255347371
25.34,-2.617106438,3.24459362,0.217879295
25.35,-2.586962938,3.260964394,0.135383844
25.36,-2.473973274,3.534655571,0.439054012
25.37,-1.908822775,3.392710686,0.919014454
25.38,-0.815409303,1.934682846,3.337853193
25.39,-0.781004071,1.949487686,3.273061752
25.4,-0.229538739,-1.276767731,4.587222099
25.41,0.192641556,-2.952510357,5.878390312
25.42,0.20260486,-2.924367428,5.774626732
25.43,1.548082113,-3.837415218,6.30145359
25.44,1.380208015,-2.28426981,5.447423935
25.45,1.102050543,0.230888367,4.909310341
25.46,1.042612314,0.283443451,4.762992382
25.47,-2.194741488,5.884059906,4.394364357
25.48,-2.200306892,5.925514221,4.283732414
25.49,-7.838129997,11.46022892,4.100748062
25.5,-7.225000381,12.40508175,4.929579258
25.51,-7.17208004,12.41480923,4.899394035
25.52,-3.521095514,12.29629612,3.163924932
25.53,-3.481526375,12.29257107,3.170193911
25.54,-0.278982729,8.813961983,1.4818151
25.55,-0.259229541,8.809419632,1.492077827
25.56,1.431259871,3.995707512,-0.232789516
25.57,1.90001142,2.629308701,-0.096994638
25.58,2.050894976,0.399568558,0.445943117
25.59,1.540070772,-1.530689716,2.71282196
25.6,1.526146173,-1.540809155,2.739548922
25.61,3.261090517,-3.825890541,3.134619474
25.62,2.349039316,-5.686524868,0.318487406
25.63,2.29812479,-5.718868732,0.411210775
25.64,0.506346881,-9.054493904,-3.857101679
25.65,-0.630833983,-10.20720387,-4.531673431
25.66,-1.337768793,-10.96822929,-4.207833767
25.67,-1.356071949,-11.25166512,-3.216934443
25.68,-0.773901939,-11.54014778,-2.277256012
25.69,-0.14005059,-11.929986,-2.004821777
25.7,-0.183420658,-11.94442463,-1.944160104
25.71,-0.190609038,-12.56257629,-1.498974442
25.72,-0.000960588,-12.98790932,-1.634123802
25.73,0.393535197,-13.03740406,-2.792457819
25.74,0.56012702,-12.44242287,-4.30226326
25.75,0.516818523,-12.43378258,-4.318903446
25.76,-0.10957247,-8.849964142,-5.591461182
25.77,-0.216575801,-5.55159235,-3.662201166
25.78,3.435859442,-0.252166748,0.031751156
25.79,3.444678545,-0.248103142,0.014954329
25.8,9.807020187,9.07064724,3.157606602
25.81,9.692702293,13.136693,5.780249596
25.82,7.334834099,15.67138481,5.643233299
25.83,7.32172823,15.65852356,5.693656445
25.84,0.73154974,16.9986763,3.945080519
25.85,1.771583319,15.06163025,4.506170273
25.86,0.975174367,12.29701328,2.894603968
25.87,0.026686668,9.410867691,3.725918055
25.88,-1.139947891,7.417392731,2.911189318
25.89,-1.063938141,7.414071083,2.901527643
25.9,-2.447094679,5.933626175,-1.008900166
25.91,-2.367384911,5.930304527,-1.0145998
25.92,-2.570017338,4.075217247,0.702363014
25.93,-2.370727539,3.981164932,3.010725021
25.94,-0.719071508,2.429729462,5.212893486
25.95,-0.695187032,2.434661865,5.192245483
25.96,2.975658655,-3.448759556,6.265917778
25.97,0.778799057,-6.761490822,4.463579178
25.98,0.823755801,-6.772503853,4.497755051
25.99,-1.840885997,-9.134259224,0.294843435
26,-4.159712315,-11.90108299,-4.083296776
26.01,-4.121533394,-11.9084568,-4.058294773
26.02,-4.015931606,-13.2423315,-2.326461315
26.03,-3.37817502,-13.50895309,-0.942357779
26.04,-2.922598839,-13.89007187,0.048963308
26.05,-2.947605133,-13.88506603,0.031397104
26.06,-2.588631153,-13.59884071,0.182889938
26.07,-2.607760191,-13.58896446,0.147420406
26.08,-2.456420183,-10.26319408,0.67263341
26.09,-1.5198313,-6.738684654,0.675035
26.1,-0.293334484,-2.681838512,0.873634815
26.11,0.893648982,2.236558914,1.780287743
26.12,0.010597959,7.99465847,1.605755329
26.13,-2.677952528,12.76769829,2.548870802
26.14,-4.161955357,16.09041977,6.561720371
26.15,-4.090760231,16.11105537,6.491012573
26.16,-1.070981026,15.59838772,14.83627796
26.17,-2.659497976,15.22665501,11.30614948
26.18,-4.663193703,15.19547939,4.146354675
26.19,-5.742516994,14.36328888,-0.32655263
26.2,-5.706950188,14.34339046,-0.25759387
26.21,-3.490942955,10.36811638,-1.170596361
26.22,-0.835160613,7.411115646,1.13396883
26.23,0.648377359,5.007954597,2.335017443
26.24,0.882523596,3.178145409,2.260228395
26.25,0.845128238,3.167186737,2.298362255
26.26,1.943933368,-0.663180351,2.480252981
26.27,2.699398518,-2.429250717,3.669735432
26.28,2.646021366,-2.447400093,3.740760803
26.29,2.613607407,-5.939629555,2.491008997
26.3,2.657133818,-8.174485207,0.749644518
26.31,1.994394779,-10.07268429,-0.811501384
26.32,1.936114311,-10.08860779,-0.734767318
26.33,1.177646637,-12.98334885,-3.261120796
26.34,0.974652231,-13.88349724,-3.070132494
26.35,1.3485744,-14.41143417,-2.984724998
26.36,1.281526804,-14.41757679,-2.936387539
26.37,1.670017004,-14.6868763,-2.964097023
26.38,2.010730267,-14.61818123,-2.193615437
26.39,1.240560293,-12.74711704,-1.995405674
26.4,1.170297623,-12.72988987,-2.049686432
26.41,-0.13616699,-9.443441391,-2.605831146
26.42,-0.160978138,-9.431641579,-2.649045229
26.43,1.755455256,-3.778577328,-1.220109224
26.44,2.356284142,-0.520233154,-0.200445652
26.45,4.58772707,2.816329002,1.747505903
26.46,7.379596233,6.017782211,3.337780476
26.47,7.286571026,6.030900955,3.321407795
26.48,7.611384869,14.02845478,3.845142126
26.49,7.554550171,14.03232861,3.857258081
26.5,4.32877636,16.00055313,4.259083748
26.51,2.252305508,17.59815598,6.149939537
26.52,0.24635911,17.91459656,6.350313187
26.53,-1.701662302,16.72306824,3.32475853
26.54,-1.632205963,11.87734318,-0.491932988
26.55,-0.752074242,9.211170197,-0.503967166
26.56,-0.744245529,6.986484528,0.196196556
26.57,0.3540712,4.638998985,1.741892576
26.58,-0.664441109,2.72849369,5.397023201
26.59,-1.125302315,1.438889503,9.606231689
26.6,-1.742708802,-0.494463921,12.88932896
26.61,0.075040281,-3.418525696,9.053403854
26.62,-1.081024408,-6.780285835,4.578983784
26.63,-1.029357076,-6.813113213,4.691557884
26.64,-3.69656539,-12.00330734,-2.696449041
26.65,-4.514645576,-13.47862148,-5.266478062
26.66,-4.436200142,-13.49704361,-5.203783035
26.67,-4.492290497,-14.21383095,-5.171034336
26.68,-3.722674847,-14.12091064,-3.044922829
26.69,-2.771125078,-13.9047699,-0.735259175
26.7,-2.561249733,-13.56300163,1.2767272
26.71,-3.266844511,-13.18624973,0.889482498
26.72,-3.62957263,-12.5971632,-0.078939676
26.73,-3.555896282,-11.35155106,-0.99844408
26.74,-3.54874754,-11.34908676,-1.010472059
26.75,-2.466736317,-7.289744377,-1.057394147
26.76,-1.857257485,-5.247934818,-1.557024121
26.77,-1.484084845,-2.805161476,0.165891171
26.78,-0.757714629,0.039505959,2.765725613
26.79,0.286384523,3.48368454,5.121360779
26.8,1.320057154,8.530601501,7.808704376
26.81,1.395029187,8.53435421,7.785539627
26.82,-2.490706444,13.19263935,4.462994576
26.83,-3.462043524,19.14479446,1.276827335
26.84,0.364103735,19.34574127,11.02856255
26.85,0.331959993,19.3711853,10.91946411
26.86,-2.94472146,17.89482498,7.749224663
26.87,-6.237196445,15.84237957,-1.152185202
26.88,-6.129707813,12.11115074,-4.21038723
26.89,-2.939504862,7.669138908,-2.301355839
26.9,-0.052577231,3.593281746,1.506749392
26.91,-0.087619692,1.405398369,2.59248209
26.92,-0.070739426,-0.563475609,2.162428617
26.93,1.435917735,-3.205478191,2.635614634
26.94,2.78436017,-5.520380974,3.557721615
26.95,3.473484755,-7.457675934,3.215385914
26.96,3.427693367,-7.466034889,3.265561581
26.97,3.080133677,-8.971030235,2.038527012
26.98,2.371805429,-11.29725742,-1.007151127
26.99,2.317267895,-11.30478287,-0.950631678
27,1.295620561,-13.5375042,-2.441529274
27.01,0.502008379,-14.02358532,-3.576523781
27.02,0.566263795,-14.40420151,-4.046012402
27.03,0.526052237,-14.40488243,-4.024735451
27.04,0.613437593,-14.63814259,-3.37726903
27.05,0.430425108,-13.96101284,-2.447221756
27.06,0.358727455,-12.84520149,-3.398330927
27.07,0.380802155,-11.24978256,-5.114681244
27.08,0.156041801,-9.516076088,-5.851819992
27.09,0.116386414,-9.500618935,-5.915606499
27.1,2.706049919,-2.761557102,-2.50474596
27.11,2.662752628,-2.747851849,-2.551567554
27.12,16.15745926,7.515743256,8.679719925
27.13,19.5399971,11.12124348,8.74242115
27.14,13.41545105,15.15538502,5.245524406
27.15,2.070777893,20.80007553,3.39107585
27.16,-5.221184731,23.91397667,5.754100323
27.17,-0.873360634,22.04475021,4.316896915
27.18,2.042833805,17.33675575,0.893733263
27.19,1.483320117,13.46067142,1.333801508
27.2,-0.903282762,12.33628654,3.818197489
27.21,-0.864590049,12.34866905,3.738476992
27.22,-3.533013821,9.481840134,2.908873081
27.23,-2.654377937,5.278326988,4.449076653
27.24,-3.012382507,0.871778488,6.909461975
27.25,-3.753931046,-2.714841366,7.654494286
27.26,-5.188677788,-5.855975151,6.141298294
27.27,-6.048018456,-8.837857246,3.444008589
27.28,-6.90703249,-11.04150963,0.586918831
27.29,-6.082914829,-12.15761757,-3.748198509
27.3,-4.539531231,-12.06853485,-6.83637619
27.31,-4.409171104,-12.08061028,-6.783435822
27.32,-3.604136944,-11.527771,-6.529735088
27.33,-4.085713863,-10.89665127,-4.987725258
27.34,-3.981724977,-10.30069923,1.20473671
27.35,-5.020029068,-11.10175705,3.969573021
27.36,-5.018569469,-11.08580303,3.882036686
27.37,-4.483911514,-11.85967255,2.883312225
27.38,-3.143127203,-13.19723797,-1.55837512
27.39,-2.367811441,-12.8805809,-1.477401733
27.4,-0.205288619,-11.84462643,-1.682747483
27.41,-0.24088046,-11.83553886,-1.724963665
27.42,-0.389555812,-8.399589539,-1.144118667
27.43,-0.919437945,-4.85800457,-0.674150825
27.44,2.598977327,1.40144062,1.782793045
27.45,6.315002918,4.585504532,5.263145447
27.46,7.433372974,9.261659622,5.574949265
27.47,2.874686956,15.65459919,5.6144104
27.48,2.852370739,15.68420601,5.499193192
27.49,-1.627422333,18.7155571,8.321024895
27.5,-5.285271168,21.78289795,13.8103857
27.51,-8.120704651,23.81447983,12.88943672
27.52,-9.479987144,20.21907043,-3.220105886
27.53,-6.193558693,14.96898937,-4.504234791
27.54,-2.827347517,8.928993225,-1.820978045
27.55,-1.095802069,4.880206108,-0.636709333
27.56,0.260645628,1.612023354,-0.753444433
27.57,0.218873352,1.615345001,-0.764710903
27.58,2.86815691,-1.881604671,3.65773654
27.59,4.378275871,-3.148785591,4.457072258
27.6,5.112312794,-4.351502895,4.545192719
27.61,4.401785374,-5.007232189,4.484098911
27.62,2.638358831,-5.754588127,3.576547623
27.63,1.160228252,-7.127978325,1.751475811
27.64,0.483960986,-9.239152908,0.175722122
27.65,0.438658178,-9.251274109,0.231507778
27.66,-0.183777511,-12.77124119,-2.242582083
27.67,-0.252485573,-12.77652168,-2.203297138
27.68,1.618205547,-15.51981735,-3.551608086
27.69,3.430194378,-16.77401161,-2.18928194
27.7,4.493820667,-16.7868824,-2.538370132
27.71,3.138766289,-15.60429573,-3.412019491
27.72,3.025800228,-15.58459854,-3.439433336
27.73,-2.057617188,-10.1674633,-6.365706921
27.74,-2.112644196,-10.15576839,-6.383262634
27.75,-3.680150747,-4.75211668,-7.923814774
27.76,-3.682463169,-4.751819134,-7.923723221
27.77,3.419124126,5.075622559,2.224779844
27.78,8.648122787,8.740511894,6.824057579
27.79,9.80457592,13.29787827,6.286662102
27.8,6.205664635,15.37350368,1.458368301
27.81,6.148957253,15.38154888,1.463545799
27.82,3.367464066,15.91742706,6.087046146
27.83,3.332339525,15.60775948,6.989086151
27.84,3.000015736,14.85827446,6.581803799
27.85,1.04897058,13.97964287,5.341471672
27.86,-1.740297198,13.35886574,4.141505718
27.87,-1.65697062,13.35553646,4.106795311
27.88,-3.208499193,12.08781719,2.324145317
27.89,-2.531406879,6.406611443,0.893288851
27.9,-1.187693357,3.081908226,3.481478691
27.91,-0.608929336,0.184607506,7.573225975
27.92,-0.409480333,-2.509616852,9.567546844
27.93,-0.833168626,-5.645209789,5.61083889
27.94,-2.841723919,-8.499172211,0.12019062
27.95,-4.266324997,-10.48689079,-3.768995523
27.96,-4.055747032,-11.98868656,-5.232313156
27.97,-3.45151186,-12.75935173,-4.827094078
27.98,-3.48771143,-12.98090935,-4.423449516
27.99,-3.447242737,-12.99932766,-4.355391502
28,-5.173425198,-12.1155262,-3.071841002
28.01,-5.732934475,-12.24265957,-0.105927467
28.02,-5.985447884,-12.91238594,3.257804871
28.03,-5.253087044,-12.98182487,3.099251032
28.04,-4.521636009,-13.21366692,0.309989691
28.05,-4.518632889,-13.20541,0.27575016
28.06,-3.85622716,-12.54327202,-2.234749079
28.07,-2.907767773,-9.15501976,-2.469620228
28.08,-2.720605373,-7.110967636,-3.13890934
