Time (s),Linear Acceleration x (m/s^2),Linear Acceleration y (m/s^2),Linear Acceleration z (m/s^2)
0,-0.013238251,0.097253799,0.358363748
0.01,0.114887595,0.096136093,0.677216649
0.02,-0.025000632,0.051700592,0.68233794
0.03,-0.219947577,0.093757629,0.561095119
0.04,-0.257106066,0.107430458,0.197233379
0.05,-0.364892304,0.092931747,-0.075458884
0.06,-0.466513932,0.093281746,-0.123620927
0.07,-0.478009403,0.067663193,-0.171587229
0.08,-0.44532752,0.054279327,-0.167176962
0.09,-0.302536309,0.021838188,-0.25758177
0.1,-0.294880867,0.022845268,-0.254481792
0.11,-0.157002389,0.061828613,0.256331265
0.12,0.051088274,0.093307495,0.329290777
0.13,0.103041828,0.098119736,0.430879712
0.14,0.084845066,0.098115921,0.417547137
0.15,-0.028964818,0.086096764,0.415635318
0.16,-0.046588779,-0.026499748,0.374884218
0.17,-0.044981658,-0.026584625,0.371956796
0.18,-0.076875627,-0.189411163,-0.032480776
0.19,-0.10220468,-0.213349342,-0.062221527
0.2,-0.123405278,-0.146593094,0.189965248
0.21,-0.008554339,-0.049054146,0.357241005
0.22,0.074528039,0.053116798,0.348417193
0.23,0.078748465,0.095525742,0.276016772
0.24,0.019132078,0.10459137,0.195114672
0.25,0.010620296,0.149741173,0.10578388
0.26,-0.045277238,0.104154587,0.174336731
0.27,0.018354297,0.094549179,0.12915653
0.28,0.030991375,0.094658852,0.122372031
0.29,-0.002206683,0.080476761,0.167370737
0.3,-0.004598916,0.066248894,0.181253791
0.31,-0.004944324,0.06634903,0.182881832
0.32,0.025068879,0.059146881,0.155474067
0.33,0.0927338,0.01594162,0.216046989
0.34,0.090063691,0.015557289,0.214566648
0.35,0.069606066,-0.08089447,0.27521193
0.36,0.086675406,-0.170389175,0.391348869
0.37,0.029933035,-0.094723701,0.522925198
0.38,0.05079186,0.019306183,0.388303608
0.39,0.014910579,0.054608345,0.198986948
0.4,0.017863095,0.073493958,0.075576186
0.41,0.015413642,0.073297501,0.076145649
0.42,0.04778558,0.053742409,0.159252048
0.43,0.077496409,0.089045525,0.407402396
0.44,-0.085498869,0.093424797,0.307078779
0.45,-0.167989135,0.088545799,0.144344688
0.46,-0.167581439,0.088703156,0.146026194
0.47,-0.216032207,0.007514,0.216090322
0.48,-0.220050156,-0.066384315,0.340653211
0.49,-0.060585201,-0.116247177,0.216777265
0.5,-0.018784881,-0.132557869,0.136832357
0.51,-0.015805602,-0.132124901,0.138686001
0.52,0.065120995,-0.10306263,0.10974288
0.53,0.09953016,-0.052601814,0.175538063
0.54,0.053751111,0.040822029,0.171701431
0.55,0.053260088,0.040919304,0.173592925
0.56,-0.04344964,0.091322899,0.188435733
0.57,-0.11810267,0.091440201,0.283893794
0.58,-0.125139356,0.086736679,0.234504998
0.59,-0.129382253,-0.039991379,0.121081889
0.6,-0.152285397,-0.08039093,0.063849092
0.61,-0.213336885,-0.048930168,0.042774439
0.62,-0.212448955,-0.094042778,-0.003890395
0.63,-0.154236138,-0.134291649,0.032166958
0.64,-0.154203117,-0.133922577,0.036755741
0.65,-0.080014765,-0.035538673,0.295764923
0.66,-0.079959214,-0.035411835,0.297286868
0.67,-0.024818182,-0.06401062,0.277222931
0.68,-0.062693179,-0.071115494,0.397520781
0.69,-0.006526172,-0.07581234,0.318248898
0.7,0.003853738,-0.078157425,0.267697454
0.71,0.004501402,-0.078079224,0.267911553
0.72,-0.05682385,-0.034856796,0.177340746
0.73,-0.082737386,-0.0035429,0.030718625
0.74,-0.132879794,0.013504982,-0.071398199
0.75,-0.182613969,0.071294785,-0.01757288
0.76,-0.064353764,0.045300484,0.030940175
0.77,-0.064958692,0.045516968,0.034358025
0.78,-0.011422694,-0.055016518,0.391038269
0.79,0.116457999,-0.086274147,0.417345911
0.8,0.115472496,-0.086380959,0.417108029
0.81,-0.044483006,-0.045607567,0.142267823
0.82,-0.043103516,-0.045167923,0.145858228
0.83,-0.026695251,-0.018328667,-0.055823207
0.84,0.095425427,-0.049350739,0.285915792
0.85,0.09115845,-0.049836159,0.284897566
0.86,0.010600805,-0.014669418,0.455361456
0.87,0.00779748,-0.01531601,0.450820774
0.88,-0.249789059,-0.032453537,-0.052449286
0.89,-0.22834456,-0.030184746,-0.092442453
0.9,-0.115947187,0.00569725,-0.047132552
0.91,-0.063918591,0.010489464,0.039730728
0.92,-0.064804733,0.010547638,0.041813791
0.93,0.113290072,0.008241653,0.123545706
0.94,0.112356544,0.008504868,0.127789497
0.95,0.025630176,0.004031181,0.141661048
0.96,-0.082032979,0.035464287,0.202809215
0.97,-0.153410256,0.038183212,0.318649828
0.98,-0.076452971,0.026596069,0.241469145
0.99,-0.037766993,0.031887054,0.113012552
1,-0.155641019,0.063596725,0.132117391
1.01,-0.256655037,0.085771561,-0.063868165
1.02,-0.259379327,0.052923203,-0.046417594
1.03,-0.257549763,0.053580284,-0.040821552
1.04,-0.255935073,-0.063124657,0.045801818
1.05,-0.187031865,-0.069690704,0.112937212
1.06,-0.037551403,-0.136321068,0.066222906
1.07,0.032007992,-0.071358681,0.086430311
1.08,0.034098864,-0.025680542,0.201396883
1.09,0.069718719,0.000748634,0.169338703
1.1,0.076108933,0.019984245,0.235727906
1.11,0.077188909,0.000880241,0.232892036
1.12,0.082742631,-0.068615913,0.068845034
1.13,0.061129391,-0.059080124,-0.000942647
1.14,0.077181518,-0.121377945,-0.100966632
1.15,-0.029662013,-0.095112801,0.026896894
1.16,-0.045145512,-0.131138802,0.043565154
1.17,-0.034265935,-0.078759193,0.01063931
1.18,-0.037391961,-0.079044342,0.010756493
1.19,-0.030557394,0.133748055,0.178027391
1.2,-0.062838256,0.099889755,0.165922165
1.21,-0.04111135,0.027547836,0.440365613
1.22,-0.046599448,0.02669239,0.436585546
1.23,-0.106799483,-0.02195549,0.241744518
1.24,-0.136916041,-0.034420013,0.015173018
1.25,-0.1689713,-0.065776825,-0.201849639
1.26,-0.172216237,-0.11847496,-0.198716164
1.27,-0.025696516,-0.156978607,0.133771062
1.28,0.078909934,-0.116928101,0.560866892
1.29,0.073237419,-0.117937088,0.55525589
1.3,0.004570544,-0.068675995,0.691541433
1.31,-0.067212343,0.011806488,0.245184064
1.32,-0.193972051,0.025312424,0.036505222
1.33,-0.098735631,0.027026176,-0.013814092
1.34,-0.100022137,0.035950661,0.013492703
1.35,0.037378013,0.040164948,0.166394293
1.36,0.035270512,0.039735794,0.163376391
1.37,0.044943333,0.013088226,0.18150878
1.38,-0.023854673,-0.018153191,0.215413928
1.39,-0.027684212,-0.0564394,0.190670252
1.4,0.054353356,-0.089857101,0.114649534
1.41,0.047188461,-0.082606316,0.02473402
1.42,0.042184234,-0.044279099,-0.00853765
1.43,0.025091231,0.044121742,0.08556217
1.44,0.022338748,0.043828011,0.084888399
1.45,-0.142172933,0.105865479,0.141536415
1.46,-0.17721343,0.141683579,0.019890904
1.47,-0.223990858,0.093784332,-0.019572139
1.48,-0.177770317,-0.002025604,-0.106977403
1.49,-0.158052921,-0.081165314,-0.008643806
1.5,-0.069393039,-0.13415432,0.100256324
1.51,0.011654913,-0.086771011,0.255126
1.52,0.044967055,-0.039482117,0.296203017
1.53,0.004844904,-0.044816017,0.337070108
1.54,-0.003002882,0.03608036,0.319808483
1.55,0.025930703,0.033211708,0.230267823
1.56,0.026444197,0.032911301,0.225976884
1.57,0.032179654,-0.000811577,0.071711242
1.58,0.003015578,-0.029602051,0.023508191
1.59,0.023663282,-0.034406662,0.045771897
1.6,-0.035209775,0.015810966,-0.068402529
1.61,-0.010067821,0.090041161,-0.078964055
1.62,0.000403404,0.085233688,-0.094523609
1.63,-0.001325905,0.085110664,-0.094248593
1.64,0.115964651,0.051197052,0.478130907
1.65,0.176737011,-0.064393044,0.287346304
1.66,0.040883422,-0.062687874,0.328571349
1.67,0.037438571,-0.063526154,0.321796447
1.68,-0.089782953,-0.011749268,0.088485301
1.69,-0.077696323,0.047469139,-0.094387352
1.7,-0.221657336,0.080358505,0.06332159
1.71,-0.234069288,0.04845047,0.463358313
1.72,0.059142947,-0.089045525,0.600310803
1.73,0.027827561,-0.162033081,0.473259956
1.74,0.023844898,-0.16302681,0.464437634
1.75,0.003227949,-0.175708771,0.296091288
1.76,-0.011477351,-0.03265667,0.199726701
1.77,-0.010898948,-0.033151627,0.192549467
1.78,-0.12959528,0.069385529,0.259885728
1.79,-0.113652349,0.073836327,0.30385235
1.8,-0.016928852,0.049608231,0.157492697
1.81,-0.01654309,0.049367905,0.15363574
1.82,-0.01198715,-0.005993843,0.190492094
1.83,-0.060615599,0.003211975,0.207813621
1.84,-0.047442079,-0.030719757,0.215085268
1.85,-0.046737075,0.004740715,0.188798666
1.86,0.029595137,0.068724632,0.215921372
1.87,0.052327394,0.070315361,0.227611035
1.88,0.048919082,0.069516182,0.219814092
1.89,-0.126165092,0.162171364,0.351029515
1.9,-0.204559147,0.070638657,0.306475043
1.91,-0.205408752,0.019971848,0.215438068
1.92,-0.176895201,-0.064076424,0.190440059
1.93,-0.176845551,-0.064302444,0.186920226
1.94,-0.100010395,-0.16505909,0.195358872
1.95,-0.038252294,-0.134212494,0.30651772
1.96,0.058861136,-0.084341049,0.394880116
1.97,0.085903168,-0.017816544,0.39356786
1.98,0.017453551,0.022364616,0.365359813
1.99,0.042790174,0.050628662,0.275175273
2,0.041290581,0.050165176,0.269787729
2.01,-0.072420418,0.061793327,0.188697487
2.02,-0.050161719,0.042264938,0.242229283
2.03,-0.066603839,0.041871071,0.173694193
2.04,-0.207684279,0.063076973,-0.015831769
2.05,-0.233012557,0.062941551,0.072044134
2.06,-0.095637262,0.060379028,0.260430813
2.07,0.109833837,0.033732414,0.483868539
2.08,0.156247914,-0.026573181,0.296861082
2.09,-0.060430706,0.00179863,0.15651691
2.1,-0.150911272,-0.000818253,0.291905701
2.11,-0.024905741,-0.005824089,0.313152492
2.12,-0.025446415,-0.025117874,0.100715727
2.13,-0.011844754,-0.032353401,0.132036269
2.14,-0.035083056,0.003410339,0.349206388
2.15,0.057890952,0.053293228,0.456307411
2.16,0.001541197,0.052754402,0.413527906
2.17,0.050666809,0.042650223,0.334429026
2.18,0.004355371,-0.003310204,0.287261009
2.19,-0.038537562,-0.080262184,0.176353633
2.2,-0.09483397,-0.133128166,0.016639471
2.21,-0.057115912,-0.15713501,0.09276247
2.22,0.002129257,-0.104527473,0.070927531
2.23,-0.080599129,-0.025615692,0.188156873
2.24,-0.031805277,-0.052129745,0.060013503
2.25,0.032937586,0.005149841,0.083847135
2.26,-0.094641924,0.057580948,0.155167103
2.27,0.012604535,0.04534626,0.024810076
2.28,-0.065029264,0.057042122,0.007388055
2.29,-0.068256974,0.056733131,0.006343782
2.3,-0.142908752,0.056434631,0.097896963
2.31,-0.114335835,0.061016083,0.039764047
2.32,-0.116762757,0.060824394,0.039550722
2.33,-0.144865573,0.055930138,0.053987831
2.34,-0.122105897,0.010290146,0.26140371
2.35,-0.089316428,-0.001803398,0.336464226
2.36,-0.041813493,-0.0163517,0.309694618
2.37,-0.04234308,-0.016546249,0.306932002
2.38,0.084288418,0.002468109,0.426915407
2.39,0.182207286,0.007059097,0.737061203
2.4,0.201418787,-0.010080338,0.813893914
2.41,0.211836726,-0.024745941,0.476520866
2.42,0.039825082,-0.020187378,0.385028005
2.43,0.057150483,0.010647774,0.402810186
2.44,0.056686997,0.010234833,0.395097852
2.45,0.055268049,0.048010826,0.40082401
2.46,-0.000915825,0.052264214,0.283650935
2.47,-0.001367331,0.051800728,0.274759352
2.48,-0.270659626,0.128192902,0.081312388
2.49,-0.145579577,0.144968987,0.089137912
2.5,0.00036478,0.104358673,0.211683348
2.51,0.009291768,0.051791191,0.324059069
2.52,0.039857864,0.051950455,0.353544861
2.53,-0.178259134,0.052236557,0.042588621
2.54,-0.174843133,0.05273056,0.048233628
2.55,-0.319010913,0.067726135,-0.045687497
2.56,-0.293361545,0.077974319,-0.176739037
2.57,0.078332961,0.054617882,0.245102018
2.58,0.169111013,-0.002376556,0.435738653
2.59,0.233068079,0.014744759,0.591176689
2.6,0.102263272,0.041296959,0.493599236
2.61,-0.063414395,0.036826134,0.276968241
2.62,-0.143924892,0.027795792,-0.071520686
2.63,-0.247750044,-0.055244446,-0.371293068
2.64,-0.373759091,-0.097541809,-0.415889263
2.65,-0.358772218,-0.142281532,-0.418258369
2.66,-0.357163906,-0.141703606,-0.409968793
2.67,-0.129926682,-0.107830048,-0.280883849
2.68,-0.131091058,-0.107546806,-0.274357379
2.69,-0.173317254,-0.040287018,-0.024399161
2.7,-0.175001264,-0.040213585,-0.020779073
2.71,-0.205868363,-0.016248703,-0.027343392
2.72,-0.194131374,0.038763046,0.056518137
2.73,-0.190209568,0.064944267,0.117887497
2.74,-0.176364064,0.08394146,0.104295731
2.75,-0.07313776,0.086255074,0.124684006
2.76,-0.07531482,0.086116791,0.125135809
2.77,-0.067209542,0.0620327,0.241946489
2.78,-0.058092773,0.028355598,0.392908156
2.79,-0.042311609,-0.067625999,0.246977896
2.8,-0.043144584,-0.067763329,0.245473176
2.81,-0.017552495,-0.137403488,0.185618162
2.82,-0.033202112,-0.178402901,0.18679741
2.83,0.09678036,-0.147631645,0.412655354
2.84,0.006711841,-0.152804375,0.364612758
2.85,-0.001415014,-0.119590759,0.252679676
2.86,0.107806563,-0.162909508,0.405413717
2.87,0.055463493,-0.038776398,-0.149100542
2.88,0.045776248,0.056759834,-0.167098045
2.89,0.04926461,0.037210464,0.192129314
2.9,-0.120347679,0.05588913,0.122113079
2.91,-0.305796623,0.067557335,-0.288198769
2.92,-0.294397354,0.055466652,-0.066544533
2.93,-0.297678888,0.055261612,-0.066135705
2.94,-0.014477134,-0.019277573,0.072290808
2.95,-0.018305182,-0.019476891,0.07346043
2.96,0.021300972,-0.122650147,0.313183546
2.97,-0.066575944,-0.144577026,0.412013918
2.98,-0.028110802,-0.061085701,0.353910625
2.99,-0.025146306,-0.006305695,0.300864756
3,-0.0245772,-0.018507004,0.150307089
3.01,-0.02703923,-0.018713951,0.149507791
3.02,0.065168858,0.052757263,0.379486978
3.03,0.013080359,0.049876213,0.327769041
3.04,-0.069654703,0.051780701,0.292034328
3.05,-0.129873931,0.027438164,0.136975259
3.06,-0.110003293,-0.032655716,0.017149061
3.07,-0.147066295,-0.035161972,0.052630514
3.08,-0.096883893,-0.032726288,0.008072257
3.09,0.12848568,-0.046922684,0.173725694
3.1,0.128662825,-0.046743393,0.176821321
3.11,-0.054738879,-0.029695511,0.135542601
3.12,0.003965199,-0.079708099,0.129410654
3.13,0.006723106,-0.072359085,0.148906618
3.14,-0.03400588,-0.057897568,0.107565075
3.15,-0.034362733,-0.057828903,0.109218448
3.16,-0.069112718,0.049898148,0.199091524
3.17,-0.086365044,0.004432678,0.145046949
3.18,-0.086749673,0.004473686,0.146181643
3.19,-0.183983803,0.05253315,0.109958887
3.2,-0.031819999,-0.040672302,0.257803798
3.21,-0.031132936,-0.040558815,0.258763135
3.22,-0.033012211,-0.10984993,0.078938484
3.23,-0.123154998,-0.040173531,0.101289153
3.24,-0.093372166,-0.020800591,0.259648353
3.25,0.055661857,0.005596161,0.296163529
3.26,0.117457628,-0.059059143,0.329887807
3.27,0.088711381,-0.063819885,0.371308833
3.28,0.103525996,-0.116390228,0.22882387
3.29,-0.004037797,-0.092323303,0.228266627
3.3,-0.003316224,-0.092177391,0.230150551
3.31,-0.074716032,-0.163909912,0.195557982
3.32,-0.13671875,-0.142241478,0.043991029
3.33,-0.227802575,-0.151744843,-0.165229797
3.34,-0.196844816,-0.043951988,-0.044442892
3.35,-0.168465316,-0.00330162,-0.059423149
3.36,-0.037476122,0.03253746,-0.15774405
3.37,-0.106700778,-0.013067245,-0.212433159
3.38,0.12023896,0.037026405,0.505880237
3.39,0.219047129,0.031762123,0.665026665
3.4,0.002661407,0.052973747,0.464289814
3.41,-0.14666158,0.055321693,0.052534223
3.42,-0.157838047,0.074694633,-0.057053506
3.43,-0.125615597,0.039097786,0.090719044
3.44,-0.044738948,0.022407532,0.336872876
3.45,0.047063947,0.007940292,0.461510778
3.46,-0.105614007,-0.020969391,0.362175167
3.47,-0.209128082,-0.080932617,-0.084233284
3.48,-0.177824855,-0.083233833,-0.147490561
3.49,-0.170493543,-0.080771446,0.107045591
3.5,-0.078549564,-0.018481255,0.073482811
3.51,-0.05597055,0.039195061,0.169241279
3.52,-0.054743588,0.03950119,0.173109084
3.53,0.004068017,0.054211617,0.3212668
3.54,0.053076983,-0.038780212,0.173344642
3.55,0.025188565,-0.076668739,0.021500766
3.56,0.001487255,-0.035561562,0.03279984
3.57,0.029895604,0.012627602,0.059718907
3.58,0.000117123,0.008084297,0.036228895
3.59,-0.001298845,0.008319855,0.041401207
3.6,-0.122765064,0.056389809,0.051046669
3.61,-0.123774827,0.056571007,0.055010557
3.62,-0.200850427,-0.003031731,-0.02685535
3.63,-0.23687005,-0.055437088,0.035189748
3.64,-0.236747325,-0.055128098,0.039824426
3.65,-0.155553281,-0.085963249,-0.017628074
3.66,-0.122294366,-0.030612946,0.073114455
3.67,-0.079619527,-0.001739502,0.166689187
3.68,0.022531211,0.010315895,0.178227812
3.69,0.080887854,0.01272583,0.302072018
3.7,0.133935243,0.019826889,0.362664342
3.71,0.031204164,0.05801487,0.286251992
3.72,-0.001399636,0.057976723,0.136264026
3.73,-0.043572724,0.012464523,0.104085088
3.74,-0.066671312,0.012488365,0.151344061
3.75,-0.108798742,-0.090436935,0.052655578
3.76,-0.193663955,-0.111801148,-0.029950857
3.77,-0.14101857,-0.056459427,-0.061915219
3.78,-0.222034872,0.006092072,-0.069641769
3.79,-0.094751954,0.020793915,0.117184997
3.8,0.052642405,-0.031605721,0.243997663
3.81,0.057298601,-0.10810566,0.410863102
3.82,0.03300935,-0.191919327,0.370019615
3.83,-0.021443725,-0.108142853,0.172646642
3.84,-0.209391654,0.014034271,-0.309030831
3.85,-0.262876391,0.030960083,-0.30578351
3.86,-0.147859633,0.06210804,-0.011447787
3.87,-0.035053253,0.059449196,0.371928573
3.88,-0.09342581,0.059046745,0.306484699
3.89,-0.181499481,0.056413651,0.16319412
3.9,-0.184152067,0.05625248,0.163111568
3.91,-0.19045186,0.037017822,0.021909356
3.92,-0.097505689,0.001245499,0.297173351
3.93,0.067902744,-0.02965641,0.522924781
3.94,0.037398815,-0.022162437,0.268235296
3.95,-0.042263508,-0.033531189,0.040608764
3.96,-0.100544453,-0.133480072,-0.098424554
3.97,-0.087465465,-0.149636269,-0.153367519
3.98,-0.087128162,-0.149147987,-0.146956921
3.99,-0.115701377,-0.096146584,0.067993522
4,-0.072856963,-0.067165375,0.023774624
4.01,-0.161741138,-0.002193451,-0.043527365
4.02,-0.192504048,0.022130013,0.004348993
4.03,-0.215879262,0.00091362,-0.159391582
4.04,-0.287261426,-0.046598434,-0.1498667
4.05,-0.231372476,-0.058224678,-0.009700418
4.06,-0.31927383,0.047327042,0.205500543
4.07,-0.150242567,0.052248955,0.241981387
4.08,-0.140481353,-0.005187988,0.122587562
4.09,-0.15195173,-0.024289131,0.134775043
4.1,-0.174650967,-0.0578022,0.129046142
4.11,-0.136853218,-0.093742371,0.088740528
4.12,-0.065681458,-0.115358353,0.019626856
4.13,-0.066301644,-0.13688755,0.097310305
4.14,0.006972075,-0.060360909,0.214825213
4.15,-0.094721496,-0.048480034,0.133533955
4.16,-0.119448721,0.020987511,0.06574434
4.17,-0.27143085,0.064107895,0.220573723
4.18,-0.269147396,0.064079285,0.218376219
4.19,-0.016653776,-0.04139328,0.357012749
4.2,-0.091889918,-0.031786919,0.069064677
4.21,-0.130569279,0.028273582,-0.404013336
4.22,-0.020293474,-0.009903908,-0.263532817
4.23,-0.081719518,0.013965607,0.253938854
4.24,-0.256759286,0.049576759,0.422071576
4.25,-0.03400749,-0.092042923,0.486163527
4.26,-0.046482921,-0.142839432,0.340533584
4.27,-0.047127068,-0.143218041,0.336046487
4.28,-0.256651342,-0.052389145,-0.112320244
4.29,-0.25590229,-0.052466393,-0.114079058
4.3,-0.208522916,-0.019161224,0.242525935
4.31,-0.209890127,-0.01966095,0.237187088
4.32,-0.025201857,0.003685951,0.316779345
4.33,-0.261331916,-0.063846588,0.117349446
4.34,-0.291861236,-0.162350655,-0.113173246
4.35,-0.334051013,-0.155402184,-0.203260303
4.36,-0.272670865,-0.229714394,-0.064526081
4.37,-0.177911162,-0.160386086,0.143234849
4.38,-0.045551479,-0.105527878,0.216221154
4.39,-0.096429229,-0.136910439,0.115145981
4.4,-0.097068429,-0.137081146,0.113197446
4.41,-0.112084925,-0.153948784,-0.172802866
4.42,-0.287386954,-0.122895241,-0.151828408
4.43,-0.385220528,-0.142092705,-0.090439022
4.44,-0.384517312,-0.142127991,-0.091505766
4.45,-0.292791963,-0.139676094,-0.287614346
4.46,-0.423822939,-0.039101601,-0.096406579
4.47,-0.414487004,0.049525261,-0.090748608
4.48,-0.437971294,0.001686096,-0.167027593
4.49,-0.321497202,-0.05090332,0.024579823
4.5,-0.344088912,-0.108456612,0.120340884
4.51,-0.301744402,-0.139698029,-0.210663796
4.52,-0.316940844,-0.197182655,-0.20047605
4.53,-0.239088655,-0.194887161,-0.238947094
4.54,-0.174457371,-0.113763809,-0.070782542
4.55,-0.218200624,-0.126216888,0.164510608
4.56,-0.161273181,-0.143478394,0.197704583
4.57,-0.255964577,-0.153594971,0.116373062
4.58,-0.239586651,-0.20672226,-0.017510116
4.59,-0.154000461,-0.23107338,-0.083379567
4.6,-0.164723635,-0.090248108,0.041869402
4.61,-0.147008896,-0.002187729,0.104052633
4.62,-0.19930768,0.014032364,0.125432491
4.63,-0.239587426,-0.101402283,-0.060819864
4.64,-0.238975167,-0.101795197,-0.068610847
4.65,-0.407801628,-0.049434662,-0.245593071
4.66,-0.406356096,-0.049761772,-0.253359616
4.67,-0.021266878,-0.057569504,0.482969225
4.68,0.040341616,-0.108748436,0.519720852
4.69,0.036855578,-0.109675407,0.506484211
4.7,-0.037737787,-0.048201561,0.360398144
4.71,-0.037268698,-0.048622131,0.351586789
4.72,-0.202987552,-0.063278198,0.050657213
4.73,0.044905543,-0.281476975,-0.053675413
4.74,0.205932558,-0.303542137,0.114784241
4.75,0.419767499,-0.400066376,0.269855499
4.76,0.509468257,-0.465589523,0.342339635
4.77,0.658710837,-0.428240776,0.368132412
4.78,0.674705267,-0.309625626,0.208033398
4.79,0.665087819,-0.310806274,0.193817809
4.8,0.837678194,0.042319298,-0.121053904
4.81,0.898789644,0.040885925,-0.179373324
4.82,0.876505613,0.03931427,-0.224650562
4.83,0.853368402,0.037652969,-0.235002577
4.84,0.550049126,-0.059653282,-0.559672058
4.85,0.525477588,-0.061118126,-0.56583482
4.86,0.789545417,-0.189435959,-1.041957259
4.87,0.756301343,-0.190766335,-1.036660194
4.88,0.733027875,0.030718803,-0.934414446
4.89,0.479150295,0.218957901,-0.837831736
4.9,0.309339672,0.450597763,-0.850612998
4.91,0.109585881,0.637043953,-0.967581391
4.92,-0.069239765,0.694471359,-0.777180672
4.93,-0.092104226,0.694535255,-0.762377799
4.94,-0.340940833,0.766255379,-0.159892023
4.95,-0.367563307,0.316059113,-0.23693946
4.96,-0.331390232,-0.119677544,-0.471749961
4.97,-0.228503719,-0.39490509,-0.693414092
4.98,-0.107026264,-0.820848465,-0.7004565
4.99,-0.115599155,-0.821422577,-0.709683299
5,0.255346209,-1.30588913,-0.160325229
5.01,0.472128213,-1.258923531,0.263367146
5.02,0.291063935,-1.144947052,0.334873706
5.03,0.195174858,-0.841691971,0.177115247
5.04,0.196910307,-0.842377663,0.157062188
5.05,0.091162026,-0.708873749,-0.234532535
5.06,0.022643998,-0.405426025,-0.730379045
5.07,-0.181886494,-0.341415405,-0.601336539
5.08,-0.179753572,-0.342000008,-0.623808503
5.09,-0.122530997,-0.419070244,-0.875424445
5.1,-0.035786256,-0.558254242,-1.222788811
5.11,-0.019790456,-0.678077698,-0.922160566
5.12,-0.014297113,-0.678167343,-0.930635393
5.13,-0.448829889,-0.649443626,-0.993147135
5.14,-0.439019859,-0.649353027,-0.998707771
5.15,-0.631134749,-0.613276482,-1.674726486
5.16,-0.663805962,-0.471717835,-1.388774395
5.17,-0.870480657,-0.457050324,-1.29872489
5.18,-0.741262734,-0.363373756,-1.092313886
5.19,-0.359589636,-0.499572754,-1.100757003
5.2,-0.176025182,-0.470614433,-0.915690839
5.21,-0.164233625,-0.470375061,-0.921070218
5.22,-0.211988092,-0.443665505,-1.022154808
5.23,-0.22633493,-0.237217903,-1.343620539
5.24,-0.209125131,-0.236611366,-1.341520309
5.25,-0.011943698,-0.089990616,-1.138527513
5.26,0.312392175,0.020641327,-1.302517533
5.27,0.118862152,0.121589661,-1.392902017
5.28,0.20970197,0.18414402,-1.36916554
5.29,0.414268792,0.239339829,-1.233760595
5.3,0.276490897,0.30639267,-1.308179617
5.31,0.046392828,0.569805145,-1.694017649
5.32,0.051776588,0.569939613,-1.699143529
5.33,0.106416285,0.665869713,-2.038429499
5.34,0.000620604,0.929433823,-2.107041121
5.35,0.070270419,1.111649513,-2.101508141
5.36,0.076007187,1.112023354,-2.094729424
5.37,0.006982177,1.294459343,-1.772198677
5.38,0.480217099,1.476999283,-1.134413958
5.39,0.495382369,1.504086494,-1.079537153
5.4,0.402162701,1.543584824,-0.808706999
5.41,0.33683914,1.466021538,-0.46640408
5.42,-0.079437196,1.652051926,-0.003422946
5.43,0.231530935,2.556632042,0.869380713
5.44,0.259688526,2.558546066,0.881375134
5.45,1.69874382,3.233095169,0.763892233
5.46,1.07092917,3.316414833,1.437142372
5.47,1.099143982,3.318343163,1.441260815
5.48,-1.771000862,2.970691681,4.151929855
5.49,-1.747729063,2.971874237,4.137498379
5.5,-0.141093552,1.42953968,5.466015339
5.51,-0.169913411,1.426469803,5.424116135
5.52,2.01487875,1.185873985,5.194288731
5.53,0.872246265,2.109682083,4.459962845
5.54,-0.76450944,3.120987892,3.708167076
5.55,-3.425842762,4.291676521,3.057324409
5.56,-5.76273489,4.661551476,2.700636387
5.57,-6.791681767,4.445236206,2.931003571
5.58,-6.772799969,4.446343422,2.900840521
5.59,-3.73541832,2.274804115,2.516749382
5.6,-1.962313652,1.186919212,2.179722309
5.61,-1.986096382,1.18576622,2.133586645
5.62,-0.529940009,-0.127055168,2.520619869
5.63,-0.385988176,-0.715842247,2.399794579
5.64,-0.394530952,-0.715176582,2.350830078
5.65,-0.542958438,-2.023801327,1.583414912
5.66,-0.421152055,-2.721711636,0.582351565
5.67,-0.417504907,-2.720639706,0.557961464
5.68,0.091150939,-4.077319145,-0.379616588
5.69,0.101933509,-4.665509701,-0.157753333
5.7,0.193455428,-5.023933887,-0.015501082
5.71,0.193708509,-5.023571491,-0.023897737
5.72,0.354185194,-5.461663723,0.428611904
5.73,0.826058269,-5.62230587,0.09249559
5.74,1.41765666,-5.529954433,-0.394847035
5.75,1.207272291,-5.265665054,-0.369393796
5.76,1.192608595,-5.267044067,-0.354693651
5.77,0.694090784,-4.806169033,-0.17252931
5.78,0.216786653,-4.302193165,-0.258423924
5.79,0.189240426,-4.140579224,-0.390464366
5.8,0.040143877,-3.995730877,-0.403948665
5.81,-0.471448273,-3.716749191,-0.364141822
5.82,-0.298999399,-3.389832973,-0.648784041
5.83,0.066195697,-3.034358025,-1.046493649
5.84,0.041036725,-3.03575325,-1.033914208
5.85,0.064296454,-2.543610573,-0.955937982
5.86,-0.859885037,-1.153327942,-0.481008411
5.87,-1.447220922,0.00735569,-0.624998868
5.88,-2.067636251,0.837803841,-1.271105409
5.89,-2.311626911,1.551185608,-1.721894979
5.9,-2.289910793,1.551285744,-1.679038048
5.91,-2.202976704,2.310667038,-0.698596478
5.92,-1.652631998,2.351771355,-0.126964077
5.93,-1.309684157,2.395049095,0.120512046
5.94,-1.308580041,2.395023346,0.13763313
5.95,-0.989194632,2.849730492,0.269147992
5.96,-1.391396642,3.07937336,0.327881932
5.97,-1.393079519,3.079317093,0.323090613
5.98,-3.057172775,3.151373863,0.104018673
5.99,-3.043453693,3.152026176,0.098066635
6,-2.728315115,3.387611389,-2.071534395
6.01,-2.704717159,3.388710022,-2.052629232
6.02,-0.144923151,4.618103981,-1.217211008
6.03,0.823592544,4.937286377,0.349279374
6.04,1.747681141,4.880079269,2.611709833
6.05,2.605842829,4.530286789,4.514636517
6.06,2.592295885,4.529747009,4.528427601
6.07,3.00962472,2.804958344,6.287411213
6.08,3.788114309,1.398147583,5.694617271
6.09,3.812251329,-0.080471039,4.563736439
6.1,2.800749779,-0.394968033,2.872928381
6.11,0.663369596,-0.268209457,0.254961789
6.12,0.329741061,0.026865959,-1.492228985
6.13,0.244479418,0.400919914,-0.824370801
6.14,0.256754398,0.401429176,-0.842643559
6.15,1.311377287,1.47682476,-0.144415274
6.16,1.72873795,1.833830833,0.398074538
6.17,1.729366899,1.833904266,0.381515622
6.18,2.226667881,2.044383049,1.501602411
6.19,2.246687412,1.931310654,2.079538107
6.2,1.950269341,1.667253494,2.475935698
6.21,1.077034116,1.190220833,2.552681446
6.22,1.062482119,1.189897537,2.529605389
6.23,-0.152652323,-0.641909599,1.452772498
6.24,-0.404017329,-1.80323267,0.345248103
6.25,-0.277044386,-2.931102753,-0.498464584
6.26,-0.305599302,-3.95824194,-0.830472589
6.27,-0.734772921,-4.860579491,-0.612960637
6.28,-0.920358598,-5.484772682,-0.429181844
6.29,-0.662443221,-5.785404205,-0.573315144
6.3,-0.299052447,-5.788916588,-0.879786968
6.31,-0.268023133,-5.787443161,-0.855234683
6.32,-0.132694304,-5.666142464,-0.804505467
6.33,0.344267964,-5.068436623,-0.309064508
6.34,0.507758021,-4.640800476,0.345414102
6.35,0.666202366,-4.162960529,1.193523526
6.36,0.684640527,-4.161742687,1.177454352
6.37,0.712697148,-3.655433178,1.140549064
6.38,0.322955281,-3.32618618,0.338848323
6.39,0.099404514,-3.183590889,-0.540246546
6.4,0.160431922,-2.87102747,-1.412888169
6.41,0.115871429,-2.525063038,-1.846811175
6.42,-0.414122284,-2.021304607,-1.62023139
6.43,-0.403684795,-2.020349979,-1.637031794
6.44,-0.535996199,-0.705039024,-1.341895461
6.45,0.226732373,-0.201658249,-1.005558729
6.46,0.755576193,0.291787148,-0.791783989
6.47,0.602980375,1.057976723,-0.356153578
6.48,0.451298446,1.80310154,-0.481186032
6.49,0.299026936,2.359334946,-0.935192049
6.5,-0.290749311,3.128949165,-1.218528628
6.51,-0.912781537,3.544621468,-1.672218919
6.52,-1.056774139,3.548731804,-2.011832476
6.53,-1.038724661,3.550289154,-1.989882469
6.54,-1.052153587,3.173595428,-1.800573945
6.55,-0.703377962,1.791430473,-1.301142335
6.56,-0.2096681,1.795781136,-0.824248016
6.57,0.477873892,2.657643318,0.040193774
6.58,0.502519727,2.660433769,0.073163874
6.59,1.06495595,3.157175064,0.123618424
6.6,0.788374245,3.307798386,1.040170074
6.61,-1.995958567,3.105132103,4.705439568
6.62,-1.952263474,3.110846519,4.736091614
6.63,-1.395046711,1.944573402,5.14329195
6.64,-0.266514063,1.298230171,4.766509056
6.65,0.605490863,0.880522728,4.023844719
6.66,0.731473923,0.915882111,3.130336046
6.67,0.176430643,1.501016617,1.858131766
6.68,-0.358716488,2.296839714,0.757198215
6.69,-1.063876748,3.124326706,0.154745162
6.7,-2.456366539,4.110902786,0.184453994
6.71,-3.925910473,4.673253059,0.408798456
6.72,-3.914091587,4.674113274,0.37618202
6.73,-4.232627869,4.237257004,0.672079086
6.74,-4.221992016,4.238292694,0.650829494
6.75,-1.842670441,1.219221115,0.63621068
6.76,-0.777618766,-0.324095726,0.665691316
6.77,-0.799415946,-0.326506615,0.649806082
6.78,0.315481007,-1.742491722,0.76721853
6.79,2.097500324,-3.956453323,0.938356459
6.8,2.662182808,-4.865611553,1.351055264
6.81,2.727111816,-5.527844429,0.609425247
6.82,2.019461632,-5.801380634,0.270779103
6.83,1.084507942,-5.849384785,-0.157059506
6.84,0.539786696,-5.763102531,-0.454888254
6.85,0.346544266,-5.643309116,-0.663888335
6.86,0.539208591,-5.640941143,-0.707404256
6.87,0.506712139,-5.643416882,-0.697647214
6.88,0.879376233,-5.226915359,-0.603091419
6.89,0.684373975,-4.803097725,-0.516221523
6.9,0.65288496,-4.35276556,-0.513617575
6.91,0.673487783,-4.038811684,-0.635320485
6.92,0.275402963,-3.549948215,-0.562072158
6.93,0.245215893,-3.551585674,-0.556114733
6.94,-0.43629387,-2.231135845,-1.09177494
6.95,-1.005311847,-1.441962242,-1.352456331
6.96,-1.595265865,-0.575754166,-1.296927571
6.97,-1.625794053,0.199828148,-0.938198984
6.98,-1.628476739,0.199788094,-0.913422406
6.99,-0.773491383,1.023366928,-0.257363528
7,-0.496804625,1.456748009,-0.620121062
7.01,-0.50208056,1.456924438,-0.586640358
7.02,-0.583366454,2.654355049,-0.582614422
7.03,-0.649511933,3.073565483,0.01537402
7.04,-1.44432199,3.178805351,0.595124364
7.05,-1.452991605,3.178431511,0.594207048
7.06,-3.219630241,2.955435753,-0.945648372
7.07,-4.213607311,3.163861275,-2.130414724
7.08,-3.903316259,4.019589424,-2.049585342
7.09,-1.848985195,4.703593254,-0.930060864
7.1,0.578683674,5.026087761,-0.085115254
7.11,0.591014803,5.027808189,-0.042026192
7.12,2.261137247,4.976970673,0.650853515
7.13,2.685027838,4.945544243,2.209859371
7.14,2.670109034,4.016089439,3.714025736
7.15,2.821093082,2.967968941,5.154567719
7.16,2.84177351,1.752228737,5.725635529
7.17,3.290464878,0.233756065,4.391967297
7.18,4.105993748,-0.851624489,2.102068424
7.19,4.497200489,-0.969648361,0.36239621
7.2,4.452326775,-0.972432137,0.318339169
7.21,4.069380283,-0.033855438,-0.66820538
7.22,3.092565775,0.960300446,-0.455734074
7.23,1.725197792,2.950944901,0.202955425
7.24,0.475832343,3.807287216,0.384001523
7.25,-0.651534319,4.345724106,0.947176993
7.26,-2.134156227,4.075474739,1.337638855
7.27,-2.142147541,4.076270103,1.277200222
7.28,-2.120856524,0.559906006,1.394695044
7.29,-1.479296565,-1.194321632,0.891781271
7.3,-1.501313806,-1.193857193,0.866813541
7.31,-0.388539255,-4.332741261,-1.719888568
7.32,-0.090538941,-5.276290417,-1.841712356
7.33,0.122610197,-5.975571156,-1.182649136
7.34,-0.007828213,-6.329646111,-0.368381679
7.35,0.029442661,-6.281208038,0.049162835
7.36,0.145039171,-5.926052094,0.660456002
7.37,0.164563373,-5.925146103,0.643194437
7.38,0.519665957,-4.866015434,0.952433467
7.39,0.42506808,-4.314612389,0.926138461
7.4,0.450089395,-4.313827515,0.920752108
7.41,0.499895155,-3.944424152,0.311353833
7.42,0.543062925,-3.783403397,-0.31971404
7.43,0.295205832,-3.569769382,-1.370387793
7.44,0.1780366,-3.312859058,-1.119719386
7.45,0.355765969,-3.003077984,-1.070259333
7.46,0.442479342,-2.470683098,-1.017358065
7.47,0.466240168,-2.469887733,-1.012359858
7.48,0.360649049,-0.987039566,-0.572264791
7.49,0.162197083,-0.014214516,-0.783988893
7.5,0.31420508,0.807617188,-1.259467006
7.51,0.008581698,1.882898331,-1.694108605
7.52,-0.468198657,2.812142372,-1.731199741
7.53,-0.76640141,3.607424736,-1.616481543
7.54,-0.753781021,3.607820511,-1.604784489
7.55,-0.211366415,3.47165966,-1.64830029
7.56,-0.087643802,2.858991623,-1.574814677
7.57,0.12746802,2.641619682,-1.013445258
7.58,0.331912756,3.00633812,-0.202811554
7.59,0.779444933,3.701701164,0.196458906
7.6,0.673805714,3.939809799,0.238838807
7.61,-0.520256281,4.230908394,1.339339018
7.62,-1.624268889,4.115983009,2.384773731
7.63,-2.1246171,3.496084213,3.06532073
7.64,-2.088934422,3.498338699,3.088869095
7.65,-2.083090067,2.482483864,3.582803726
7.66,-0.202306271,1.317420006,3.424674034
7.67,-0.200854898,1.317316055,3.442460775
7.68,0.639402986,1.052763939,3.62434721
7.69,0.822422743,1.477498055,4.693250656
7.7,0.801168084,1.476201057,4.668368816
7.71,-0.761749268,3.065288544,3.328010798
7.72,-0.769273818,3.065462112,3.291474104
7.73,-3.668942213,4.295052528,2.635321856
7.74,-4.390719891,4.326254845,1.977613211
7.75,-4.331767559,4.072861671,1.236284733
7.76,-4.034536839,3.081994057,0.48013714
7.77,-4.01864481,3.084589958,0.447937012
7.78,-1.642326832,-0.009189606,-1.644640923
7.79,-0.433790624,-1.722249031,-2.285342216
7.8,-0.583571792,-2.679156303,-1.23832953
7.81,0.631948054,-3.231257439,-1.712099552
7.82,0.301936626,-4.339757919,-0.624331951
7.83,0.603120565,-4.222267628,-0.184466124
7.84,0.857668102,-4.835398674,0.320432454
7.85,0.834523082,-4.836734772,0.309595406
7.86,1.530106068,-5.530749321,0.684640229
7.87,1.687516928,-6.033754349,0.216588497
7.88,1.383688688,-6.245149136,-0.16919747
7.89,1.310970187,-6.482933044,-0.373497367
7.9,1.074569702,-6.500522614,-0.609344363
7.91,0.830212832,-6.302530289,-1.047694445
7.92,0.810826302,-6.305347443,-1.005845428
7.93,0.119472355,-5.328508854,-1.204836607
7.94,-0.146359623,-4.746451378,-1.444518685
7.95,-0.353547037,-4.101979733,-1.433406591
7.96,-0.770994663,-3.155606747,-1.525085449
7.97,-1.417206168,-2.014985085,-1.470548749
7.98,-1.418899775,-2.015856743,-1.425322175
7.99,-1.756183863,0.011956215,-1.529814839
8,-1.730076551,0.847933769,-1.630306125
8.01,-1.540135741,1.476146698,-1.781119823
8.02,-1.19228673,1.989958763,-1.852191925
8.03,-1.208001852,2.43000412,-1.139775038
8.04,-1.097664356,2.939720154,-0.73481977
8.05,-0.715861619,3.214753151,-0.391281903
8.06,-0.431245863,3.221103668,0.236481696
8.07,-0.632029712,2.977561951,1.069844604
8.08,-1.297145844,2.529387474,1.117008448
8.09,-2.426754236,2.001808167,0.258986235
8.1,-2.989901543,2.520796776,-1.72685802
8.11,-2.983930111,2.520925522,-1.734902501
8.12,-2.055039406,3.414606094,-2.567518234
8.13,-0.909667909,4.148336411,-2.208817482
8.14,0.014044106,5.026480675,-1.535972476
8.15,1.197555542,4.568735123,1.66321528
8.16,1.773709297,3.960193634,3.446947575
8.17,2.268556356,3.126703262,4.200594425
8.18,2.907315493,2.213594437,4.629278183
8.19,3.172080517,1.432876587,4.649085999
8.2,3.150392056,1.430758476,4.6348629
8.21,2.348175526,-0.075561523,1.981069088
8.22,1.574748993,-0.248502731,0.490155429
8.23,1.07001698,0.114899635,0.126214057
8.24,0.88481307,0.902132034,0.11962612
8.25,0.892035008,1.852200508,0.249698117
8.26,0.875528097,1.849761009,0.192049637
8.27,0.990062475,3.25314045,0.511680186
8.28,0.586363494,3.687150955,0.589541793
8.29,-0.144272059,3.755253792,0.772392392
8.3,-0.768111467,2.892351151,0.743235171
8.31,-0.879679561,1.447809219,0.650389195
8.32,-1.082231998,-0.360431671,0.317961425
8.33,-1.097186446,-0.360746384,0.285046101
8.34,-1.040236115,-2.118321419,-0.664131701
8.35,-0.708699465,-4.610759735,-1.091605544
8.36,-0.535900235,-5.388625622,-0.488835454
8.37,-0.172672182,-6.063214779,-0.210269839
8.38,-0.167883962,-6.28748703,0.06390366
8.39,-0.140977234,-6.286422729,0.070766389
8.4,-0.360144049,-6.019343376,0.529088855
8.41,0.186251849,-5.41932869,0.850650907
8.42,0.569377065,-5.020427704,0.753719866
8.43,0.55338037,-4.518528938,0.128421873
8.44,0.427706212,-4.04767561,-0.437478781
8.45,0.438581705,-3.564781189,-0.908627152
8.46,0.462282896,-3.563124657,-0.920295835
8.47,0.321401417,-2.543876648,-1.625683904
8.48,0.470326603,-2.025129795,-1.718655586
8.49,0.666122973,-1.446813583,-0.935954154
8.5,0.696899474,-0.897360802,-0.485066533
8.51,0.745770097,-0.515623093,-0.250888646
8.52,0.764616489,-0.215492249,-0.253938437
8.53,0.773794651,-0.214975357,-0.246876985
8.54,0.691249549,0.745335579,-1.221645594
8.55,0.694009364,0.745248795,-1.207348943
8.56,0.053521216,2.351610184,-1.452878118
8.57,-0.098420262,2.741705894,-1.487264037
8.58,-0.09580338,2.741641045,-1.47095108
8.59,-1.030098081,2.890554428,-2.163449049
8.6,-1.089074016,2.728671074,-2.722744942
8.61,-1.3929528,2.540838242,-2.015595198
8.62,-1.282896996,2.913746834,0.220921814
8.63,-0.447085381,3.499927521,1.70327282
8.64,-0.156387866,3.877515793,1.839568853
8.65,-0.125305355,4.303153038,1.677684426
8.66,-0.100373149,4.305362701,1.687044144
8.67,-0.888454676,4.499738693,3.15597558
8.68,-2.60182333,3.372961998,6.077143192
8.69,-2.34793663,2.033389091,5.796639442
8.7,-1.227360129,1.132962227,5.399978638
8.71,-0.177501679,0.396386147,5.08095932
8.72,0.055541217,0.211914063,4.01137495
8.73,-0.455028057,0.829224587,2.461061001
8.74,-0.643435955,1.549749374,1.149331093
8.75,-0.817394853,2.783110619,-0.134018898
8.76,-0.80947721,2.784612656,-0.175093979
8.77,-1.67533648,3.984406471,-0.609183133
8.78,-3.08224678,4.794930458,0.163036048
8.79,-3.786041021,4.631093025,1.086456418
8.8,-3.16892314,3.506259918,0.711411119
8.81,-1.77084887,1.458371162,0.182613313
8.82,-1.45773685,-0.225252152,0.070652068
8.83,-0.073586226,-2.000585079,-0.325724959
8.84,0.81038034,-3.353355408,-0.443652421
8.85,0.782042384,-3.356613159,-0.438672006
8.86,0.950771213,-4.578625202,-0.228116676
8.87,1.582033157,-6.413722992,0.031513929
8.88,1.773492217,-6.927244186,0.03305617
8.89,1.485069036,-7.158112526,-0.091013283
8.9,1.455993652,-7.161278725,-0.076824456
8.91,1.057732105,-7.099602222,-0.353852689
8.92,1.073708415,-6.805544853,-0.26570487
8.93,0.887990236,-6.504163742,-0.228815556
8.94,0.867705703,-6.039844513,-0.510749936
8.95,0.79173106,-5.486883163,-0.5149526
8.96,0.474590421,-4.864256382,-0.78120327
8.97,0.440848649,-4.229467869,-0.592217445
8.98,0.21417284,-3.400539875,-0.5204494
8.99,-0.478661597,-2.434961796,-1.170097589
9,-0.660207093,-1.720650673,-1.591277122
9.01,-0.948536992,-0.893707275,-1.38758719
9.02,-0.913810611,-0.052089691,-1.553594947
9.03,-0.921846628,-0.053059578,-1.516912699
9.04,-0.978871226,1.112303734,-1.508034706
9.05,-0.880103529,2.000136375,-1.178523302
9.06,-0.930771828,2.938359261,-0.938191712
9.07,-1.071179152,4.029876709,-0.333402455
9.08,-1.078599215,4.029578209,-0.309883177
9.09,-2.122780085,4.991597176,1.526492238
9.1,-2.626112461,4.220001221,0.257460564
9.11,-3.186059713,3.168354034,-1.911169648
9.12,-4.135624886,2.083649635,-3.276466608
9.13,-4.121753216,2.084591866,-3.25918746
9.14,-3.106962204,2.926786423,-1.369594097
9.15,-0.144280851,4.109535217,0.122766919
9.16,2.42318058,4.572219849,0.579687715
9.17,3.186472416,4.850743294,1.642221808
9.18,3.248770714,5.254617691,2.381603718
9.19,2.614605904,5.034461975,3.306670666
9.2,2.631191492,5.039064407,3.371088266
9.21,2.318485975,2.939002991,4.116660595
9.22,2.481793642,1.576196671,3.042553902
9.23,2.752405405,0.36255455,1.400876522
9.24,3.072559834,-0.19387722,0.150610477
9.25,3.034858942,-0.198056221,0.117083043
9.26,2.855307817,0.091685295,-0.554767728
9.27,2.310877085,1.528323174,0.257796675
9.28,1.977876544,2.345273018,0.208847344
9.29,1.229254007,3.150943756,0.138781488
9.3,-0.712195158,3.744351387,0.46436137
9.31,-2.446679592,3.450428963,0.867750764
9.32,-2.456791878,3.448890686,0.798570991
9.33,-2.05128026,-0.117521286,0.935322285
9.34,-1.202957034,-2.199184895,-0.007946721
9.35,-1.312589526,-3.839793205,-0.641652525
9.36,-1.157210946,-5.05123806,-0.690337062
9.37,-0.619011998,-6.058720589,-0.728642941
9.38,-0.605177581,-6.057810783,-0.756759465
9.39,-0.150471568,-6.746117592,-0.734478772
9.4,-0.012083888,-7.07256031,0.507383823
9.41,0.340978146,-6.5916605,1.7588557
9.42,0.890150666,-6.132040501,1.509504795
9.43,1.329471827,-5.754175663,0.474736124
9.44,1.52359581,-5.117828369,0.040118903
9.45,1.461556673,-4.490879059,0.003872693
9.46,1.296713591,-4.048229694,-0.365476042
9.47,1.177785158,-3.495574474,-0.792798519
9.48,1.101600051,-2.893012047,-1.108128786
9.49,1.00679183,-2.353306293,-1.272233605
9.5,0.984457195,-1.639430046,-1.387115955
9.51,0.672652781,-0.901984215,-1.293411016
9.52,0.315093756,-0.128700256,-0.949204564
9.53,0.220285624,0.46276474,-0.552662432
9.54,-0.112151146,1.145269394,-0.635751247
9.55,-0.109790564,1.145327568,-0.633391976
9.56,-0.163410783,1.884972572,-1.108921409
9.57,-0.478972018,2.890252113,-1.652105808
9.58,-0.583466113,3.26813221,-1.714354038
9.59,-0.577816427,3.267705917,-1.690715671
9.6,-0.370552421,3.525997162,-2.057191849
9.61,-0.315617681,3.307991028,-2.285923958
9.62,-0.30434078,3.308189392,-2.265655518
9.63,-1.076807499,3.36163044,-0.163344637
9.64,-0.498398721,4.442714691,1.845436692
9.65,0.758218765,5.313018799,2.280095577
9.66,0.683469594,5.275410652,1.089754581
9.67,-0.588954628,4.646948814,1.680245042
9.68,-0.556611002,4.649093628,1.716513038
9.69,-1.73709774,2.523150444,3.508003712
9.7,-1.686720848,0.985766411,4.073274136
9.71,0.01834619,-0.059288025,4.96202898
9.72,0.004564285,-0.060453415,4.947700977
9.73,1.783828735,-0.79039669,4.497957706
9.74,0.970614553,0.246851921,3.140210867
9.75,0.952412844,0.245616913,3.117251396
9.76,-0.443057478,3.132577896,0.148639754
9.77,-2.488908052,4.679667473,-0.253791094
9.78,-4.412573814,6.142021179,0.095221624
9.79,-5.358576298,6.534426689,0.621934533
9.8,-3.988743544,5.618961334,1.431959629
9.81,-4.000607967,5.619005203,1.38853693
9.82,-1.900491834,3.372441292,1.757213712
9.83,-0.834848464,-0.116723061,0.050685704
9.84,-0.280443609,-1.535015106,-0.880841792
9.85,0.433696955,-2.915308475,-0.616276979
9.86,0.774036765,-4.116243839,-0.410985589
9.87,1.263833165,-5.108896732,-0.572839022
9.88,0.823919535,-5.771307945,0.138954163
9.89,0.803503037,-5.772501945,0.132430881
9.9,1.205091238,-5.881567955,0.762835145
9.91,1.221438289,-6.254216194,0.371414006
9.92,0.939228058,-6.210165977,0.50116241
9.93,0.944437146,-6.154168129,-0.039621443
9.94,0.766743839,-6.076854706,-0.456532806
9.95,0.586441398,-5.820003033,-0.460943312
9.96,0.565634191,-5.82162714,-0.44354412
9.97,0.304028481,-5.179175854,-0.893764019
9.98,0.281664074,-5.180711269,-0.87679708
9.99,-0.306307137,-4.159759045,-1.338178396
10,-0.964700103,-3.370806217,-1.355880141
10.01,-1.486051679,-2.497741699,-1.338033915
10.02,-1.780160785,-1.698609352,-1.271271586
10.03,-1.555038333,-0.714630127,-1.098530173
10.04,-1.537760735,-0.714244843,-1.046249151
10.05,-1.566842914,0.85499382,-0.983376205
10.06,-1.535685301,0.856833458,-0.91789341
10.07,-1.262010813,1.381245613,-1.203377128
10.08,-1.355719924,2.380190849,-0.81899488
10.09,-1.00919795,2.691969872,-0.244812965
10.1,-0.430981576,2.811519623,0.052288264
10.11,-0.427649796,2.812685966,0.081862748
10.12,-1.554053783,2.805583,-0.51511097
10.13,-2.789657831,2.489239693,-1.194740534
10.14,-3.937451124,1.938477516,-2.185943127
10.15,-3.728410244,2.035228729,-2.204392433
10.16,-3.13673234,3.076600075,-0.712845504
10.17,-0.586363256,4.399523735,-0.305248261
10.18,2.312623024,5.348052025,-1.157512665
10.19,2.324903488,5.353553772,-1.06686306
10.2,3.653272867,5.85736084,2.519138336
10.21,3.943275928,5.393715858,4.377420902
10.22,3.752197742,4.610307693,5.028922558
10.23,3.383030176,3.571164131,4.95857048
10.24,2.538433313,2.304698944,3.789947033
10.25,2.517859221,2.302941322,3.787087917
10.26,1.918449521,0.164053917,-0.379402876
10.27,1.549543619,0.109423637,-1.477088094
10.28,1.517331362,0.104156494,-1.518598795
10.29,1.537223816,1.565360069,0.043586016
10.3,1.653309345,2.44987011,0.713850081
10.31,0.874937713,3.126876831,0.995262146
10.32,-0.050061882,3.503387451,1.289270759
10.33,-0.91470778,3.286977768,1.538611412
10.34,-1.380707145,1.900407791,0.788549721
10.35,-1.213543415,0.373298645,0.304593116
10.36,-1.285180926,-1.170150757,-0.055188417
10.37,-1.108742714,-2.677285194,-0.127988607
10.38,-0.569826663,-4.112347603,-0.110355556
10.39,-0.216673434,-5.243026733,-0.051362038
10.4,-0.210296601,-5.243128777,-0.065771952
10.41,-0.335518509,-6.461042404,0.026582882
10.42,-0.306552529,-6.459754944,0.023897588
10.43,-0.413597703,-6.577793121,0.178678483
10.44,-0.047279716,-6.496861458,0.260140806
10.45,0.256730408,-6.312894821,0.234471977
10.46,0.288740605,-6.311063766,0.231071219
10.47,0.916486263,-5.366008282,0.229562134
10.48,0.945219934,-5.364210606,0.223757535
10.49,1.048975706,-4.825953484,-0.204768971
10.5,0.793322861,-4.06734848,-0.67944926
10.51,0.711078823,-3.30180645,-1.017145276
10.52,0.915970027,-2.072525978,-1.149477005
10.53,0.928556323,-1.406460762,-0.851409197
10.54,0.885040164,-0.647321701,-0.17011413
10.55,0.888965845,-0.647249222,-0.184054256
10.56,-0.038420439,0.385034561,-0.065220669
10.57,-0.41180867,0.874403954,-1.124773264
10.58,-0.83337158,1.256193161,-2.03803134
10.59,-1.052953005,1.824678421,-2.555335283
10.6,-1.04535675,1.825544357,-2.542360306
10.61,-0.968386054,2.874886513,-1.95430541
10.62,-0.964009166,2.875360489,-1.948627949
10.63,-0.432900786,2.894869804,-1.475455523
10.64,-0.425809383,2.895471573,-1.475910068
10.65,-0.973756433,2.494386673,-1.370223761
10.66,-0.843493819,3.001237869,0.11831972
10.67,-0.050330281,3.986868858,1.655300021
10.68,0.326427698,4.548344612,1.767568588
10.69,0.423268259,4.796474457,1.495989323
10.7,-0.493401408,4.731787682,2.49951458
10.71,-0.785156548,4.050173759,3.434943914
10.72,-0.759320378,4.053445816,3.459153891
10.73,-0.93859458,2.425753593,4.996744633
10.74,-0.589506984,1.496225357,4.990047932
10.75,0.108436406,1.110143661,4.73990202
10.76,0.259518564,0.806348801,3.830150843
10.77,-0.009777904,1.059707642,2.319854975
10.78,-0.444912136,1.592905998,1.113321781
10.79,-0.464935243,1.589921951,1.075013161
10.8,-0.94020319,2.516242981,0.656840682
10.81,-3.310236931,4.583353043,2.151044607
10.82,-3.306419849,4.583049774,2.084685802
10.83,-3.938961983,4.147722244,1.919940114
10.84,-2.620584488,2.364433289,0.447161585
10.85,-1.15630281,0.532661438,-0.630956173
10.86,-1.166952491,0.531810761,-0.648923218
10.87,-0.387207866,-1.219709396,-1.397017598
10.88,0.60553968,-3.704275608,-1.305453897
10.89,1.246017456,-4.666434288,-0.893507838
10.9,1.603123665,-5.442185402,-0.508204162
10.91,1.466770887,-5.782263756,0.012732059
10.92,1.034064412,-5.942457199,0.601653695
10.93,1.071430326,-5.963703632,0.724259019
10.94,1.299459338,-6.162261009,0.470729351
10.95,1.40783596,-6.08073616,0.193667606
10.96,0.999360502,-5.893824577,0.063136995
10.97,0.712611556,-5.584476948,-0.195348308
10.98,0.570152581,-5.262945652,-0.272472411
10.99,0.21152553,-4.761658669,-0.450840145
11,0.192215592,-4.762971878,-0.427349985
11.01,-0.208222866,-4.136780739,-0.502270997
11.02,-0.866501629,-2.914178848,-1.198220134
11.03,-0.87535274,-2.914683342,-1.168343544
11.04,-1.699004889,-1.578477859,-1.737407684
11.05,-2.010810614,-0.796908379,-1.482153058
11.06,-1.986245155,-0.794961929,-1.429258823
11.07,-2.056200981,-0.157818794,-0.701013386
11.08,-1.798725843,0.666823387,-0.66352129
11.09,-1.442070842,1.264388084,-1.216735244
11.1,-1.261859894,1.859698296,-1.112235904
11.11,-0.931771398,2.349324226,-0.627871394
11.12,-0.577435792,2.787683487,0.011116564
11.13,-0.62524128,2.85090065,0.015954882
11.14,-1.581313848,2.779457092,-0.312668383
11.15,-2.793473244,2.502232552,-1.333400249
11.16,-3.218357086,2.259216309,-2.049329281
11.17,-2.775557518,2.965373039,-1.261657357
11.18,-1.264014006,3.849951744,-0.387749314
11.19,1.086907744,4.688635826,0.161144495
11.2,2.238873482,5.051659584,0.625493169
11.21,2.850263834,5.578586578,0.97582531
11.22,2.864533424,5.586953163,1.063597202
11.23,3.648877144,5.932237625,2.646681309
11.24,3.290272236,5.130231857,3.529556751
11.25,3.285215139,5.13356781,3.566896677
11.26,1.279829741,4.115795135,4.036435604
11.27,1.28962481,2.520524025,2.436782837
11.28,2.056538105,0.011796951,-0.943642736
11.29,1.389162898,0.102011681,-0.987253428
11.3,1.365324616,0.097018242,-1.017144203
11.31,1.140267611,1.293297768,-0.499670982
11.32,1.118305683,1.28752327,-0.542991996
11.33,0.111969292,2.672719955,0.737618089
11.34,-1.050871372,2.85599041,1.458625555
11.35,-1.943053484,2.070096016,1.925639629
11.36,-1.670605659,0.479870796,1.69575417
11.37,-1.190250754,-1.445111275,0.917638779
11.38,-0.798053086,-2.902350426,-0.248129308
11.39,-0.520020962,-4.099936485,-1.10488081
11.4,-0.127942741,-4.824827194,-0.928566694
11.41,-0.122167647,-4.826158524,-0.966407418
11.42,1.017676353,-6.067192078,0.277104944
11.43,1.171705961,-6.234901905,0.349636465
11.44,1.193397522,-6.234157085,0.327391297
11.45,0.827113509,-5.619557858,0.579185724
11.46,0.862211466,-5.617147923,0.570292234
11.47,0.770750046,-5.233763695,0.725125551
11.48,0.742513418,-4.345049858,-0.023121208
11.49,0.917483628,-4.007081032,-0.374071896
11.5,0.987025499,-3.758024216,-0.559345841
11.51,0.991356909,-3.425654888,-0.700447917
11.52,1.193857193,-3.134699821,-0.909684539
11.53,1.345529199,-2.751040936,-0.86537385
11.54,1.373717189,-2.197969437,-0.461336196
11.55,1.15422821,-1.508756638,-0.074676037
11.56,0.975876749,-0.745329857,0.07573773
11.57,0.974575043,-0.745477676,0.075229213
11.58,0.075242698,0.921448708,-0.862302899
11.59,-0.676426232,1.635950089,-1.221530557
11.6,-1.195543766,2.31519413,-1.06924057
11.61,-1.180001736,2.317282677,-1.053340197
11.62,-1.556444407,3.002128601,-1.881266832
11.63,-1.43622601,3.225006104,-2.354398489
11.64,-1.423512697,3.227369308,-2.329819918
11.65,-0.476565242,1.771261215,-2.173888683
11.66,-0.676918984,1.54076004,-1.659807563
11.67,-1.112929225,2.203391075,-0.048977911
11.68,-0.336613655,3.380554199,1.164147377
11.69,-0.330493093,3.38120079,1.163410187
11.7,0.988722086,5.050613403,1.682337165
11.71,0.233946562,5.839401245,3.38389802
11.72,0.250162602,5.841168404,3.382920504
11.73,-1.561929822,4.76818943,5.351861954
11.74,-1.638292432,3.302350044,4.82424593
11.75,-1.631698132,3.302715302,4.815526009
11.76,-0.066879988,1.19926548,3.418488026
11.77,-0.081581354,1.196620941,3.397314548
11.78,-0.840893507,1.947782516,1.764872074
11.79,-1.403066158,2.445741653,0.638180614
11.8,-2.079924583,3.042581558,0.007683098
11.81,-2.755304337,3.508496284,0.112703562
11.82,-3.013817549,3.531729698,0.310501963
11.83,-2.308996916,3.214676857,0.325591564
11.84,-1.520977497,2.463356972,0.194639444
11.85,-0.860461593,1.457444191,0.454897374
11.86,-0.259118915,0.347694397,0.856404305
11.87,0.55024159,-1.006533623,1.040184975
11.88,0.514733672,-1.01050663,1.000649929
11.89,1.004780054,-2.905752659,1.045221567
11.9,1.457336068,-3.862313271,0.809932768
11.91,1.457745314,-4.584172726,0.669050336
11.92,1.421381593,-4.58722353,0.65515542
11.93,1.038007498,-5.150202751,0.769074202
11.94,0.954776883,-5.648369789,-0.079636797
11.95,0.8656286,-5.71557188,-0.632656395
11.96,0.729987979,-5.581419468,-0.655215859
11.97,0.57502681,-5.229106903,-0.329671979
11.98,0.547102749,-5.230839729,-0.307071745
11.99,0.049542725,-4.715127945,-0.131124258
12,-0.026557446,-4.378833771,-0.297887564
12.01,-0.188303769,-3.948975563,-0.519277573
12.02,-0.52595973,-3.597943306,-0.765044034
12.03,-0.546428561,-3.598575592,-0.739593625
12.04,-0.854505301,-3.297200203,-0.790499985
12.05,-0.920230687,-2.447126865,-0.52727735
12.06,-1.256554127,-1.991631031,-1.156689644
12.07,-1.524992704,-1.30062294,-1.367485404
12.08,-1.421051025,-0.615905762,-0.874598324
12.09,-1.131711245,0.194016457,-0.414679825
12.1,-1.104876995,0.197761536,-0.361771822
12.11,-1.501652479,1.983867645,-1.055740952
12.12,-1.331557751,2.686133385,-1.258216858
12.13,-1.507241726,3.429154396,-1.364111423
12.14,-1.575298548,4.013326645,-1.387936115
12.15,-1.6202631,4.146330833,-1.32418704
12.16,-1.985892534,3.528605461,-1.271024466
12.17,-1.980205059,3.530075073,-1.257032156
12.18,-2.882196903,2.243273735,-1.103291392
12.19,-2.617482901,2.688662529,-0.413474977
12.2,-2.592514515,2.692831993,-0.385080636
12.21,0.946380079,4.039376259,-0.653535247
12.22,2.024288416,4.079195976,0.649432659
12.23,2.411204815,3.982712746,2.909115076
12.24,2.585790634,3.762200356,3.57329607
12.25,2.544868946,3.376173019,3.460037231
12.26,2.551207781,3.3811903,3.499433279
12.27,2.187651634,2.069453239,1.602082491
12.28,2.185829878,2.070471764,1.611937523
12.29,1.47480607,1.220328331,-0.241090775
12.3,1.007555008,1.450823784,-0.458168745
12.31,1.051962614,1.778912544,-0.284670115
12.32,1.203776121,2.292801857,0.127974987
12.33,1.197259665,2.779234886,0.562653899
12.34,1.177076578,2.773921013,0.528583288
12.35,0.914736867,3.086051941,0.948977947
12.36,0.889076114,3.079417229,0.90183568
12.37,0.248768091,2.620310783,1.184961438
12.38,-0.183146775,1.483923912,1.305223107
12.39,-0.535935581,-1.234448433,0.344947189
12.4,-0.683846891,-2.543811798,-0.367692173
12.41,-0.687595129,-2.547243118,-0.410173476
12.42,-0.277925253,-4.424663067,-0.168001175
12.43,0.076516032,-5.037056446,0.060797274
12.44,-0.185647965,-5.267798424,0.614821792
12.45,-0.338468254,-5.301210403,0.919484198
12.46,-0.30636543,-5.300147057,0.89839673
12.47,0.04992491,-5.408485889,0.843863845
12.48,0.322984576,-5.497354984,0.544965327
12.49,0.421339929,-5.32043314,0.471938223
12.5,0.573312283,-5.047883034,0.712014079
12.51,0.896733165,-4.411498547,-0.025589943
12.52,0.959056556,-4.012272358,-0.214860052
12.53,0.979149222,-4.011253834,-0.232137948
12.54,1.249463081,-3.663676739,-0.28552857
12.55,1.485933781,-3.199449539,-0.425398141
12.56,1.227220535,-2.625447273,-0.452280164
12.57,0.914453507,-1.197051048,0.082745016
12.58,0.621341467,-0.633285523,0.219614953
12.59,0.20223099,-0.045422554,0.096138209
12.6,-0.193006992,0.526035309,-0.347516775
12.61,-0.455055535,1.073941231,-1.119461179
12.62,-0.860494912,1.703576088,-1.97377336
12.63,-1.053613186,2.285430908,-1.905486107
12.64,-1.058802605,2.285051346,-1.902619362
12.65,-0.735660136,3.177453995,-1.327571154
12.66,-0.640409172,3.253321648,-1.369275928
12.67,-0.426638126,2.869562149,-1.314062476
12.68,-0.645134032,2.3903265,-1.40099144
12.69,-1.238174677,1.950007439,-0.973816991
12.7,-1.484446287,2.216983795,0.766734183
12.71,-0.827427447,2.924841881,1.827761173
12.72,-0.356381774,3.510684013,1.13353157
12.73,-0.340626001,3.513015747,1.155780077
12.74,-0.4262923,3.492717743,1.799604654
12.75,-0.436176777,2.86986351,3.052202463
12.76,-0.390305996,1.984402657,3.426029205
12.77,-0.34841156,1.990010262,3.447695255
12.78,-0.186722636,0.951153755,3.658675432
12.79,-0.157403827,0.954825401,3.662759304
12.8,-0.257495046,1.526380539,2.387780666
12.81,-0.473854661,2.022602081,1.579907775
12.82,-0.74228096,2.95588398,1.019794226
12.83,-1.737348795,4.036895752,1.037633419
12.84,-2.190814495,4.756304741,1.154735088
12.85,-2.197087288,4.754649162,1.133285522
12.86,-2.335631371,4.723273277,1.33205986
12.87,-2.103095055,4.054530144,1.298211575
12.88,-1.325068355,2.827540398,0.959274173
12.89,-0.242489696,0.082766533,-0.393461466
12.9,-0.231032014,-0.944806099,-0.502812982
12.91,0.083407223,-1.83082056,-0.261998922
12.92,0.506316662,-2.647525311,0.016806394
12.93,0.479447365,-2.650286198,0.016553581
12.94,0.576444984,-3.649018764,1.088281512
12.95,0.756583035,-4.079963684,0.871836186
12.96,0.729587793,-4.082143784,0.882363439
12.97,0.90786618,-4.627494335,0.678116918
12.98,0.64589107,-4.830183029,0.453130722
12.99,0.685769856,-4.972709656,0.008894444
13,0.680434465,-5.040874004,-0.209250689
13.01,0.757080197,-5.096954346,0.003831744
13.02,0.738166511,-5.097961426,0.016515881
13.03,0.240108252,-4.753967762,-0.119343787
13.04,0.021219552,-4.464878559,-0.288100243
13.05,-0.096647441,-3.986580372,-0.878952265
13.06,-0.393957615,-3.45311594,-1.145297289
13.07,-0.42306912,-2.883491039,-1.389433742
13.08,-0.620853901,-2.292062283,-1.33946228
13.09,-0.797500312,-1.573580742,-0.887325048
13.1,-0.973409236,-0.986510277,-0.401134312
13.11,-0.975414991,-0.98565197,-0.38295126
13.12,-0.867302418,-0.00265789,-0.122980893
13.13,-1.241650581,0.459269524,-0.334933579
13.14,-1.524019718,0.826909065,-0.688132107
13.15,-1.59388864,1.125886917,-1.087555885
13.16,-1.572292566,1.130705833,-1.043333888
13.17,-1.457130432,1.405943871,-1.406382799
13.18,-0.874795079,2.135489464,-0.903554916
13.19,-0.865147293,2.138586044,-0.875938892
13.2,-1.031915545,2.588718414,-0.472471178
13.21,-3.224267244,2.217920303,-1.174620867
13.22,-3.203584671,2.221197128,-1.157684565
13.23,-3.36739397,2.07234478,-1.322843552
13.24,-2.037943125,2.688022614,-0.096754789
13.25,0.567811489,3.900407791,0.101006091
13.26,1.944390535,4.553613663,-0.006457329
13.27,2.584461212,4.893615723,0.81753999
13.28,2.597554445,4.901139259,0.87264961
13.29,2.767783165,4.901348114,2.960168839
13.3,2.777730703,4.907787323,3.004173279
13.31,2.242323875,2.915394783,2.514264584
13.32,1.768535256,1.721160889,1.944802761
13.33,1.801461101,0.644352913,1.048797965
13.34,1.964737892,0.176327705,-0.040499568
13.35,2.148319483,0.238527298,0.185788751
13.36,2.466295719,0.792449951,0.483233929
13.37,2.52386713,1.364498138,0.471669555
13.38,2.334203482,2.295866966,0.938729048
13.39,1.701369524,3.1170578,1.530683517
13.4,0.929646611,3.562547684,1.49599123
13.41,-0.021925569,3.371665955,1.277709126
13.42,-0.145242155,2.118467331,1.424705267
13.43,-0.16690743,2.112129211,1.374351621
13.44,-0.18248421,-0.867586136,0.120800972
13.45,-0.431214869,-2.158580303,-0.364831269
13.46,-0.158872485,-3.547543049,-0.184443235
13.47,0.094320357,-4.419369698,-0.209672391
13.48,0.077520311,-4.42398262,-0.261321068
13.49,0.093354583,-5.270404816,0.539045692
13.5,-0.105712175,-5.162874222,0.757952273
13.51,-0.167721868,-4.843566418,0.716163755
13.52,-0.154382765,-4.844108105,0.688118398
13.53,-0.156549275,-4.412992001,0.495283157
13.54,0.337903529,-3.634350777,0.36482811
13.55,0.737742841,-3.418232918,0.165740669
13.56,0.811020255,-3.166147709,0.160703123
13.57,0.769371927,-2.976151943,0.064422041
13.58,0.794113815,-2.888997555,-0.427949697
13.59,0.797875226,-2.586331844,-0.586609244
13.6,0.809975743,-2.585464954,-0.588256121
13.61,0.546566844,-2.306875706,-0.439704061
13.62,0.557018042,-2.306066036,-0.440250307
13.63,0.599803746,-1.857469559,-0.313024133
13.64,0.741230607,-1.49032402,-0.290995896
13.65,0.74603188,-1.489387512,-0.278615147
13.66,0.634075761,-0.523495674,-0.493860453
13.67,0.547847271,0.0617733,-0.640138626
13.68,0.419373035,0.601561546,-1.036119223
13.69,0.239046335,1.148600578,-1.09360218
13.7,0.075474322,1.748495102,-0.995429575
13.71,-0.1969437,2.248117447,-0.986554503
13.72,-0.367017686,2.336148262,-1.186081648
13.73,-0.378090084,1.990887642,-1.348799825
13.74,-0.383947015,1.501813889,-1.264154911
13.75,-0.327437937,1.692498207,-0.16598016
13.76,-0.188829899,2.53655529,1.130890846
13.77,0.610829294,3.830746651,0.884005487
13.78,1.093171597,4.861825943,-0.102470577
13.79,0.062969685,5.49070549,0.688546658
13.8,-0.653112948,5.73621273,2.273697615
13.81,-0.653722048,5.736989021,2.284139872
13.82,-1.771921396,3.346241951,2.803226471
13.83,-1.764910698,3.347737312,2.814311504
13.84,-2.481025696,2.154068947,2.958935261
13.85,-1.816631794,0.686305046,3.699083567
13.86,-0.456549704,-0.434671402,3.482725143
13.87,-0.129709303,0.045874596,3.243231058
13.88,-0.133793354,0.045534134,3.243273497
13.89,-0.65363878,0.945669174,2.432806492
13.9,-2.047814608,3.203619957,0.843296766
13.91,-2.085415602,4.190199852,0.729375422
13.92,-2.115698576,4.577766418,0.746257842
13.93,-1.68394351,3.930123329,1.075419903
13.94,-0.608098447,2.42488575,1.056223035
13.95,-0.613533914,2.422958374,1.036808133
13.96,0.203163087,1.051522255,0.669534683
13.97,0.402862072,0.070427895,0.59464097
13.98,0.555410624,-0.805230141,0.570387781
13.99,0.546967387,-1.728467941,0.586515665
14,0.534323871,-1.729717255,0.58277005
14.01,-0.518854201,-2.051618576,1.483212471
14.02,-0.528717995,-2.052444458,1.482029319
14.03,-0.374950647,-1.974009514,1.660847902
14.04,-0.005285561,-2.385579586,0.116997182
14.05,-0.045208693,-2.540430069,0.066899717
14.06,-0.012681961,-2.668794155,-0.076147556
14.07,0.112354696,-2.739583015,-0.241631985
14.08,0.269768715,-2.76720047,-0.205109537
14.09,0.346864939,-2.785247326,-0.118082285
14.1,0.507588387,-2.839112759,-0.047829211
14.11,0.493235439,-2.837883472,-0.023126483
14.12,0.199774116,-2.805382729,0.479912818
14.13,0.186972767,-2.803946495,0.503850699
14.14,0.132105947,-2.788167477,0.486908287
14.15,0.144404888,-2.832462788,0.494610041
14.16,0.128495246,-2.767250061,0.485910714
14.17,0.052378029,-2.604123592,0.21673727
14.18,-0.224590123,-2.302227497,0.045048654
14.19,-0.25027284,-2.302061558,0.058945358
14.2,-0.746362567,-1.518942833,-0.292412996
14.21,-1.153074741,-0.972430229,-0.507617354
14.22,-1.169042349,-0.971299171,-0.491023302
14.23,-1.177079082,0.143492699,-0.705291987
14.24,-1.188023686,0.145127296,-0.687039375
14.25,-0.832097471,1.240679741,-0.013019323
14.26,-0.883323491,1.466588974,0.41202724
14.27,-1.206405044,1.20588398,0.548864901
14.28,-1.62990284,0.626063347,0.635400295
14.29,-1.751538277,0.3403759,0.975869179
14.3,-1.698237538,0.085596085,1.003980637
14.31,-1.704645753,0.087463379,0.03582108
14.32,-1.68997252,0.087802887,0.033893943
14.33,-1.799038649,0.454661369,-0.220010161
14.34,-0.820739865,1.901045799,0.561204553
14.35,0.097498685,3.074934959,0.379712641
14.36,1.228307962,4.589389801,0.638643086
14.37,2.135676861,5.998575211,0.563634694
14.38,2.18690753,7.050918579,0.179091454
14.39,1.224191427,7.543860435,0.925814688
14.4,0.957562804,6.164932251,1.681617379
14.41,0.925855517,3.999333382,1.882036448
14.42,0.630513072,1.989087105,1.22052002
14.43,0.772838235,0.084589005,0.463837564
14.44,0.751270533,0.081615448,0.443748772
14.45,1.581805468,-1.669009209,0.04459691
14.46,1.957433701,-1.439795494,0.658112347
14.47,1.870221496,-0.789484978,1.165575981
14.48,1.870685816,-0.093921661,1.624241114
14.49,1.833093405,-0.097873688,1.591701508
14.5,1.202528834,0.661792755,1.832778454
14.51,1.055696249,0.640666008,1.784831762
14.52,0.895341158,0.475803375,1.779472351
14.53,0.852000296,0.47146225,1.726251125
14.54,0.50667125,-0.001685143,1.493510604
14.55,0.331686378,-0.778183937,1.235951662
14.56,0.331417054,-1.400609016,0.963023663
14.57,0.426987857,-1.926618099,0.754916251
14.58,0.426702201,-2.042644978,0.617221057
14.59,0.563509643,-1.73207283,0.756428599
14.6,0.785954833,-1.481126785,0.693855286
14.61,1.013438702,-1.165316582,0.643842995
14.62,0.993239403,-1.165452003,0.633173704
14.63,1.010890245,-0.535850525,0.985529423
14.64,1.17579329,-0.265328407,0.798820138
14.65,1.13842082,-0.114360809,0.707096815
14.66,1.115427732,-0.114118576,0.698070645
14.67,1.131462336,-0.346041679,0.804705501
14.68,1.161996007,-0.48197937,0.94268167
14.69,1.136171818,-0.481331825,0.936424971
14.7,1.142173529,-0.602704048,1.166358471
14.71,1.09164238,-0.527646065,1.514610648
14.72,0.664003432,-0.457268715,1.435568929
14.73,0.200244814,-0.365339279,1.021570683
14.74,0.176638007,-0.364404678,1.015403867
14.75,-0.20712021,0.038764,0.579768121
14.76,-0.478808284,0.216806412,0.24602747
14.77,-0.489480197,0.217666626,0.253831416
14.78,-0.539911449,0.311908722,-0.176677227
14.79,-0.496840686,0.281458855,0.184606478
14.8,-0.454875171,0.162438393,0.349799156
14.81,-0.243565023,0.036393166,0.151402712
14.82,-0.045255929,-0.156659126,0.188675106
14.83,-0.002501965,0.17943573,0.310727447
14.84,-0.257533252,0.79801178,0.320121527
14.85,-0.478332311,1.310990334,0.372086763
14.86,-0.689062834,1.730412483,0.399060845
14.87,-1.070909977,1.850420952,0.503479064
14.88,-1.15038228,1.455523491,0.562618315
14.89,-1.237209439,0.713385582,0.514672339
14.9,-1.33366704,-0.08629036,0.318996787
14.91,-1.336309671,-0.086334229,0.314759553
14.92,-0.74738121,-1.448665619,0.03947407
14.93,-0.562462091,-1.666553497,0.143466532
14.94,-0.520296812,-1.700174332,0.189653754
14.95,-0.458147675,-1.42023468,0.204070598
14.96,-0.557370722,-0.893676758,0.104482323
14.97,-0.544937968,-0.893883705,0.11392647
14.98,-0.944962263,0.128325462,-0.147558332
14.99,-0.684554458,0.303170204,-0.611582637
15,-0.550343633,0.346676827,-0.687954962
15.01,-0.645626366,0.342445374,-0.646605551
15.02,-0.643859088,0.34310627,-0.633609831
15.03,-0.795364499,0.094777107,-0.615557373
15.04,-0.795235872,0.095477104,-0.603599787
15.05,-0.82220304,0.024263382,-0.242217124
15.06,-0.823643923,0.024723053,-0.235943496
15.07,-0.908927023,0.048936844,0.083149135
15.08,-1.033579826,0.183124542,0.606761634
15.09,-1.091359377,0.106611252,0.516752958
15.1,-1.08618784,0.10673523,0.522673547
15.11,-0.989741862,-0.079981804,0.105648637
15.12,-0.970810652,-0.11829567,0.170170516
15.13,-0.937400222,-0.073101044,0.234171689
15.14,-0.924403369,-0.073523521,0.237049818
15.15,-0.910455823,-0.148229599,0.18699041
15.16,-0.896250129,-0.148682594,0.189498574
15.17,-1.025031686,-0.175481796,-0.15031904
15.18,-1.217455626,-0.152111054,-0.326289475
15.19,-1.310904264,-0.097702026,-0.355083346
15.2,-1.293106437,-0.098488808,-0.356641114
15.21,-1.251089811,-0.072063446,-0.169395506
15.22,-0.953685224,0.04343605,0.302021861
15.23,-0.945346415,-0.084458351,-0.124402881
15.24,-0.893090129,-0.08505249,-0.121871293
15.25,-0.84597975,-0.044790268,0.122680843
15.26,-0.513370454,-0.13569355,-0.565184057
15.27,-0.409539074,-0.044246674,-0.27265197
15.28,-0.434440345,0.066293716,0.017754257
15.29,-0.571574032,0.31553936,0.400918245
15.3,-0.641053259,0.236577988,0.476594538
15.31,-0.693881929,0.066594124,0.280624151
15.32,-0.578306794,-0.136859894,0.060891628
15.33,-0.559023678,-0.136701584,0.060009003
15.34,-0.389861643,-0.179546356,-0.023689508
15.35,-0.529108048,-0.047543526,0.110644698
15.36,-0.397254318,-0.037547112,-0.050864816
15.37,-0.221860483,-0.079991341,-0.05591011
15.38,-0.116304457,-0.131984711,0.026293576
15.39,-0.20434995,-0.157640457,-0.214570344
15.4,-0.322121322,-0.214287758,-0.470260561
15.41,-0.357292235,-0.280398369,-0.487249315
15.42,-0.405803144,-0.298657417,-0.291270971
15.43,-0.397770375,-0.297944069,-0.28420645
15.44,-0.128668904,-0.13703537,-0.07380259
15.45,-0.125427157,-0.136854172,-0.072617769
15.46,-0.302379102,0.2126894,0.203914583
15.47,-0.215357602,0.219881058,0.044825673
15.48,-0.367598742,0.234379768,0.030755818
15.49,-0.376211554,0.162805557,0.084704638
15.5,-0.369566113,0.16324997,0.088034689
15.51,-0.307279795,0.027498245,-0.206692815
15.52,-0.285662592,-0.069643974,-0.368510127
15.53,-0.249399155,-0.236022949,-0.298166931
15.54,-0.26084584,-0.268327713,-0.130240202
15.55,-0.252329052,-0.267206192,-0.119879544
15.56,-0.2074624,-0.194378853,-0.106325507
15.57,-0.194408387,-0.128834724,0.001611292
15.58,-0.072008938,-0.128171921,0.04708308
15.59,-0.066193521,-0.127588272,0.05168736
15.6,-0.183040261,-0.138861656,0.062499404
15.61,-0.177375078,-0.138062477,0.069518328
15.62,-0.176763266,-0.21852684,-0.21142751
15.63,-0.224979103,-0.236751556,-0.118779421
15.64,-0.119139224,-0.257766724,-0.188124597
15.65,-0.168003321,-0.144946098,-0.324347019
15.66,-0.070469379,0.022762299,-0.053241014
15.67,-0.05532515,0.113586426,0.502476335
15.68,-0.031051278,0.139533997,0.241679311
15.69,-0.031037837,0.139436722,0.240314484
15.7,-0.175910771,-0.042520523,0.144113302
15.71,0.028701752,-0.112248421,0.180831254
15.72,-0.107627541,-0.102953911,-0.265451312
15.73,-0.196845591,0.028674126,0.092163742
15.74,-0.184722036,0.064248085,0.388737142
15.75,-0.301841348,0.080645561,0.256008208
15.76,-0.361107051,0.078130722,0.241284967
15.77,-0.33366096,-0.044125557,0.184966385
15.78,-0.348770261,-0.104095459,0.066510081
15.79,-0.343889207,-0.10409832,0.064103007
15.8,-0.392525435,-0.127842903,0.032067358
15.81,-0.34531042,-0.227889061,-0.031057656
15.82,-0.335896403,-0.227243424,-0.028277099
15.83,-0.03227067,-0.102145195,0.139228523
15.84,0.104597926,-0.041769981,0.193819225
15.85,0.091909707,0.061668396,0.045028031
15.86,0.066041052,0.145868301,0.118779361
15.87,0.086783588,0.258602142,0.303325534
15.88,-0.008627385,0.220367432,0.47241661
15.89,0.015187532,0.162831307,0.278699577
15.9,-0.002731562,0.071744919,0.056672752
15.91,-0.085947543,0.062086105,0.110186815
15.92,-0.085242033,0.061926842,0.107816041
15.93,-0.144324064,0.008998871,0.094806015
15.94,-0.143346757,0.008817673,0.091910899
15.95,-0.096688241,0.001504898,0.125446022
15.96,-0.090739459,0.018079758,0.311759323
15.97,-0.137299806,0.010715485,0.315927237
15.98,-0.135144681,0.010656357,0.313865632
15.99,-0.292591453,0.061068535,0.306254298
16,-0.147783518,0.053925514,0.309521377
16.01,-0.073302418,0.010789871,0.249922931
16.02,-0.071309775,0.010751724,0.248169363
16.03,0.178618938,0.032280922,0.189937532
16.04,0.111057252,0.060965538,0.175135851
16.05,-0.038205266,0.060896873,0.215619266
16.06,-0.079418778,0.060798645,0.24573952
16.07,-0.120404691,0.060668945,0.167778313
16.08,-0.204036832,-0.001574516,0.191658497
16.09,-0.236480862,-0.0446558,0.279726446
16.1,-0.196513534,-0.020685196,0.245462537
16.11,-0.132517874,-0.03496933,-0.027524531
16.12,-0.130446672,-0.034704208,-0.025555313
16.13,-0.268786252,0.02557373,-0.201771915
16.14,0.14831084,0.033120155,0.600629211
16.15,0.092234403,-0.038412094,0.421449572
16.16,-0.082968295,-0.013944626,0.129690409
16.17,-0.080453694,-0.013422966,0.134564698
16.18,0.086676121,-0.099328041,0.440765321
16.19,-0.1053496,-0.046577454,0.09815836
16.2,-0.209681571,0.059177399,0.041161597
16.21,-0.156366408,0.064273834,0.102672041
16.22,-0.154816866,0.064404488,0.103250742
16.23,-0.154413819,0.006996155,0.101363242
16.24,-0.155077875,0.00688839,0.10033977
16.25,-0.105783582,0.049765587,0.198934138
16.26,-0.008554697,0.102172852,0.22975409
16.27,0.048326015,0.125986099,0.238196015
16.28,0.041683286,0.063909531,0.165759265
16.29,-0.05954355,0.021262169,0.004918277
16.3,-0.175793111,-0.076210976,0.113729656
16.31,-0.171237946,-0.075507164,0.119401813
16.32,-0.137199462,-0.189734459,-0.07759589
16.33,0.010450006,-0.100408554,0.073587477
16.34,0.010501981,-0.099799156,0.080640316
16.35,-0.066288948,0.018182755,0.153244615
16.36,-0.070679486,0.035681725,0.13268435
16.37,-0.010792494,-0.009148598,0.070663273
16.38,-0.07817328,-0.011048317,0.162795305
16.39,-0.100236416,0.027622223,0.202991068
16.4,-0.101509452,0.027773857,0.205447853
16.41,-0.143441975,0.01115799,0.109681428
16.42,-0.144292414,0.011397362,0.112914443
16.43,-0.185079277,-0.050591469,0.079865038
16.44,-0.201371014,-0.057505608,0.111220837
16.45,-0.200228274,-0.05724144,0.113626719
16.46,-0.10112983,0.046030045,0.087709308
16.47,-0.113953531,0.048787117,0.152932763
16.48,-0.100689173,0.020397186,0.167819738
16.49,-0.039761484,0.020783424,0.183350861
16.5,-0.038693249,0.021100044,0.186188698
16.51,0.012435853,-0.009737015,0.174451649
16.52,-0.032202244,-0.052505493,0.155893028
16.53,-0.005397916,-0.052160263,0.104315996
16.54,0.009409904,-0.015852928,0.148871303
16.55,0.009515703,-0.015574455,0.15168637
16.56,-0.052638352,0.022918701,0.163346112
16.57,-0.052859902,0.02306366,0.164911449
16.58,-0.177006841,0.075817108,0.093616247
16.59,-0.214505374,0.07584095,-0.229653418
16.6,-0.213115037,0.075976372,-0.229088187
16.61,-0.351936638,0.150357246,-0.338955402
16.62,-0.02429074,0.126382828,0.650794923
16.63,-0.034603834,0.068922043,0.254649997
16.64,-0.032367766,0.069347382,0.257809937
16.65,-0.131236672,-0.047423363,0.450291157
16.66,-0.175997078,-0.049435616,0.496386766
16.67,-0.085789621,-0.137559891,-0.046173096
16.68,0.063274562,-0.211036682,-0.199724197
16.69,0.066457272,-0.210521698,-0.196241021
16.7,0.046679854,-0.047747612,0.343234241
16.71,-0.058885634,-0.000519753,0.370140195
16.72,-0.17407912,0.022601128,0.222817779
16.73,-0.216999531,0.07687664,0.015318155
16.74,-0.321614027,0.076229095,-0.135641456
16.75,-0.336590886,0.078291893,-0.09969908
16.76,-0.283615589,0.08070755,-0.053240359
16.77,-0.280000627,0.081059456,-0.05184859
16.78,-0.203623951,0.076809883,0.255029917
16.79,-0.047919035,-0.044495583,0.140799046
16.8,0.03185761,-0.115189552,0.146830678
16.81,0.037093163,-0.114081383,0.155128539
16.82,0.181734502,-0.139503479,0.205548942
16.83,0.183073044,-0.138899803,0.211003721
16.84,0.170585543,-0.071597099,0.3791973
16.85,0.168595523,-0.071662903,0.379765511
16.86,-0.121032119,-0.023975372,0.166174054
16.87,-0.236046433,-0.021865845,0.069069207
16.88,-0.238442659,-0.02230835,0.066124439
16.89,-0.390943408,-0.063473701,0.052809298
16.9,-0.372111321,0.010349274,0.09659493
16.91,-0.3685866,0.069906235,0.023431718
16.92,-0.265363693,0.079470634,0.078781247
16.93,-0.262209594,0.079549789,0.077732027
16.94,-0.12481916,0.077347755,0.096522689
16.95,-0.092651486,0.125394821,0.404904842
16.96,0.059272945,0.151818276,0.44663164
16.97,0.07378757,0.137524605,0.337814331
16.98,-0.076601446,0.092217445,0.287526965
16.99,-0.025054216,0.027963638,0.198312104
17,-0.021920621,0.028481483,0.201476157
17.01,0.035763144,-0.210469246,0.310096383
17.02,-0.017493725,-0.212594032,0.350078285
17.03,0.009848654,-0.128775597,0.25141263
17.04,-0.011965752,-0.073857307,0.079988241
17.05,-0.034255445,0.014620781,0.072116792
17.06,-0.19097954,0.031311989,-0.023597419
17.07,-0.305977225,0.057835579,-0.12220645
17.08,-0.32167536,0.082084656,-0.016648591
17.09,-0.179045081,0.082392693,0.270584226
17.1,0.059924483,0.029916763,0.380651295
17.11,0.139445603,0.020449638,0.373536766
17.12,0.13697046,0.020493507,0.375729322
17.13,0.091451228,-0.027425766,0.381756425
17.14,-0.00584805,-0.046654701,0.006105423
17.15,-0.061487138,-0.063117981,-0.078947484
17.16,-0.063012421,-0.062829971,-0.075069189
17.17,-0.039298475,0.083280563,0.38695097
17.18,-0.02860564,0.092708588,0.409353972
17.19,-0.023021996,0.097204208,0.361142933
17.2,-0.194138289,0.082596779,0.22693491
17.21,-0.158728063,-0.003536224,0.120113194
17.22,-0.251228571,-0.070240021,0.039013505
17.23,-0.248533309,-0.069594383,0.043893099
17.24,-0.053739071,-0.178922653,0.090750158
17.25,0.068381429,-0.185261726,0.286755443
17.26,0.070191085,-0.184472084,0.293593764
17.27,0.145864457,-0.061468124,0.112437069
17.28,0.044101298,-0.022247314,0.103859305
17.29,-0.000182331,-0.016557693,0.061519682
17.3,0.000899315,-0.015687943,0.0692541
17.31,-0.079551756,-0.000656128,0.063111544
17.32,-0.064878643,0.013931274,0.112966895
17.33,-0.053561389,0.030633926,0.081772268
17.34,-0.059581161,-0.002938271,0.187263668
17.35,-0.063116491,-0.091578484,0.144474149
17.36,-0.123502314,-0.072374344,0.114240527
17.37,-0.161380827,-0.048153877,0.037433147
17.38,-0.150331616,-0.009335518,0.063004315
17.39,-0.148686767,-0.008748055,0.067426145
17.4,-0.139708877,-0.03451252,0.177099764
17.41,0.036431074,-0.122672081,0.221171618
17.42,0.163859814,-0.155792236,0.116723597
17.43,0.163246661,-0.155526161,0.119544447
17.44,0.063868821,-0.105242729,0.151536942
17.45,-0.00503701,-0.088570595,0.156563878
17.46,-0.007536709,-0.08873558,0.15653646
17.47,-0.032001078,-0.074604034,0.129892647
17.48,-0.041902483,-0.067604065,0.04113555
17.49,-0.042039216,-0.019881248,0.002868652
17.5,-0.04933244,0.001505852,0.02435565
17.51,0.032007813,0.051688194,0.020142317
17.52,0.033672988,0.073143005,0.095336914
17.53,0.030902386,0.073126793,0.096754432
17.54,-0.187034428,0.029977798,-0.065109968
17.55,-0.252534986,0.006189346,-0.063117862
17.56,-0.097755909,-0.032010078,-0.025810957
17.57,0.153951347,-0.077548981,0.281545281
17.58,0.169374526,-0.099339485,0.506406009
17.59,0.161023647,-0.121208191,0.41450125
17.6,0.157884449,-0.121437073,0.414127171
17.61,0.043961227,-0.19343853,0.30327338
17.62,-0.002999783,-0.119297028,-0.264096737
17.63,-0.00536418,-0.119261742,-0.262559414
17.64,-0.011849821,-0.009516716,0.339553952
17.65,-0.016857088,-0.010240555,0.335545898
17.66,0.004428208,0.087068558,0.430908382
17.67,-0.004555523,0.103159905,0.302487433
17.68,-0.074639082,0.08826828,0.033573508
17.69,-0.077094913,0.087990761,0.03213501
17.7,-0.031168759,0.075883865,-0.003814697
17.71,-0.01418376,0.087879181,0.098066986
17.72,0.08910042,0.087915421,0.334195912
17.73,0.132936001,0.088053703,0.386454344
17.74,0.103026271,0.088300705,0.135711193
17.75,0.025620639,0.043367386,0.02160418
17.76,0.058986187,-0.058926582,0.082821071
17.77,0.046340346,-0.108712196,0.169124723
17.78,0.044783711,-0.108499527,0.172078848
17.79,-0.014839888,-0.041347504,0.202942014
17.8,-0.038850009,0.006580353,0.168608367
17.81,-0.069785833,0.090435028,0.201286495
17.82,-0.129080355,0.076192856,0.124444544
17.83,-0.211060286,0.038230896,0.07996273
17.84,-0.200446546,0.01228714,-0.00808537
17.85,-0.167840064,-0.001696587,0.006807327
17.86,-0.166210115,-0.001344681,0.009129643
17.87,-0.02121067,0.032375336,0.177782238
17.88,-0.077840984,0.053961754,0.213678837
17.89,-0.105046332,0.039636612,0.189304054
17.9,-0.098524094,0.032509804,0.150719225
17.91,-0.084718525,-0.019980431,0.096268773
17.92,-0.142411768,-0.057972908,0.124321938
17.93,-0.130499482,-0.074314117,0.177069545
17.94,-0.070936441,-0.037958145,0.165713012
17.95,0.002506018,0.015148163,0.264524639
17.96,0.013476312,0.089754105,0.406114161
17.97,-0.030564725,0.078038216,0.330940008
17.98,-0.076596677,0.07834816,0.172313392
17.99,-0.096553564,0.021202087,0.011514068
18,-0.050411165,-0.028790474,-0.022305131
18.01,-0.115510762,-0.078922272,-0.118875861
18.02,-0.190089524,0.024179459,-0.119772553
18.03,-0.302859545,0.079399109,0.058845758
18.04,-0.139292479,0.096377373,0.57035017
18.05,-0.138713539,0.096427917,0.570478678
18.06,0.055367172,0.049119949,0.43425858
18.07,0.010893881,0.004202843,0.30226481
18.08,0.043518424,-0.124686241,0.281091988
18.09,0.004063189,-0.121921539,-0.211983681
18.1,-0.035746992,-0.001548767,-0.029528618
18.11,0.027731717,0.09907341,0.416848183
18.12,0.022007167,0.091579437,0.523566425
18.13,-0.087248802,0.086370468,0.414209604
18.14,-0.057281315,0.0476017,0.294701695
18.15,-0.142318606,0.025507927,0.195995867
18.16,-0.130594075,0.022607803,0.106744885
18.17,-0.156407952,0.031894684,0.117298842
18.18,-0.109764278,0.058256149,0.153906763
18.19,-0.062603831,0.051289558,0.160879731
18.2,-0.053403735,0.032631874,0.220464647
18.21,-0.053347945,0.033340454,0.226600945
18.22,-0.02203095,0.03674221,-0.037769198
18.23,-0.016618371,0.037905693,-0.021016479
18.24,-0.018788755,-0.018504143,0.102763653
18.25,-0.033040464,-0.053419113,0.10619688
18.26,-0.00710851,-0.035813332,-0.035097599
18.27,-0.037163436,-0.018287659,0.062939405
18.28,-0.065511227,0.022978783,0.197811306
18.29,-0.058746576,0.066438675,0.173358083
18.3,-0.15458709,-0.00266552,0.289637506
18.31,-0.09362191,-0.057611465,0.173892736
18.32,0.020010948,-0.136548996,0.043441057
18.33,0.046870917,-0.10769558,0.102646709
18.34,0.045169383,-0.107785225,0.102733135
18.35,-0.061141133,-0.110351563,0.204820156
18.36,-0.073716939,-0.057862282,0.244162083
18.37,-0.05524987,-0.038788795,0.037956238
18.38,-0.141944647,0.044922829,0.073447824
18.39,-0.089728296,0.051858902,0.040506125
18.4,-0.04799825,0.104279518,0.089238644
18.41,0.005215704,0.092101097,0.131607294
18.42,0.07269004,0.080117226,0.055669069
18.43,0.070783347,0.080343246,0.058460236
18.44,-0.02587229,0.025689125,0.045380473
18.45,-0.014357209,-0.067213058,0.178606272
18.46,-0.014922976,-0.052567482,0.308119237
18.47,0.020010591,-0.035817146,0.265348434
18.48,0.01845634,-0.035949707,0.265026927
18.49,-0.124002397,0.062057495,0.161165357
18.5,-0.124995828,0.061836243,0.159931421
18.51,-0.276158869,0.002028465,-0.126926184
18.52,-0.276149511,0.00203228,-0.126808763
18.53,0.034540355,-0.11775589,0.528926134
18.54,-0.08830297,-0.098597527,0.100705862
18.55,-0.14519304,-0.138987541,-0.004772186
18.56,-0.151344836,-0.083683968,0.279045224
18.57,-0.003546834,-0.067065239,0.169539452
18.58,-0.002646983,-0.067066193,0.169133186
18.59,-0.026433408,0.062224388,0.145117879
18.6,-0.061084628,0.102518082,0.343295157
18.61,-0.017521441,0.10413456,0.462369502
18.62,-0.029907763,0.103178024,0.369577587
18.63,-0.134951472,0.097559929,0.21294564
18.64,-0.154591143,0.05385685,0.016633868
18.65,-0.264366269,0.048781395,0.071586013
18.66,-0.221840441,0.017599106,0.046271443
18.67,-0.164477885,0.022530556,0.118287325
18.68,-0.161850154,0.022788048,0.119294405
18.69,-0.010981143,-0.019901276,0.258109689
18.7,0.062873334,0.02614212,0.019887924
18.71,-0.038281024,0.079586029,0.0470227
18.72,-0.019852281,0.087490082,0.224501669
18.73,0.143235207,0.028185844,0.279061258
18.74,0.161074817,0.009380341,0.280188203
18.75,0.106339693,0.083841324,0.321298242
18.76,0.104360521,0.083913803,0.322715044
18.77,-0.084379375,0.024053574,0.151127577
18.78,-0.243528485,-0.021235466,0.007223129
18.79,-0.274904192,-0.063918114,-0.109010935
18.8,-0.276823342,-0.118492127,-0.081439495
18.81,-0.223470628,-0.137205124,0.101558209
18.82,-0.143185318,-0.069768906,0.175843716
18.83,-0.113024294,-0.004756927,0.116073966
18.84,-0.132888138,0.105909348,0.128975153
18.85,-0.102305651,0.080069542,0.13707912
18.86,-0.076267958,0.056669235,0.142746091
18.87,-0.074253976,0.023705482,0.105549455
18.88,0.039785266,-0.018843651,0.049411774
18.89,0.040181577,-0.018372536,0.052918315
18.9,0.013538539,0.041861534,0.146974325
18.91,0.01031512,0.063678741,0.144639492
18.92,0.009265065,0.06401062,0.147678495
18.93,-0.061232805,0.021219254,0.183881879
18.94,-0.060121238,0.023784637,0.154680014
18.95,0.008234859,0.071886063,0.173571587
18.96,-0.038882792,0.112752914,0.192248225
18.97,-0.040357828,0.112888336,0.193928719
18.98,-0.101149678,0.113041878,0.071024537
18.99,-0.202107847,0.113304138,-0.008128166
19,-0.206507921,0.077764511,-0.041450381
19.01,0.05513379,0.066207886,0.481026888
19.02,0.117239386,0.018496513,0.640523195
19.03,0.000218928,-0.02918911,0.246843219
19.04,0.008455873,-0.043209076,0.363938212
19.05,0.030995131,-0.122301102,0.54966408
19.06,0.051348209,-0.122647286,0.302180469
19.07,0.052184641,-0.122861862,0.300242722
19.08,0.064355612,-0.115813255,-0.035909653
19.09,-0.046910286,-0.044474602,0.034983516
19.1,-0.048875749,-0.045235634,0.029888749
19.11,-0.035267591,0.116475105,0.132781506
19.12,-0.122830629,0.187088013,-0.025786996
19.13,-0.168317974,0.293962479,-0.026819706
19.14,-0.169769049,0.293478966,-0.030050397
19.15,-0.160569549,0.224064827,-0.048808336
19.16,-0.045180261,0.109648705,0.249485135
19.17,0.181017011,0.007453918,0.36254257
19.18,0.181822151,0.008378029,0.369497836
19.19,0.211601824,-0.086039543,0.159250855
19.2,0.219454795,-0.183038712,0.115233541
19.21,0.238420159,-0.184509277,0.1032058
19.22,0.191097349,-0.155249596,0.129477263
19.23,0.187927812,-0.15513134,0.131518483
19.24,0.044410884,-0.042978287,0.233604789
19.25,-0.042129517,-0.009963036,0.176778317
19.26,-0.207237005,0.01820755,-0.002801061
19.27,-0.352054238,0.024978638,-0.07875669
19.28,-0.440595031,0.024626732,-0.046996236
19.29,-0.441321015,0.024383545,-0.048715353
19.3,-0.254280537,0.014678001,-0.009020925
19.31,-0.238508284,0.089075089,0.087532163
19.32,-0.108658075,0.110977173,0.091570735
19.33,-0.076304495,0.049257278,0.070119739
19.34,-0.026309848,-0.041004181,0.215202451
19.35,-0.021676898,-0.040478706,0.217228413
19.36,0.119066656,-0.133552551,0.258607984
19.37,0.122229219,-0.107077599,0.186442971
19.38,0.06466046,-0.064052582,0.232850194
19.39,0.104699343,-0.08823967,0.081885934
19.4,0.100277603,-0.105156899,0.02309823
19.41,0.02301836,-0.09582901,0.047757626
19.42,-0.028267324,-0.084241867,0.11230135
19.43,-0.051093817,-0.032060623,0.142685771
19.44,-0.035994291,0.020144463,0.086976886
19.45,-0.031316757,0.02207756,0.034294248
19.46,-0.039231002,0.000282288,-0.064613342
19.47,-0.042261124,0.000123024,-0.064494133
19.48,-0.214163423,-0.038308144,-0.160478473
19.49,-0.198140562,0.100411415,0.05655992
19.5,-0.065654874,0.112179756,0.19453764
19.51,0.03577888,0.157610893,0.36458087
19.52,-0.089818835,0.112008095,0.278056204
19.53,-0.152022898,0.028301239,0.096786857
19.54,-0.220207453,0.004620552,0.055251837
19.55,-0.16949141,-0.035707474,-0.21600914
19.56,-0.166861355,-0.035100937,-0.212444782
19.57,-0.036047876,-0.051335335,-0.072597861
19.58,0.122559995,0.095023155,0.492147028
19.59,0.048439175,0.044826508,0.605239034
19.6,0.046110332,-0.000944138,0.445148289
19.61,0.045750856,-0.00152874,0.4408409
19.62,0.028281361,-0.117219925,0.272463262
19.63,0.02738294,-0.118075371,0.266276658
19.64,0.005159378,-0.078213692,0.326989532
19.65,-0.026432693,-0.086279869,0.408993065
19.66,0.057576239,-0.072657585,0.436583459
19.67,0.024226725,0.017786026,0.140162349
19.68,0.025289714,0.017688751,0.138953567
19.69,-0.169072211,0.108764648,0.059803367
19.7,-0.166986585,0.108868599,0.05988574
19.71,-0.043697536,0.101823807,0.082014084
19.72,-0.073716939,0.109075546,0.204095841
19.73,-0.156446278,0.109220505,0.240782142
19.74,-0.155338883,0.109325409,0.241009474
19.75,-0.056068003,0.006436348,0.152575016
19.76,-0.086689413,-0.10367775,0.267579734
19.77,-0.083477676,-0.161198616,0.321739733
19.78,-0.032449484,-0.221235275,0.327212215
19.79,0.01860863,-0.228571892,0.273002029
19.8,0.019178808,-0.228728294,0.271437764
19.81,0.046180427,-0.169249535,0.335226417
19.82,0.046150327,-0.169697762,0.331700563
19.83,0.033842593,-0.091195107,0.284728229
19.84,0.049589783,-0.029661179,0.313010752
19.85,0.033247888,0.062951088,0.30525887
19.86,-0.00261271,0.097957611,0.358920872
19.87,-0.028912544,0.101754189,0.308684588
19.88,-0.064839959,0.052892685,0.201355159
19.89,-0.074296892,0.066430092,0.149981856
19.9,-0.102293372,0.00356102,0.219804049
19.91,-0.072215617,0.027032852,0.168544173
19.92,-0.117932439,0.050726891,0.18814975
19.93,-0.165348828,0.038712502,0.237777174
19.94,-0.139995337,-0.013905525,0.13950789
19.95,-0.11454308,0.005512238,0.1506567
19.96,-0.129656673,-0.02052021,-0.000829101
19.97,-0.128164113,-0.020098686,0.002028584
19.98,-0.205371618,0.042584419,-0.019157648
19.99,-0.034089208,0.102825165,0.230009973
20,-0.034206986,0.103077889,0.23216337
20.01,0.086586058,-0.023906708,0.576791585
20.02,0.0515351,-0.100798607,0.359772503
20.03,0.067269772,-0.13211441,0.181381583
20.04,-0.064922094,-0.089266777,-0.009605646
20.05,-0.064981997,-0.089332581,-0.010102391
20.06,-0.039462149,0.03497982,0.321452618
20.07,-0.042216718,0.034435272,0.31827867
20.08,-0.06008482,0.045761108,0.335992634
20.09,-0.151206911,0.03791523,0.199883282
20.1,-0.130997241,0.023088455,0.019358277
20.11,-0.167499125,0.032575607,0.030994058
20.12,-0.067047119,0.04236412,0.099689722
20.13,-0.014634967,0.045173645,0.08895576
20.14,0.080948353,0.076849937,0.218154669
20.15,0.077778757,0.041381836,0.387358964
20.16,0.005249679,0.034553528,0.258852422
20.17,0.039989769,-0.04637146,0.076495171
20.18,0.03823036,-0.045844078,0.081498027
20.19,-0.090277731,-0.07179451,0.13563931
20.2,-0.146556586,-0.064313889,0.071559548
20.21,-0.152154446,-0.040055275,0.019413829
20.22,-0.152949691,-0.039794922,0.021924853
20.23,-0.151572734,0.003482819,0.095447063
20.24,-0.118971795,-0.005943298,0.161714554
20.25,-0.031213045,0.008581161,0.13454926
20.26,-0.115884453,0.006429672,0.124933481
20.27,-0.10621354,0.023497581,0.077044964
20.28,-0.055612326,0.007066727,0.098727822
20.29,-0.06494391,-0.035840034,0.104936838
20.3,-0.064671814,-0.035714149,0.105791926
20.31,-0.052327484,-0.011818886,0.22027576
20.32,-0.054374605,-0.028674126,0.056476712
20.33,-0.06351915,-0.028646469,0.068617582
20.34,-0.063200295,-0.028574944,0.068978786
20.35,-0.060505837,0.045736313,0.160550475
20.36,-0.019521147,0.029076576,0.125354767
20.37,-0.00785315,0.024376869,0.183567286
20.38,0.051712334,0.012486458,0.167770624
20.39,0.05036971,0.012547493,0.16865921
20.4,0.133920074,0.038824081,0.327296197
20.41,0.084952146,0.103287697,0.40623939
20.42,0.026457071,0.098273277,0.298039377
20.43,-0.027026474,0.100515366,0.173590899
20.44,-0.066133827,0.086168289,0.131901979
20.45,-0.16214323,-0.035791397,-0.117391348
20.46,-0.199909389,-0.059380531,-0.267037869
20.47,-0.29473111,-0.06614399,-0.181805015
20.48,-0.106870204,0.022768021,0.431761801
20.49,-0.109038502,0.022756577,0.432525218
20.5,0.127367914,0.018122673,0.504194915
20.51,-0.131474197,-0.026709557,0.377778053
20.52,-0.129825831,-0.026139259,0.381754041
20.53,-0.215786874,-0.111631393,-0.272295833
20.54,-0.143521458,-0.036499023,-0.060348392
20.55,0.081027359,0.057329178,0.454800546
20.56,0.101548255,0.109833717,0.5854581
20.57,0.100217581,0.10962677,0.584433496
20.58,0.027457327,0.109424591,0.377372026
20.59,-0.073917031,0.044559479,0.124557495
20.6,-0.155562609,0.049209595,0.075728536
20.61,-0.078745961,0.054045677,0.162153363
20.62,-0.049644321,0.075708389,0.299455285
20.63,0.00379777,0.06867981,0.293100119
20.64,0.040541619,0.052206993,0.366845608
20.65,0.024609387,0.057369232,0.230551839
20.66,-0.022333264,0.041178703,-0.012094259
20.67,0.002681196,0.022908211,-0.060753226
20.68,-0.018969864,-0.009670258,0.099671721
20.69,0.116880387,-0.01600647,0.139936328
20.7,0.055589706,0.023141861,0.03896451
20.71,-0.074755311,0.0623703,0.115607381
20.72,-0.120637268,0.048811913,0.104949832
20.73,-0.120966345,0.049500465,0.110209942
20.74,-0.188093185,0.026209831,0.036135674
20.75,-0.321672529,-0.090404511,0.012281775
20.76,-0.224967718,-0.075403214,0.002367854
20.77,-0.119526088,-0.16582489,0.188410878
20.78,0.021290421,-0.093588829,0.177046776
20.79,-0.010149062,-0.059581757,0.101707578
20.8,-0.029415756,0.008010864,0.187122822
20.81,-0.075042009,0.05862999,0.247108817
20.82,-0.041439205,0.058912277,0.289921045
20.83,-0.017595798,0.085627556,0.069995999
20.84,-0.0441266,0.035957336,0.064837933
20.85,-0.110691637,0.034204483,-0.048062444
20.86,-0.124071509,0.00617218,-0.139187217
20.87,-0.123207897,0.006850243,-0.134662986
20.88,-0.069320053,0.048159599,0.149419069
20.89,-0.068277866,0.048717499,0.152891755
20.9,-0.071572393,0.063828468,0.097835541
20.91,-0.071236074,0.050271988,0.040299177
20.92,-0.068398207,0.051049232,0.044716358
20.93,-0.14892742,0.003817558,0.112830401
20.94,-0.093836069,0.076180458,0.142095327
20.95,0.021034956,-0.04079628,0.181964278
20.96,-0.027045518,-0.042927742,-0.1234864
20.97,-0.27569887,0.014884949,-0.210649967
20.98,-0.140573025,-0.008703232,0.140190125
20.99,0.114632934,-0.073208809,0.576382458
21,0.149851769,-0.087590218,0.073743701
21.01,0.149185121,-0.087165833,0.076957941
21.02,0.079061121,-0.137295723,0.183518887
21.03,0.097841501,-0.079931259,0.211813688
21.04,0.001861572,-0.048849106,-0.128428221
21.05,-0.082135648,-0.007927895,0.002426147
21.06,0.024642557,0.023159981,0.287371159
21.07,0.025636673,0.027335167,0.370705605
21.08,0.021567255,0.026626587,0.367165685
21.09,-0.005858362,0.037771225,0.422535777
21.1,-0.144532174,-0.02753067,-0.038600445
21.11,-0.134532392,-0.044734001,-0.275628328
21.12,-0.18217963,-0.054603577,-0.217042804
21.13,-0.193970025,-0.016535759,-0.012097955
21.14,-0.195958853,-0.016859055,-0.013749838
21.15,-0.082790136,-0.031587601,0.183120966
21.16,0.080746591,0.028028488,0.349606633
21.17,0.011033207,0.054447174,0.223353148
21.18,-0.212901384,0.002127647,0.033946991
21.19,-0.101882368,-0.055067062,0.116907716
21.2,0.005504876,-0.088513374,0.057667494
21.21,0.054513603,-0.083776474,0.124710202
21.22,0.052669436,-0.084163666,0.122664928
21.23,0.060044348,-0.029797554,0.221414805
21.24,0.04799968,0.002969742,0.224245906
21.25,0.012147605,0.018964767,0.118994355
21.26,-0.078263432,0.015679359,0.170656204
21.27,-0.118385583,-0.002015114,0.076041579
21.28,-0.124973565,-0.017194748,0.049390197
21.29,-0.122133821,0.032385826,0.169444323
21.3,-0.02361396,0.048374176,0.229279757
21.31,-0.026026279,0.047706604,0.225212574
21.32,0.043483764,0.087779999,0.307716489
21.33,-0.018456668,0.091997147,0.16775322
21.34,-0.072663605,0.034052849,0.064125419
21.35,-0.073700249,0.033555985,0.06093514
21.36,-0.072793901,0.009070396,0.047859073
21.37,-0.061987787,0.018170357,0.063875079
21.38,-0.11555025,0.072927475,0.121714115
21.39,-0.108911365,0.060781479,0.221220255
21.4,-0.135579467,0.051013947,0.325299978
21.41,-0.082283258,0.000593185,0.256970286
21.42,0.014200598,0.053173065,0.222409964
21.43,0.014491379,0.053030968,0.221323252
21.44,-0.025713861,0.115182877,0.143855453
21.45,0.046977133,0.083930969,0.118610978
21.46,0.04237622,0.033425331,0.174383164
21.47,0.042153805,-0.069911957,0.121380687
21.48,-0.055873215,-0.070209503,0.107035041
21.49,-0.05523169,-0.070616722,0.103824258
21.5,-0.098044008,-0.023262978,0.226686359
21.51,0.221311167,0.050046921,0.632207513
21.52,0.091273695,0.001184464,0.254705548
21.53,0.089411974,0.000340462,0.249050856
21.54,-0.115010023,-0.072501183,0.270328283
21.55,-0.13169077,-0.028053284,-0.039408445
21.56,-0.133890957,0.02878952,-0.149603367
21.57,-0.064208835,0.104998589,0.163251638
21.58,-0.028661549,0.166690826,0.343322158
21.59,-0.031447142,0.185301781,0.317793191
21.6,-0.031636238,0.184822083,0.313969791
21.61,-0.012235671,0.133978844,0.333520412
21.62,0.024006069,0.097658157,0.203245282
21.63,-0.045030117,-0.05096817,0.280737758
21.64,0.068284363,-0.063041687,0.382656515
21.65,0.06816569,-0.063225746,0.381182253
21.66,0.13038528,-0.099520683,0.505152702
21.67,0.148851484,-0.138358116,0.280857861
21.68,0.147615522,-0.138813973,0.27760917
21.69,0.048193246,0.038021088,-0.04547286
21.7,-0.028252214,0.102214813,0.119400144
21.71,-0.066476345,0.106505394,0.245382011
21.72,-0.188610613,0.204118729,0.213145971
21.73,-0.190010548,0.203753471,0.210709691
21.74,-0.140167385,0.217855454,0.215917289
21.75,-0.198726356,0.11729908,0.246648312
21.76,-0.236513466,0.100727081,0.206418514
21.77,-0.229656309,-0.025771141,0.22955811
21.78,-0.226608425,-0.092294693,0.212602258
21.79,-0.077055871,-0.14440918,0.253375053
21.8,-0.068877131,-0.112755776,0.245682418
21.81,0.03208819,-0.098118782,0.322698414
21.82,0.036444932,-0.097956657,0.322385728
21.83,0.068645656,-0.064435959,0.328146994
21.84,0.071452826,-0.064606667,0.325709522
21.85,0.087560356,-0.064927101,0.339243531
21.86,-0.057291836,0.071314812,0.085500598
21.87,-0.095061868,0.085453987,0.059555411
21.88,-0.095083803,0.085251808,0.057936788
21.89,-0.057377487,0.030040741,-0.038805604
21.9,-0.234939605,0.087463379,0.243537605
21.91,-0.019462764,0.075472832,0.14036274
21.92,-0.020376652,0.075583458,0.141733527
21.93,-0.033024907,0.10204792,0.420776427
21.94,-0.03304711,0.102054596,0.420768797
21.95,-0.064120412,0.102247238,0.178020477
21.96,-0.004034966,-0.050783157,0.218084276
21.97,0.000226945,-0.1152668,0.188351512
21.98,-0.101285398,-0.210952759,0.15346396
21.99,-0.096689433,-0.218043327,-0.065885305
22,-0.14211458,-0.203527451,0.088527918
22.01,-0.058812112,-0.146118164,0.08113575
22.02,-0.089573741,-0.050496101,0.193162322
22.03,0.027344197,-0.055606842,0.328070641
22.04,0.001453936,-0.06101799,0.308006942
22.05,-0.002304852,-0.061621666,0.304432571
22.06,-0.057341248,-0.076489449,0.12643683
22.07,-0.107310832,0.066762924,-0.108262777
22.08,0.000737011,0.10008049,-0.046893716
22.09,-0.047574818,0.150058746,0.418673456
22.1,-0.050398052,0.190122604,0.608410597
22.11,-0.052934021,0.11757946,0.426368117
22.12,-0.138123304,0.076319695,0.10615027
22.13,-0.137814105,0.076001167,0.103433967
22.14,-0.17697075,-0.206701279,-0.042265892
22.15,-0.17554158,-0.206734657,-0.04306078
22.16,-0.040019304,-0.161018372,0.061057329
22.17,0.078393221,-0.15116024,0.257140517
22.18,0.079700798,-0.150864601,0.258993506
22.19,0.101808667,-0.059611321,0.153302193
22.2,0.101996601,-0.0593853,0.155078054
22.21,-0.013227314,0.036326408,0.231313109
22.22,-0.014193505,0.0361166,0.229955792
22.23,-0.048839718,0.086099625,0.230263889
22.24,-0.026122153,0.097870827,0.185942411
22.25,-0.027373314,0.097681999,0.184939385
22.26,-0.073990345,0.044906616,0.198868394
22.27,-0.124605894,0.044773102,0.255353689
22.28,-0.107084036,-0.029597282,0.246731758
22.29,-0.074621677,-0.058485031,0.288070381
22.3,-0.03984949,-0.08025074,0.266525567
22.31,-0.0339109,-0.075697899,0.225896657
22.32,-0.032702684,-0.07595253,0.22324878
22.33,-0.055710197,-0.016575813,0.278722763
22.34,-0.023751408,-0.019474983,0.180851758
22.35,0.005681336,-0.007920265,0.109940767
22.36,0.006112427,-0.008249283,0.107002974
22.37,0.015512973,0.027308464,0.230971634
22.38,-0.001868874,0.043723106,0.154103577
22.39,-0.072051018,0.050756454,0.19372195
22.4,-0.03229177,0.033777237,0.20421499
22.41,-0.028322428,0.009614944,0.236153781
22.42,-0.000355124,-0.014593124,0.212665856
22.43,-0.001156777,-0.014884949,0.210465729
22.44,0.026567996,0.037469864,0.215249598
22.45,0.002109379,0.092212677,0.27011466
22.46,-0.056097299,0.060860634,0.251746118
22.47,-0.054078311,-0.015918732,0.219391227
22.48,-0.054337829,-0.016029358,0.218625546
22.49,-0.214721203,-0.085469246,-0.116693258
22.5,-0.225518316,-0.071082115,-0.093078494
22.51,-0.093102217,-0.006464958,0.071581125
22.52,0.072191894,0.084470749,0.265056253
22.53,0.097254962,0.005363464,0.537726402
22.54,0.107878387,-0.037974358,0.603210747
22.55,0.061921895,-0.026366234,0.229080856
22.56,-0.030654609,0.07653141,0.058285356
22.57,-0.111142844,0.083885193,-0.026778102
22.58,-0.026941925,0.050657272,0.071429133
22.59,-0.049609184,0.091526985,0.487394631
22.6,-0.050697863,0.091309547,0.486031592
22.61,-0.0372473,0.066851616,0.596763969
22.62,-0.096773893,0.018520355,0.456274033
22.63,-0.110675752,-0.099031448,-0.046148896
22.64,-0.093372226,-0.048717499,-0.005405903
22.65,-0.092903137,-0.048645973,-0.00512135
22.66,-0.097205043,-0.034187317,0.117651463
22.67,0.053963065,0.102566719,0.191767395
22.68,0.049211919,0.091014862,0.32959187
22.69,0.059306592,0.091571808,0.286297739
22.7,-0.011892974,0.039566994,0.042717576
22.71,-0.04912439,-0.062551498,0.011272073
22.72,-0.057623327,-0.145551682,0.055980444
22.73,-0.021439195,-0.080309868,0.132737875
22.74,-0.021639973,-0.067915916,0.174791932
22.75,-0.022199661,-0.067633629,0.177298904
22.76,-0.111546814,0.095358849,0.262873769
22.77,-0.319725364,0.090858459,0.088110328
22.78,-0.341460109,0.005187035,-0.025712609
22.79,-0.256993324,-0.046845436,-0.07405293
22.8,-0.170402646,-0.022274971,-0.062749267
22.81,-0.082019389,0.011841774,0.044246554
22.82,-0.058945328,0.041074753,0.325564921
22.83,0.004575431,0.017428398,0.332324505
22.84,-0.029659092,0.024945259,0.331955016
22.85,-0.063795716,0.015546799,0.177164197
22.86,-0.033029377,-0.015379906,0.027170062
22.87,-0.067841351,-0.034306526,0.052584171
22.88,-0.005468071,-0.026894569,0.104663611
22.89,0.006062597,-0.002838135,0.096279502
22.9,0.005513132,-0.002650261,0.098046422
22.91,-0.074166328,-0.016740799,-7.15256E-07
22.92,-0.024271786,-0.030800819,0.026548386
22.93,-0.046565235,-0.042496681,0.103299618
22.94,0.005425811,-0.090136528,0.218100131
22.95,0.030720055,-0.070863724,0.190705657
22.96,0.057917565,-0.05398941,0.228146613
22.97,-0.039764225,0.010746956,0.188847303
22.98,-0.127444565,0.013293266,0.147423267
22.99,-0.162417263,-0.077547073,-0.097420573
23,-0.16354683,-0.077225685,-0.094362974
23.01,-0.214673549,-0.048054695,-0.349172115
23.02,-0.165435731,0.055020332,0.265163899
23.03,-0.123697788,0.038160324,0.25521791
23.04,-0.041003197,-3.91006E-05,0.129663467
23.05,-0.182689756,-0.102808952,0.341940224
23.06,-0.181427479,-0.102788925,0.34172219
23.07,-0.119098425,-0.030776024,-0.206118465
23.08,-0.116904408,0.096575737,-0.150627613
23.09,-0.065285772,0.130161285,0.196650386
23.1,-0.017337441,0.132302284,0.366995275
23.11,-0.144870251,0.103199959,0.476750314
23.12,-0.099150211,0.021333694,0.343803346
23.13,-0.143975079,-0.093847275,0.001372337
23.14,-0.190696478,-0.17283535,-0.087385893
23.15,-0.191501707,-0.153517723,-0.057955503
23.16,-0.122903109,-0.141305924,-0.068661451
23.17,-0.074018985,-0.152984619,0.000522256
23.18,-0.010770053,-0.066452026,0.249262631
23.19,0.100147218,-0.004053116,0.21202445
23.2,0.164623141,0.096878052,-0.036480427
23.21,-0.00381577,0.104639053,-0.057806849
23.22,-0.114473492,0.081262589,0.13360107
23.23,-0.016631782,-0.004463196,0.123011947
23.24,0.006376624,-0.044757843,0.00933063
23.25,-0.100123555,-0.015610695,-0.011063457
23.26,-0.091482848,0.049277306,0.0894171
23.27,-0.097723395,0.07570076,0.200803995
23.28,-0.142354429,0.085326195,0.158517838
23.29,-0.234250456,0.04714489,0.155047298
23.3,-0.193282992,-0.019748688,0.249445796
23.31,-0.149202853,-0.04119873,0.12786448
23.32,-0.1094203,-0.02911377,0.135323167
23.33,-0.064539969,0.023542404,0.201606393
23.34,-0.036643475,0.07837677,0.232754827
23.35,-0.035390854,0.078055382,0.229848027
23.36,-0.088799447,0.056155205,0.293432117
23.37,-0.076976597,-0.044760704,0.184479833
23.38,-0.134414673,-0.116867065,0.097615004
23.39,-0.05747357,-0.15531826,0.052329659
23.4,-0.033871681,-0.14348793,0.208476543
23.41,0.097202867,-5.72205E-05,0.385560632
23.42,-3.59416E-05,0.054647446,0.358316481
23.43,0.024894625,0.083053589,0.223632217
23.44,-0.053236425,0.042125702,0.168910623
23.45,-0.035384893,0.049168587,0.059575319
23.46,-0.01345095,0.013144493,0.120945096
23.47,-0.025202811,0.027420998,0.203928113
23.48,-0.030181944,0.09905529,0.156835914
23.49,-0.116977871,0.101268768,0.148513198
23.5,-0.15780887,0.062854767,0.166906953
23.51,-0.157707453,0.06273365,0.165767789
23.52,-0.328901649,0.103425026,0.002416968
23.53,-0.32752189,0.103394508,0.001765847
23.54,0.137217015,-0.014058113,0.754675806
23.55,0.039144397,-0.054861069,0.284574449
23.56,-0.105869442,-0.116914749,0.302513361
23.57,0.0254471,-0.095407486,0.428409159
23.58,0.099020422,-0.069396019,0.245293498
23.59,0.093151003,-0.083989143,0.051589251
23.6,0.081811786,-0.012372971,0.286537528
23.61,0.081338316,-0.013034821,0.281411886
23.62,-0.103940278,0.098531723,0.570828259
23.63,-0.004521996,0.075957298,0.416669607
23.64,-0.030148447,-0.023159027,0.177311242
23.65,-0.135941386,-0.006917953,-0.025516868
23.66,-0.13542673,-0.007061005,-0.026944876
23.67,-0.120551944,-0.023694038,0.057699323
23.68,-0.120614767,-0.023527145,0.05898118
23.69,0.029464662,-0.023426056,0.151202917
23.7,0.140744984,0.02462101,0.320604146
23.71,0.0896568,0.089505196,0.502539158
23.72,-0.031034529,0.085161209,0.061265945
23.73,-0.005254269,0.035360336,0.118189454
23.74,0.046348333,-0.021776199,0.159544349
23.75,0.044317126,-0.021602631,0.161752105
23.76,0.042173088,0.002374649,0.246830642
23.77,0.040001303,0.002388954,0.247650206
23.78,-0.165321142,0.071807861,0.209947348
23.79,-0.165928751,0.071807861,0.210262299
23.8,-0.142298996,-0.031096458,0.069516897
23.81,-0.137661308,-0.110002518,0.125510454
23.82,-0.137236357,-0.109965324,0.125591159
23.83,-0.117077351,-0.102741242,0.159137845
23.84,-0.115967929,-0.033145905,0.10724473
23.85,-0.076392561,-0.061670303,0.144360662
23.86,-0.036584586,-0.044686317,0.092959166
23.87,-0.004195541,0.003473282,0.07796967
23.88,0.013739854,0.030029297,0.026651263
23.89,-0.066950351,0.042206764,0.157336116
23.9,-0.02111423,0.075842857,0.174865842
23.91,-0.038042843,0.059216499,0.096948385
23.92,-0.057266891,0.028306007,0.082043767
23.93,-0.071864545,-0.019370079,0.08861506
23.94,-0.10833016,-0.028808594,0.075547695
23.95,-0.13485074,-0.064608574,0.064578772
23.96,-0.079807848,-0.090763092,0.092244387
23.97,-0.006016433,-0.126583099,0.148386478
23.98,-0.097505927,-0.107372284,0.053133965
23.99,-0.071367949,-0.056994438,0.039664388
24,-0.136572748,-0.032996178,0.052268863
24.01,-0.143797368,-0.097594261,-0.011901379
24.02,-0.198463827,-0.066411018,-0.162378311
24.03,-0.2095882,-0.080683708,-0.135689378
24.04,-0.064739943,-0.092576027,0.103864908
24.05,-0.065088004,-0.092629433,0.10357213
24.06,0.031765908,-0.166864395,0.075212479
24.07,-0.156048715,-0.116453171,-0.047689319
24.08,-0.278239161,-0.147616386,0.114802837
24.09,-0.263771206,-0.076251984,-0.075723767
24.1,-0.253948301,-0.03104496,-0.516274333
24.11,-0.265578359,-0.011954308,-0.344414353
24.12,-0.265300423,-0.012246132,-0.346959949
24.13,-0.101454735,0.171525955,0.060521126
24.14,-0.175211906,0.151654244,0.153742552
24.15,-0.210357308,0.127176285,0.042295933
24.16,-0.125416607,0.03102684,-0.204632759
24.17,-0.167458743,-0.029123306,-0.259092569
24.18,-0.239560545,-0.055592537,-0.3127352
24.19,-0.167101026,-0.093756676,-0.25189507
24.2,-0.214203537,-0.098258018,-0.05832839
24.21,-0.199855208,-0.124304771,0.091536522
24.22,-0.163421214,-0.179024696,-0.112659097
24.23,-0.313225716,-0.152170181,-0.370881915
24.24,-0.360688746,-0.177875519,-0.38209939
24.25,-0.244658977,-0.15329361,-0.288301945
24.26,-0.195946813,-0.097631454,-0.122980118
24.27,-0.12627393,0.017756462,-0.102188706
24.28,-0.128726512,0.078035355,-0.150896668
24.29,-0.191199303,0.104785919,-0.197424173
24.3,-0.258513868,0.105149269,-0.086234808
24.31,-0.254178762,0.105397224,-0.086092234
24.32,-0.299987555,0.012171745,0.03537631
24.33,-0.256480694,-0.160225868,-0.005286574
24.34,-0.174694419,-0.320708275,-0.082303762
24.35,-0.253128111,-0.385398865,-0.070628047
24.36,-0.266202092,-0.419005394,-0.038170218
24.37,-0.161979973,-0.464767456,-0.035844207
24.38,-0.106900454,-0.431828499,-0.081127644
24.39,-0.102815807,-0.432600975,-0.089404464
24.4,-0.180432558,-0.27548027,0.008984447
24.41,-0.193696499,-0.204699516,-0.025333643
24.42,-0.279064834,-0.188994408,-0.014315367
24.43,-0.208379149,-0.17565155,-0.204378605
24.44,-0.174463987,-0.195734024,-0.271199584
24.45,-0.195954323,-0.20864296,-0.12256825
24.46,-0.14328742,-0.14500618,0.056502819
24.47,-0.205896616,-0.110183716,0.089013577
24.48,-0.165510535,-0.082518578,0.05204761
24.49,-0.192570686,-0.069177628,-0.001171589
24.5,-0.214727104,-0.075044632,-0.050278425
24.51,-0.284468889,-0.150414467,-0.124120593
24.52,-0.334470511,-0.276099205,-0.170079708
24.53,-0.443301976,-0.404129028,-0.336216092
24.54,-0.437868536,-0.405172348,-0.349321604
24.55,-0.521122754,-0.401453972,-0.323547602
24.56,-0.257393539,-0.316296578,-0.062896729
24.57,-0.260334015,-0.226414681,0.316938758
24.58,-0.254466832,-0.299551964,0.137089253
24.59,-0.219676435,-0.391634941,-0.127275407
24.6,-0.139441192,-0.325615883,-0.24013263
24.61,0.050189137,-0.255003929,-0.453029573
24.62,0.194509566,-0.141302109,-0.329704762
24.63,0.039435565,-0.013525963,-0.076254189
24.64,0.048271537,-0.119028091,0.002623796
24.65,-0.104068399,-0.420901299,-0.225844502
24.66,-0.374935031,-0.751416206,-0.519641459
24.67,-0.377203226,-0.753891945,-0.548773468
24.68,-0.116330683,-1.297521591,-0.864613354
24.69,0.029224217,-1.45099926,-0.797421873
24.7,0.414295942,-1.441671371,-0.785002232
24.71,0.791551352,-1.420660019,-0.797421336
24.72,1.234619379,-1.366383553,-0.563860714
24.73,1.2206738,-1.369880676,-0.609835744
24.74,1.646903872,-1.289884567,0.120024473
24.75,1.623125196,-1.2937603,0.066471189
24.76,1.589504242,-1.153978348,-0.278508484
24.77,1.554597855,-1.157761574,-0.333910048
24.78,1.155875325,-0.79261303,-0.968737245
24.79,0.881698012,-0.422389031,-1.466989636
24.8,0.482329905,0.02487278,-1.851574659
24.81,0.124281555,0.470234871,-2.028464794
24.82,-0.222955167,1.069320679,-2.10247016
24.83,-0.583776891,1.120660782,-1.8857162
24.84,-0.629874349,1.119844437,-1.930431485
24.85,-0.509518921,0.657408714,-1.793845415
24.86,-0.548326492,0.657435417,-1.835609555
24.87,-0.913477242,-0.553672791,-1.518651485
24.88,-0.937008381,-0.552903175,-1.564010382
24.89,-0.703162611,-1.981156349,-1.590836287
24.9,-0.412869394,-2.477609158,-1.325757623
24.91,-0.137211844,-2.750827789,-1.021913171
24.92,-0.049339131,-2.913208961,-0.631006122
24.93,0.107882217,-2.978957176,-0.354946792
24.94,0.199407458,-2.990865707,-0.368537128
24.95,0.242683634,-2.901111126,-0.286521733
24.96,0.235665411,-2.819658756,-0.458994329
24.97,0.264917314,-2.873604774,-0.795710325
24.98,0.429044128,-2.957747936,-0.919047058
24.99,0.438377261,-2.727096558,-0.746771455
25,0.415778786,-2.715310097,-0.846005797
25.01,0.435451865,-2.539539814,-1.003098369
25.02,0.461918563,-1.84753418,-0.812925816
25.03,0.434078664,-1.831159592,-0.919557214
25.04,0.389629066,-1.159353256,-0.670268655
25.05,0.20246923,-0.488876343,-0.633043647
25.06,0.195804358,0.188816071,-0.709735632
25.07,0.160363495,1.623182297,-0.621487498
25.08,0.215369493,2.217123032,-0.126900435
25.09,0.309429854,2.664877892,-0.133897424
25.1,-0.160317391,3.097098351,-0.561799169
25.11,-0.651425242,3.15782547,-0.619799018
25.12,-0.379314899,3.140899658,-0.990204573
25.13,-0.354598969,3.15390873,-1.047060013
25.14,-0.05090791,2.86960125,-1.284770846
25.15,0.275300264,3.093420029,-1.19253695
25.16,-0.210082129,3.879914284,-1.760041475
25.17,-0.18093583,3.893141747,-1.812111378
25.18,-0.401046693,4.242510796,-2.258975029
25.19,-0.890867174,4.588971138,-2.138683796
25.2,-0.858776927,4.607228279,-2.203837395
25.21,-0.987220228,4.184571266,-1.797318578
25.22,-0.962482035,3.761008263,-1.247366667
25.23,-0.787088156,3.555597305,-0.368037939
25.24,-0.595640361,3.797584534,2.188198566
25.25,-0.54902941,3.81881237,2.124079466
25.26,-0.256647557,3.649213791,2.912446499
25.27,-0.049250945,2.876898766,5.075363159
25.28,-0.018989086,2.90480423,4.997766495
25.29,-0.53082031,1.98230648,6.176361084
25.3,-0.392685354,0.604136467,6.800693512
25.31,-0.297975183,-1.072364807,7.050593853
25.32,-0.996291459,-2.658272743,6.578929901
25.33,-1.748390317,-2.4687047,4.872863293
25.34,-1.9300524,-1.459369659,3.007401705
25.35,-1.895206928,0.149437904,1.04164505
25.36,-1.862203121,1.619833946,0.567489147
25.37,-1.365743637,2.993231773,0.869051933
25.38,-1.449889302,5.172634125,1.243648052
25.39,-2.08402133,6.77472496,1.163775444
25.4,-2.074238777,7.50968647,0.914443016
25.41,-1.901040792,7.904932022,1.567976475
25.42,-1.512293577,7.76614666,1.675503731
25.43,-0.004609972,7.946900368,0.010573864
25.44,0.02703777,7.954489708,-0.001745224
25.45,0.741977215,7.229369164,-1.943907976
25.46,0.359093785,7.194346428,-1.373970985
25.47,-0.554899871,7.397753716,-0.182332039
25.48,-1.332914352,6.809342384,1.059456348
25.49,-0.421754658,5.336519241,2.917545795
25.5,-0.410637617,5.321023941,2.952149868
25.51,1.200152397,3.68296814,4.353338718
25.52,3.581317663,1.172497749,4.82984972
25.53,5.93280983,-3.475627422,3.600254297
25.54,5.264458179,-5.485311985,0.846336603
25.55,2.613525391,-7.655021191,-1.601425052
25.56,2.503905058,-7.704262257,-1.484463811
25.57,0.077367455,-9.161373138,-2.270376205
25.58,-3.385810375,-10.31587982,-3.470458746
25.59,-3.04770565,-12.89562035,-8.79341507
25.6,-1.508115292,-13.67410278,-7.08526516
25.61,-1.554314137,-13.708601,-6.976206779
25.62,-0.562739253,-14.52994537,-5.211385727
25.63,1.844300151,-15.3770752,-2.508457422
25.64,1.796186686,-15.37266731,-2.520914793
25.65,2.596061945,-15.11927795,-2.312430382
25.66,1.041633844,-12.63933372,-3.413788319
25.67,0.770091295,-10.3983593,-3.890880108
25.68,0.745323956,-10.36903667,-3.978052139
25.69,1.511395693,-2.454427242,-2.172796726
25.7,2.665174246,1.658662796,-1.136893272
25.71,3.460366488,6.790840149,0.144030809
25.72,3.261913776,11.02327251,2.487083197
25.73,3.532918692,13.9406271,5.4674716
25.74,4.654201984,14.60755634,5.816197395
25.75,4.692356586,14.37546062,4.52385807
25.76,3.472705126,14.33384991,3.834919214
25.77,2.595760584,13.90416813,3.287066936
25.78,2.687479734,13.91623402,3.254307985
25.79,2.408288717,13.51402569,3.662004232
25.8,3.905951262,11.8463583,3.873803377
25.81,2.422099829,9.911362648,3.542299747
25.82,0.348976374,8.569754601,4.293597221
25.83,0.41266191,8.60496521,4.215989113
25.84,-2.379506826,2.753829956,4.322532654
25.85,-2.332491875,2.787769318,4.25138998
25.86,-2.492088556,-0.243916512,5.707391262
25.87,-1.893746138,-5.805892467,4.352945328
25.88,-1.713819981,-7.869160652,0.911121368
25.89,-2.352563858,-9.979474068,-1.83347106
25.9,-2.954545736,-11.41607189,-3.263207436
25.91,-3.337793827,-12.02337646,-4.265676975
25.92,-4.521007061,-12.18705082,-4.74244833
25.93,-4.224058151,-11.86586571,-4.57126379
25.94,-3.833423138,-12.01575279,-2.683084488
25.95,-2.738230705,-12.05533504,-1.06289506
25.96,-2.331033468,-12.30088139,0.103982687
25.97,-2.322399616,-12.28175449,0.062536001
25.98,-1.666205406,-10.93307972,-1.800657749
25.99,-1.598696828,-9.32658577,-3.15566206
26,-0.324224711,-7.652936935,-4.157748222
26.01,-0.296375513,-7.658615112,-4.138051033
26.02,2.319196224,-1.081802368,-3.726832151
26.03,4.41797924,3.581852913,-0.937647104
26.04,5.131979465,7.508054733,3.263089657
26.05,3.096074581,11.0365572,6.917506218
26.06,1.039908886,13.71455765,10.96288204
26.07,1.085632563,13.72938251,10.94391537
26.08,-0.141076684,14.57205582,16.49648857
26.09,-2.052309036,14.16283417,19.83106804
26.1,-4.174222469,12.41999817,5.098351479
26.11,-5.188067913,11.95172405,-3.59277606
26.12,-5.167125702,11.75415039,-6.898134232
26.13,-4.22988224,10.91707897,-6.556746483
26.14,-4.210463047,10.89404106,-6.488140106
26.15,-1.721807599,9.103404999,-4.087322712
26.16,3.946825504,4.577900887,3.182908535
26.17,3.917052746,4.579584122,3.165794373
26.18,5.167039871,3.616082191,7.329310894
26.19,3.913178205,2.163243294,10.70770741
26.2,2.937364101,-0.023195267,11.26429462
26.21,2.533426046,-3.355294228,7.437051296
26.22,1.240522385,-7.317651749,1.099442005
26.23,-1.2451334,-10.43755245,-5.068221569
26.24,-3.221483469,-12.24211121,-8.833003998
26.25,-1.330773711,-14.34370327,-6.878986359
26.26,1.136554956,-15.68876266,-4.070179462
26.27,3.643332481,-16.71503448,-0.823015332
26.28,5.431360245,-17.47641945,1.179068804
26.29,6.627383232,-17.91820145,0.124055386
26.3,6.235404015,-16.84827995,-2.965626717
26.31,2.965394974,-14.04983521,-6.22712326
26.32,0.149201259,-10.81956768,-8.227891922
26.33,-0.088225693,-8.320755005,-9.226240158
26.34,0.70302558,-4.473421574,-7.086091042
26.35,4.502207756,1.518064499,-0.705861807
26.36,7.805529118,5.936166763,4.075749874
26.37,9.273687363,9.541761398,5.986949921
26.38,8.405909538,12.7134552,3.923213959
26.39,5.484715462,14.09751225,5.436738014
26.4,3.545552492,14.35191631,9.210391998
26.41,0.674028218,15.61452961,8.166262627
26.42,0.742317736,15.60679054,8.200323105
26.43,0.573791504,15.08538628,6.197504044
26.44,-0.945427001,14.99067593,2.080675602
26.45,-3.159934521,14.65776157,-0.77967906
26.46,-2.005511045,12.20517921,0.863810301
26.47,-0.962055743,11.29656601,4.426241875
26.48,0.219625443,9.214572906,6.873156548
26.49,0.055918753,6.818275452,8.11793232
26.5,0.107540548,6.832130432,8.078241348
26.51,-1.631700516,-1.876987457,8.818745613
26.52,-1.568962336,-1.886713028,8.872533798
26.53,-0.242046893,-10.9896946,-1.627830267
26.54,-1.586601019,-13.37296867,-5.665406704
26.55,-0.965648234,-14.67555809,-6.423413277
26.56,0.417837918,-15.18056679,-3.917852879
26.57,1.101861596,-14.79630852,-0.478497982
26.58,0.15486604,-14.288311,1.207889557
26.59,0.173677504,-14.28835392,1.219478846
26.6,-1.032256842,-14.11627388,0.790087104
26.61,-4.969181538,-14.13684654,-1.412909508
26.62,-4.999394417,-14.12785721,-1.472328424
26.63,-4.122186184,-12.22554874,-2.279974699
26.64,-4.147836208,-12.22280884,-2.305405855
26.65,-1.30245769,-8.561749458,-2.239915609
26.66,-1.30794239,-8.560691833,-2.24733901
26.67,-1.774858594,-6.968400955,-2.555379391
26.68,-1.749528408,-4.924314976,-2.527586222
26.69,0.344265819,-2.726714611,-0.846884966
26.7,6.236267567,2.92620945,5.735501766
26.71,6.211030483,2.939083099,5.671051025
26.72,4.152744293,11.35456657,6.432058811
26.73,4.133427143,11.38283062,6.31744957
26.74,-3.988507986,20.62565994,11.76171684
26.75,-7.211336136,24.21672249,12.80935478
26.76,-9.459953308,25.45957947,9.593669891
26.77,-9.415809631,25.45738983,9.618252754
26.78,-10.21800137,23.59926224,2.340050459
26.79,-2.30057025,11.8347435,-0.010043144
26.8,2.087748051,6.570080757,2.080310822
26.81,2.031331539,6.553146362,2.121328592
26.82,4.53008461,0.705269814,4.344735622
26.83,4.537752151,-1.264111519,6.634731293
26.84,4.220805645,-3.081760883,8.059342384
26.85,4.167297363,-3.103617191,8.130843163
26.86,3.675626516,-7.289014816,2.780907869
26.87,1.421626091,-9.409235954,-1.990747571
26.88,-0.742434442,-11.4730072,-5.729776382
26.89,-0.767466307,-11.49595261,-5.622127056
26.9,-0.638466954,-13.21317387,-6.720026016
26.91,0.848116875,-14.96416378,-4.766246796
26.92,1.69355154,-15.54872704,-2.763830662
26.93,0.691928983,-17.0557518,-0.331558466
26.94,1.977594972,-17.55291939,-0.680296898
26.95,3.531824112,-16.64370728,-2.3197124
26.96,1.854776978,-13.76529503,-3.337101936
26.97,1.776227713,-13.75726318,-3.391450644
26.98,-0.815369725,-10.19585228,-4.331831932
26.99,-0.108788148,-4.945086956,-7.515735626
27,1.394165516,-0.193608284,-4.725442886
27.01,8.009524345,6.556704521,1.606971622
27.02,13.06965351,8.11095047,7.962460518
27.03,12.85508251,8.123392105,7.926773548
27.04,11.5273304,9.695271492,10.0515852
27.05,3.974719763,12.71670341,9.186845779
27.06,-1.253378391,14.82151127,8.633508682
27.07,-1.446847677,14.39919281,5.361632347
27.08,-3.982908964,15.10350132,-0.53590095
27.09,-6.735346317,15.31499386,-3.960509777
27.1,-6.965544701,16.58556557,-6.161299706
27.11,-5.706692219,16.85206223,-6.257082939
27.12,-5.607068539,16.85144424,-6.23069334
27.13,-4.033855438,14.51261616,-4.562561035
27.14,-2.155882835,3.783074379,8.287509918
27.15,-2.505263329,1.810803413,15.33079624
27.16,-1.553461552,-0.416906357,14.1244421
27.17,-0.021367418,-3.517082214,7.322392464
27.18,-0.072680473,-3.531587601,7.393634796
27.19,-0.871225178,-7.593996525,4.496459007
27.2,-4.205935955,-15.09554672,-0.978267372
27.21,-4.094563007,-15.11957836,-0.829716384
27.22,-4.480015755,-16.85046959,-3.344046116
27.23,-3.250240803,-17.35354424,-4.950541973
27.24,-2.231996059,-16.68815804,-2.991777182
27.25,-1.951057673,-16.34350586,-0.850443959
27.26,-1.965761065,-16.33763695,-0.904044628
27.27,-4.412292957,-13.97579002,0.344459653
27.28,-4.441408634,-13.9624176,0.24169898
27.29,-3.905793905,-10.55023098,-2.423069477
27.3,-4.14330101,-8.440684319,-1.829034328
27.31,-3.935718298,-7.113594055,-2.063055992
27.32,-3.89092207,-5.768108368,-2.721476555
27.33,-3.898143053,-5.755106926,-2.793933868
27.34,-4.347437382,-4.542384624,-2.529309034
27.35,2.607654333,2.574907303,4.493798733
27.36,4.404847622,6.587324142,5.633412361
27.37,2.381104469,13.61617088,3.931710005
27.38,0.792705298,17.84715271,7.372771263
27.39,0.811603725,17.89463043,7.190957069
27.4,0.609442711,20.54597473,17.04590225
27.41,-1.31600976,22.98347664,24.01442146
27.42,-5.51108551,23.77000618,21.37568092
27.43,-9.566177368,16.88193512,-5.949583054
27.44,-9.524712563,16.84067535,-5.806473255
27.45,-2.641037941,6.212136269,-4.052992821
27.46,-0.167216659,2.052697182,0.41914773
27.47,-0.198142558,2.051078796,0.420493841
27.48,0.420364022,-1.438921928,2.854697466
27.49,2.31144619,-3.799292564,3.871782541
27.5,7.613249302,-7.555725098,4.681995869
27.51,7.012887955,-8.108565331,4.32988739
27.52,4.634836674,-8.849040031,1.79581666
27.53,4.564273834,-8.848851204,1.795646667
27.54,1.746529222,-9.296173096,-2.230921268
27.55,0.919169903,-11.10330486,-5.684337139
27.56,0.846093416,-11.11703205,-5.627855301
27.57,2.132380724,-12.99662876,-3.38318634
27.58,2.687689543,-13.40981102,-1.85072422
27.59,2.642174482,-14.23339462,0.660814762
27.6,2.409844637,-13.72454739,1.650837898
27.61,2.114218235,-12.69982052,0.019472361
27.62,1.002453327,-10.96885872,-4.257918835
27.63,-1.271147013,-9.248885155,-9.244565964
27.64,-2.509041309,-7.632258415,-11.30565643
27.65,-1.840299845,-5.400915146,-8.411677361
27.66,3.4627707,-0.167232513,-0.020285368
27.67,11.69032001,5.432943344,8.038693428
27.68,14.9151659,10.85028934,8.650005341
27.69,14.78299427,10.86183834,8.661288261
27.7,1.219069242,23.99280548,4.951116562
27.71,1.247472525,23.97810173,4.996042252
27.72,-1.957150102,21.04596519,15.17767239
27.73,-1.957491517,21.05261993,15.15103436
27.74,-2.570411205,10.73676968,-1.226817369
27.75,-2.491951466,10.7215414,-1.200660706
27.76,-5.937339306,7.666308403,-1.949372411
27.77,-4.942789555,6.356396675,-2.069378614
27.78,-6.116548538,4.850430489,0.862478018
27.79,-3.308819056,3.26103878,4.698506355
27.8,0.023064494,1.273785591,8.282062531
27.81,1.899057865,-0.31333065,9.483573914
27.82,1.30808413,-2.173553944,8.305323601
27.83,0.317626208,-5.249490261,3.657594919
27.84,0.387216717,-5.274531841,3.738173723
27.85,-3.096618652,-11.66145897,-3.201994658
27.86,-3.007678986,-11.68882084,-3.103117466
27.87,-2.830145597,-15.76380444,-5.100733757
27.88,-3.195793629,-15.70457458,-4.349225044
27.89,-4.032491207,-14.92773247,-3.10246563
27.9,-4.038547039,-14.92879677,-3.097442389
27.91,-5.637032509,-13.10051155,-0.02615881
27.92,-6.180845261,-12.74447441,0.632003307
27.93,-4.915876865,-12.26774597,-0.091317654
27.94,-4.281241894,-11.28607941,-0.851976633
27.95,-3.462939739,-9.594884872,-1.322645903
27.96,-3.234972,-8.132505417,-1.86416328
27.97,-3.443313599,-6.535069466,-2.256246805
27.98,-3.68234539,-4.753118992,-3.254766941
27.99,-2.307548285,-1.803862095,-2.936820269
28,-2.315304041,-1.799580097,-2.953678608
28.01,8.277533531,8.322336197,6.265704155
28.02,7.780155659,13.80707359,4.864315033
28.03,5.041376114,18.6754818,9.727279663
28.04,5.019870758,19.25118637,20.87928391
28.05,0.397123009,19.02157211,27.9251194
28.06,-9.262420654,19.92937088,18.29899597
28.07,-16.29664421,20.09172058,0.887964964
28.08,-16.17479134,20.03177834,1.064173698
28.09,-18.72759628,18.06084442,-13.74929428
