Time (s),Linear Acceleration x (m/s^2),Linear Acceleration y (m/s^2),Linear Acceleration z (m/s^2)
0,-0.175233722,0.036925316,0.225325495
0.01,-0.248998046,-0.039370537,0.179987967
0.02,-0.206993997,-0.055727005,0.018362612
0.03,-0.202973068,-0.055212021,0.023447365
0.04,-0.199869096,-0.157637596,-0.317366391
0.05,-0.127761006,-0.097287178,-0.270400047
0.06,-0.092644811,-0.118503571,-0.136563301
0.07,-0.091868877,-0.11831665,-0.134070337
0.08,-0.167320311,-0.173318863,-0.0028283
0.09,-0.200679541,-0.04661274,0.039036542
0.1,-0.120048106,-0.008651733,0.009158581
0.11,-0.058464885,-0.004455566,0.114005953
0.12,-0.062653422,-0.005238533,0.103925288
0.13,-0.029189229,-0.116372109,0.726842284
0.14,-0.033051968,-0.117245674,0.713314652
0.15,-0.001613379,-0.079537392,0.209960178
0.16,-0.060301185,-0.012901306,-0.029447794
0.17,0.005927563,0.008365631,0.25245136
0.18,0.004571676,0.007980347,0.245852664
0.19,0.115145087,0.093726158,0.664268792
0.2,0.070168018,0.086073875,0.519695401
0.21,-0.080959499,0.054755211,0.273562253
0.22,-0.077795625,0.045166969,0.054450482
0.23,-0.077014923,0.045272827,0.05538103
0.24,-0.106828034,0.045444489,0.03626591
0.25,-0.106204987,0.045610428,0.039296091
0.26,0.032520294,0.045729637,0.154723883
0.27,0.042233825,0.045842171,0.279685527
0.28,0.032574117,-0.054545403,0.106278777
0.29,0.032449186,-0.05432415,0.111502081
0.3,-0.001099765,-0.092469215,0.15644604
0.31,-0.14487499,-0.094707489,0.281870037
0.32,-0.058230102,-0.075428963,0.243683159
0.33,-0.139187932,-0.010650635,0.169537127
0.34,-0.216885567,-0.034343719,0.144187897
0.35,-0.260204971,-0.00053215,0.05195266
0.36,-0.310065806,-0.007338524,0.108540088
0.37,-0.234721243,-0.002175331,0.061638862
0.38,-0.16218555,0.026898384,0.026167721
0.39,-0.106730104,0.039138794,0.133819997
0.4,-0.12333405,0.048938751,0.211367935
0.41,-0.121217787,0.049077988,0.211439848
0.42,-0.076313794,0.049163818,0.280026823
0.43,-0.096032143,0.049245834,0.327213258
0.44,0.025868773,-0.022437096,0.219428212
0.45,-0.034730434,-0.024671555,0.196681976
0.46,-0.061484635,-0.048417091,0.296181142
0.47,0.060122788,-0.067410469,0.22716859
0.48,0.056333065,-0.074489594,0.273779154
0.49,-0.004671514,-0.083921433,0.33468467
0.5,-0.003416717,-0.083820343,0.335333467
0.51,-0.026051998,-0.11471653,-0.016233355
0.52,-0.126971901,0.010036469,0.084133238
0.53,0.015747488,-0.037666321,0.181910902
0.54,0.027462006,-0.020817757,0.279770374
0.55,0.119716406,-0.193207741,0.422540635
0.56,0.056366682,-0.166955948,0.465662152
0.57,-0.065981328,-0.119117737,0.174910963
0.58,-0.146464527,-0.013708115,-0.131177485
0.59,-0.145176411,-0.013528824,-0.129318118
0.6,-0.182952642,0.051196098,-0.128526092
0.61,-0.198325515,0.074985504,0.128187478
0.62,-0.144135594,-0.016185761,0.393739283
0.63,-0.235004306,-0.073750496,0.16166538
0.64,-0.195382059,-0.157523155,0.071743339
0.65,-0.133560062,-0.159828186,-0.029706419
0.66,-0.071765006,-0.128599167,0.027201444
0.67,-0.079549909,-0.07585907,0.274908364
0.68,0.058334768,-0.083034515,0.442933232
0.69,0.262323707,-0.059147835,0.412319779
0.7,0.091739953,0.026978493,0.131711483
0.71,0.092430949,0.027171135,0.134725273
0.72,-0.064574718,-0.00370121,0.040440649
0.73,-0.016174138,-0.003450394,-0.014772773
0.74,0.007137001,0.027893066,-5.01275E-05
0.75,0.013208866,0.049599648,0.05768761
0.76,-0.100632906,0.052093506,0.109535009
0.77,-0.197013855,0.107322693,0.12779358
0.78,-0.232827067,0.066813469,0.095594674
0.79,-0.201360285,0.067019463,0.159192503
0.8,-0.200690746,0.067198753,0.161701262
0.81,-0.199323654,0.036223412,0.203314632
0.82,-0.204693556,-0.00435257,0.241593778
0.83,-0.219410181,-0.044981956,0.288217306
0.84,-0.047864914,-0.080843925,0.050167024
0.85,-0.068593562,0.005365372,0.169282794
0.86,-0.067636013,0.005367279,0.167854816
0.87,-0.015923381,-0.009000778,0.311676204
0.88,-0.016631424,0.005392075,0.293419302
0.89,0.009632707,0.007961273,0.195298493
0.9,0.026179731,0.053695679,0.156289756
0.91,0.066178143,0.051577568,0.111741871
0.92,-0.014185488,0.030319214,0.125548571
0.93,-0.012756884,0.030640602,0.129832536
0.94,-0.236148655,0.047765732,-0.069125056
0.95,-0.258558631,0.055272102,-0.031383753
0.96,-0.054143012,0.029214859,0.17160219
0.97,0.088591754,-0.078409195,0.46216628
0.98,0.036157072,-0.15986824,0.440287471
0.99,0.015503645,-0.198176384,0.303171903
1,0.01480931,-0.198167801,0.304286629
1.01,-0.080388546,-0.222005844,0.190691233
1.02,-0.163476169,-0.078103065,-0.356506467
1.03,-0.163861692,-0.077940941,-0.35285145
1.04,-0.01718992,0.05599308,0.54674238
1.05,-0.040431201,0.055742264,0.596957326
1.06,-0.113170862,0.050753593,0.38163811
1.07,-0.13017416,0.014777184,0.155838013
1.08,-0.130170286,-0.023486137,-0.001520157
1.09,-0.130414963,-0.023421288,6.97374E-05
1.1,-0.039650023,0.022072792,0.330802918
1.11,0.060172021,-0.001981735,0.45897907
1.12,0.030550241,0.019407272,0.29440546
1.13,-0.032484531,-0.004638672,-0.020229459
1.14,-0.119158804,0.012159348,0.021810055
1.15,-0.090396464,-0.002123833,0.176371098
1.16,-0.090577602,-0.002082825,0.177366495
1.17,-0.041009843,0.038698196,0.060216457
1.18,-0.024371743,0.055626869,0.077732116
1.19,-0.105963349,0.060569763,0.183858126
1.2,-0.084036171,0.055983543,0.112910122
1.21,-0.069025338,-0.00118351,0.038475871
1.22,-0.101945818,-0.122958183,0.031548858
1.23,-0.094232976,-0.16574955,0.036253095
1.24,-0.000679433,-0.112817764,0.07158494
1.25,-0.00124526,-0.112692833,0.074466646
1.26,-0.056708395,0.040569305,0.204664648
1.27,-0.131602764,0.05730629,0.231474519
1.28,-0.053320944,0.018961906,0.233992726
1.29,0.04096657,-0.000275612,0.117070764
1.3,0.077175736,-0.012308121,0.104452223
1.31,0.036835253,0.025996208,0.173593879
1.32,0.064227521,0.025969505,0.215546221
1.33,0.031455636,0.04988575,0.193137884
1.34,0.029817998,0.049854279,0.194436073
1.35,-0.09174329,-0.021999359,0.016613781
1.36,-0.140898645,-0.017180443,-0.105800033
1.37,-0.165876269,0.047496796,-0.080256283
1.38,-0.126541376,0.004350662,0.167170614
1.39,-0.011155725,-0.014962196,0.581079722
1.4,0.012701273,-0.07032299,0.633945525
1.41,-0.099489987,-0.125667572,0.061806321
1.42,-0.234559894,-0.106498718,-0.06367749
1.43,-0.202987909,-0.017861366,0.08026427
1.44,-0.144628644,0.008522987,-0.032312214
1.45,-0.012353301,0.011091232,-0.152329385
1.46,0.027793527,0.023176193,0.07047832
1.47,0.002200842,0.056568146,0.359993905
1.48,-0.085721254,0.056289673,0.419382602
1.49,-0.184827685,0.058474541,0.405005932
1.5,-0.139214754,0.022459984,0.211636186
1.51,-0.138969839,0.02246666,0.21137023
1.52,-0.119406521,-0.034870148,0.016789138
1.53,0.034050286,-0.082607269,0.138886541
1.54,0.033539772,-0.082550049,0.140318662
1.55,0.100042462,-0.092125893,0.272564292
1.56,-0.014852524,-0.046570778,0.13479057
1.57,-0.015439212,-0.046519279,0.136186451
1.58,0.024384379,-0.032142639,0.173347324
1.59,0.08051604,0.018112183,0.162459672
1.6,0.049553096,0.051477432,0.167313695
1.61,0.023219049,0.056099892,0.195942104
1.62,0.020937264,0.055952072,0.195844472
1.63,-0.19628793,0.051055908,0.193745405
1.64,-0.201618552,0.003154755,0.09103474
1.65,-0.184901655,-0.078198433,-0.001283407
1.66,-0.205792129,-0.034935951,0.13220498
1.67,-0.204620719,-0.034849167,0.132639855
1.68,-0.097393453,-0.051514626,0.103409976
1.69,-0.112830639,-0.051430702,0.150966913
1.7,-0.087372661,-0.060967445,0.276884407
1.71,-0.086088419,-0.060988426,0.275050193
1.72,0.031654477,0.001181602,0.165522158
1.73,-0.049229026,0.034615517,0.297688931
1.74,0.021146238,0.032126427,0.251942992
1.75,0.02160883,0.032042503,0.249817073
1.76,0.000176668,0.036805153,0.083967358
1.77,-0.011485994,-0.027834892,-0.050349891
1.78,-0.126881301,-0.027852058,-0.028439045
1.79,-0.17227155,0.055949211,0.050490797
1.8,-0.083451569,0.055903435,0.135688633
1.81,-0.038161337,0.043888092,0.211642027
1.82,0.064536214,-0.018364906,0.386648476
1.83,-0.079823732,-0.016004562,0.226649433
1.84,-0.075049341,-0.042236328,-0.049200714
1.85,-0.14478004,-0.034914017,0.159094065
1.86,-0.058444619,-0.046858788,0.379755497
1.87,0.020489335,-0.04691124,0.015187442
1.88,0.020006061,-0.046803474,0.017339051
1.89,0.125961006,0.027344704,0.216967493
1.9,0.046375096,0.055754662,0.37060976
1.91,0.041095674,0.074574471,0.274823636
1.92,-0.076135695,0.086295128,0.208248705
1.93,-0.132484436,0.102884293,0.250039816
1.94,-0.132358551,0.10285759,0.249396861
1.95,-0.100680053,0.055132866,0.153473198
1.96,-0.022842288,-0.057077408,0.073524475
1.97,0.016657233,-0.099845886,0.218958944
1.98,0.02302748,-0.125864029,0.198673606
1.99,0.060658991,-0.068054199,0.123556554
2,0.011710346,-0.077308655,0.180148125
2.01,0.070021331,-0.029218674,0.288108438
2.02,0.125039578,-0.026695251,0.175126195
2.03,0.126600862,-0.0218153,0.014576435
2.04,0.031915247,0.076375008,0.050063193
2.05,-0.14650172,0.133794785,0.093936384
2.06,-0.240516722,0.16967392,0.122763544
2.07,-0.224321842,0.081072807,0.170918524
2.08,-0.212860704,0.05474472,0.123612851
2.09,-0.203218818,0.035700798,0.103908539
2.1,-0.207181037,-0.007166862,0.121034324
2.11,-0.081042171,0.00030899,0.001852989
2.12,-0.079241157,0.000675201,0.005849957
2.13,-0.1322276,0.032147408,0.028273344
2.14,-0.003143668,0.020468712,0.269964695
2.15,0.053479552,-0.017582893,0.272270083
2.16,0.09829253,-0.041242599,0.229584575
2.17,0.099801719,-0.040976524,0.232048929
2.18,0.1149804,-0.059901237,0.18189007
2.19,0.119744003,-0.05017662,0.127067745
2.2,0.169179112,-0.050088882,0.169683516
2.21,0.028676093,-0.038045883,-0.050209224
2.22,-0.044621348,0.060277939,-0.093975067
2.23,-0.067186117,0.101154327,0.074915946
2.24,0.036850214,0.141986847,0.253076494
2.25,0.080354273,0.067884445,0.393292844
2.26,-0.065562665,-0.02056694,0.215528369
2.27,-0.18367666,-0.101622582,-0.001184702
2.28,-0.180724323,-0.048422813,0.048856974
2.29,-0.152882814,-2.95639E-05,-0.043108284
2.3,-0.098355174,0.029397964,-0.186039031
2.31,-0.041891277,0.04206562,0.069172561
2.32,-0.041554511,0.042575836,0.076068759
2.33,0.070558548,0.064415932,0.391857982
2.34,-0.004835367,0.045459747,0.381291717
2.35,-0.004976869,0.045660019,0.383995742
2.36,-0.016475201,-0.061783791,-0.043326318
2.37,-0.015453696,-0.061388016,-0.038718522
2.38,-0.118961632,-0.061031342,0.268457025
2.39,-0.117157698,-0.060790062,0.270225793
2.4,-0.067571938,-0.094056129,0.298232764
2.41,0.022879839,-0.088888168,0.117230535
2.42,0.009902179,-0.086075783,0.135940969
2.43,-0.000874758,-0.111998558,0.123592436
2.44,-0.037952006,-0.113972664,0.094535351
2.45,0.001201928,-0.072825432,-0.022455156
2.46,-0.022275984,-0.017274857,0.052879572
2.47,-0.127012968,0.033461571,0.23757875
2.48,-0.126158416,0.033840179,0.241715431
2.49,-0.132297099,0.062966347,0.209981799
2.5,-0.334156454,-0.022770882,0.053918302
2.51,-0.31524235,-0.062971115,-0.030284762
2.52,-0.314279556,-0.062637329,-0.02694422
2.53,-0.160511494,-0.019282341,0.064431548
2.54,-0.066887736,0.064604759,0.204118431
2.55,-0.09047246,0.071790695,0.244503677
2.56,-0.089216888,0.071862221,0.24439317
2.57,-0.151486397,0.07204628,0.232846201
2.58,-0.083882928,0.069988251,0.21269536
2.59,0.043234766,-0.003905296,0.166638792
2.6,0.0641011,0.001189232,0.281424224
2.61,0.065654755,0.001393318,0.282838762
2.62,-0.011651576,-0.041530609,0.311971009
2.63,-0.031877398,-0.096437454,-0.010312676
2.64,-0.158266604,-0.096191406,-0.065229058
2.65,-0.183432758,-0.021790504,0.16568923
2.66,-0.139622331,-0.005090714,0.205138087
2.67,-0.070313931,0.016340256,0.084236026
2.68,-0.014380038,-0.024465561,0.622844398
2.69,-0.034672678,-0.082240105,0.497942954
2.7,-0.075878203,-0.137488365,0.146391451
2.71,-0.068376005,-0.108784676,0.057389438
2.72,-0.041526794,-0.087227821,-0.129733443
2.73,-0.024613678,-0.020067215,0.003216624
2.74,-0.054402947,0.070876122,0.422807425
2.75,-0.077293515,0.073025703,0.626709521
2.76,-0.057163298,0.072594643,0.440688074
2.77,-0.122709632,0.055503845,0.173948705
2.78,-0.242220163,0.009847641,0.006585062
2.79,-0.24069041,0.009868622,0.005411327
2.8,-0.212892234,-0.088210106,0.029296219
2.81,-0.093779802,-0.131194115,0.242114306
2.82,0.030276001,-0.159814835,0.327926487
2.83,0.02247417,-0.145312309,0.169957578
2.84,-0.006610632,-0.149831772,0.181117535
2.85,-0.011814475,-0.132882118,0.277537882
2.86,0.008824348,-0.104089737,0.138178408
2.87,-0.045640051,-0.039362907,-0.019422829
2.88,-0.050429881,-0.010536194,-0.075603068
2.89,-0.051220179,-0.010461807,-0.073973954
2.9,-0.152696431,0.023094177,-0.063189268
2.91,-0.156264365,-0.000834465,-0.026206613
2.92,-0.157308102,-0.000811577,-0.024783909
2.93,-0.174510956,0.016030312,0.022109568
2.94,-0.096186578,-0.005462646,0.056918919
2.95,-0.005946875,-0.067710876,0.208409965
2.96,-0.007097602,-0.067807198,0.208162129
2.97,0.075219035,0.030112267,0.235397041
2.98,-0.000428021,-0.010819435,0.271919131
2.99,0.012513757,-0.015910149,0.190431416
3,0.05609858,0.005284309,0.139953017
3.01,0.039224744,-0.023777962,0.185852885
3.02,0.005641758,-0.028877258,0.23178494
3.03,-0.056326091,0.033074379,0.208458901
3.04,-0.058176875,-0.003064156,0.037182331
3.05,-0.096128941,-0.019948959,-0.158872247
3.06,-0.09784615,-0.019952774,-0.157382906
3.07,-0.247267962,0.071073532,-0.110598683
3.08,-0.144742727,0.071121216,0.010267138
3.09,-0.145737827,0.071175575,0.011683404
3.1,-0.123443127,-0.010199547,-0.082184374
3.11,0.197276443,-0.123053551,0.789714575
3.12,0.096540511,-0.137921333,0.419280142
3.13,0.096000731,-0.138076782,0.417974323
3.14,-0.016689003,-0.052015305,0.00214982
3.15,-0.017041326,-0.052054405,0.001895547
3.16,-0.01914537,0.014843941,0.229444563
3.17,-0.031514525,0.047943115,0.518504858
3.18,-0.037033916,0.030487061,0.397353321
3.19,-0.158945084,0.032344818,0.081170619
3.2,-0.291444302,0.022542953,0.076494396
3.21,-0.075196803,0.063217163,0.10896039
3.22,-0.02705723,0.039279938,0.132803738
3.23,0.041069031,0.020319939,0.151095092
3.24,0.042238891,0.020576477,0.153601527
3.25,0.005315661,-0.017477989,0.268057853
3.26,0.09224236,-0.091499329,0.107121706
3.27,0.130080521,-0.096158981,0.044659495
3.28,-0.005138576,-0.086526871,0.120530427
3.29,-0.080086768,-0.060213089,0.161513031
3.3,-0.047421694,-0.055497169,0.156598866
3.31,-0.063074529,0.035398483,0.099124491
3.32,-0.064490497,0.0353508,0.099633038
3.33,-0.063447237,0.068729401,0.206790328
3.34,-0.064255118,0.068664551,0.206675172
3.35,-0.100301802,0.044783592,0.044831872
3.36,-0.186227441,0.013749123,0.0362432
3.37,-0.090209782,-0.036381722,0.020904839
3.38,-0.080610096,-0.033929825,0.021804988
3.39,-0.044954479,-0.000408173,0.151332557
3.4,0.009766281,0.016226768,0.229162872
3.41,-0.036135972,-0.003037453,0.218488634
3.42,-0.036170423,-0.003125191,0.217387974
3.43,0.004520237,-0.060628891,0.166499198
3.44,0.033018112,-0.012767792,0.140083253
3.45,-0.01270318,0.008713722,0.204168081
3.46,0.047231197,-0.027243614,0.136451483
3.47,0.011136711,-0.024850845,0.052667081
3.48,-0.161392272,-0.024785995,-0.061154544
3.49,-0.153474927,0.05201149,-0.052478254
3.5,-0.162402034,0.068909645,0.035068274
3.51,-0.040177345,0.066602707,0.182124376
3.52,0.080676138,0.037847519,0.355305374
3.53,0.023840249,-0.055670738,0.620804429
3.54,-0.034563899,-0.132526398,0.424560547
3.55,-0.03507632,-0.132677078,0.423084617
3.56,-0.008914113,-0.101577759,0.159441412
3.57,-0.121640563,0.058899879,-0.107699692
3.58,-0.055736184,0.06838131,0.401871651
3.59,-0.139516711,0.068016052,0.713026881
3.6,-0.133712471,0.067584038,0.562728405
3.61,-0.172385633,0.062531471,0.075681269
3.62,-0.307773709,0.064990044,-0.046386421
3.63,-0.254669488,0.022061348,-0.010761619
3.64,-0.223222792,-0.001714706,0.099283814
3.65,-0.164988697,0.003274918,0.237945437
3.66,-0.053808153,-0.027638435,0.40523833
3.67,-0.050385177,-0.027460098,0.40466845
3.68,-0.03767693,-0.075191498,0.202818155
3.69,-0.110841274,-0.089262009,0.184479952
3.7,-0.085711896,-0.050639153,0.269118309
3.71,-0.044422567,-0.086307526,0.228941739
3.72,-0.04675889,-0.078879356,0.069547653
3.73,-0.140336096,-0.064231873,0.08793956
3.74,-0.138420105,-0.064048767,0.088724017
3.75,-0.089961469,-0.052019119,0.074559987
3.76,-0.197008133,-0.023171425,0.128000379
3.77,-0.179110825,-0.080506325,0.171764255
3.78,-0.180471182,-0.063652039,0.176787734
3.79,-0.198253632,-0.04441452,0.109635294
3.8,-0.197015643,-0.044350624,0.10934186
3.81,-0.217541099,0.022768974,0.131046951
3.82,-0.216343045,0.022783279,0.130102933
3.83,-0.193390489,0.034780502,0.160133719
3.84,-0.146522224,0.037190437,0.250218332
3.85,-0.144398034,0.037272453,0.24924922
3.86,-0.14127934,0.013465881,0.291316778
3.87,-0.087512374,-0.003038406,0.154989243
3.88,-0.034259439,0.021203041,0.101109862
3.89,-0.012874961,0.004714012,0.181387007
3.9,-0.011299908,0.004912376,0.182345033
3.91,0.020519614,-0.006936073,0.087602198
3.92,-0.079486847,0.009958267,-0.162520647
3.93,-0.072318316,0.067430496,-0.162507772
3.94,-0.092018485,0.067230225,0.146852374
3.95,0.035565257,-0.029005051,0.683497965
3.96,0.034521401,-0.02929306,0.680773497
3.97,-0.033123672,-0.209046364,0.185659051
3.98,-0.033174455,-0.209176064,0.184189558
3.99,-0.040492177,-0.192380905,-0.200671375
4,-0.094171762,-0.055901527,-0.374548614
4.01,0.073378086,0.070652962,0.540360749
4.02,-0.08776474,0.096431732,0.693953931
4.03,-0.233377278,0.069580078,0.502267182
4.04,-0.190641344,-0.014500618,0.058156192
4.05,-0.272071898,-0.033686638,-0.12162602
4.06,-0.225642324,-0.031070709,0.019125819
4.07,-0.075988173,-0.033260345,0.174007177
4.08,0.087591112,0.007673264,0.210046351
4.09,0.155046046,0.048642159,0.27032283
4.1,0.112416267,0.070459366,0.110850334
4.11,0.074863672,0.066133499,-0.065921068
4.12,0.084937036,-0.005080223,-0.053543091
4.13,0.10875541,-0.061986923,-0.020040393
4.14,0.165221751,-0.061573982,0.019551396
4.15,0.105726123,0.015316963,0.094177723
4.16,0.103562117,0.015490532,0.098276973
4.17,0.108035564,0.068208694,0.137190878
4.18,0.052492142,0.065856934,0.104234397
4.19,-0.126976788,0.06832695,0.068785489
4.2,-0.174570441,0.001373291,0.016683042
4.21,-0.157446742,-0.060803413,0.048054039
4.22,-0.13976109,-0.041594505,0.05255729
4.23,-0.141220033,-0.041563988,0.054074705
4.24,-0.073039651,0.018188477,0.154395163
4.25,-0.009513557,0.022864342,0.139549613
4.26,-0.026986837,0.015577316,0.196274519
4.27,-0.027398109,0.015476227,0.195446849
4.28,0.025038362,0.017757416,0.364243269
4.29,0.032749891,0.020092011,0.279284596
4.3,0.033450723,0.015317917,0.092135429
4.31,-0.003955066,-0.015712738,0.099811554
4.32,0.001479089,-0.092237473,0.088302493
4.33,-0.062928975,-0.123293877,-0.126526415
4.34,-0.077389836,-0.029812813,-0.31198746
4.35,-0.054092526,0.006055832,-0.144221008
4.36,0.064366877,0.027380943,0.375776827
4.37,0.117670357,-0.032907486,0.743313909
4.38,-0.0562374,-0.13388443,0.277455747
4.39,-0.113965869,-0.114739418,-0.017067015
4.4,-0.12106508,-0.133786202,0.209212422
4.41,-0.073077023,-0.093174934,0.02616322
4.42,-0.073758364,-0.093147278,0.027048767
4.43,0.031988978,-0.040541649,0.027952492
4.44,-0.05907917,-0.033639908,0.292269707
4.45,-0.152328908,-0.046073914,0.305146068
4.46,-0.192553461,-0.041810989,0.111018837
4.47,-0.39005065,0.017642975,0.056698263
4.48,-0.298567832,-0.085618019,-0.050430775
4.49,-0.254798293,-0.160056114,-0.156683087
4.5,-0.306203842,-0.128998756,-0.204196751
4.51,-0.306450844,-0.11462307,-0.0670169
4.52,-0.151205003,-0.018891335,0.036039829
4.53,-0.150331676,-0.018984795,0.034118533
4.54,-0.128007293,0.050395012,-0.118001998
4.55,-0.193630457,0.069500923,0.004509926
4.56,-0.249512315,0.134050369,0.181381226
4.57,-0.240644157,0.069390297,-0.105217397
4.58,-0.265606523,0.060011864,-0.240147889
4.59,-0.362167299,0.041149139,-0.249921441
4.6,-0.498868525,-0.006459236,-0.245780706
4.61,-0.571978986,-0.128173828,-0.205671907
4.62,-0.59812355,-0.173195839,-0.029500484
4.63,-0.484092057,-0.302072525,-0.070599437
4.64,-0.683369577,-0.217827797,-0.154649854
4.65,-0.805831373,-0.305805206,-0.15052706
4.66,-0.488236904,-0.41046238,-0.202414274
4.67,-0.168253303,-0.558454514,-0.26479739
4.68,-0.146310568,-0.608584404,-0.071612835
4.69,-0.232946456,-0.565660477,0.22363317
4.7,-0.437760949,-0.458369255,0.24769026
4.71,-0.528002083,-0.406029701,0.012232184
4.72,-0.571503341,-0.391843796,-0.287013829
4.73,-0.623867691,-0.394241333,-0.436793625
4.74,-0.521950305,-0.422827721,-0.569067061
4.75,-0.531241715,-0.456321716,-0.501003444
4.76,-0.506779492,-0.50422287,-0.393389881
4.77,-0.407912314,-0.499495506,-0.332732379
4.78,-0.434204698,-0.487715721,-0.218483031
4.79,-0.424576759,-0.488057137,-0.236414433
4.8,-0.265879571,-0.450462341,0.275265455
4.81,-0.443176687,-0.527523994,0.312138766
4.82,-0.547516108,-0.578087807,0.321443498
4.83,-0.448980629,-0.489727974,0.284101397
4.84,-0.148640513,-0.497151375,0.042152256
4.85,0.031761765,-0.463912964,-0.388486296
4.86,0.008684158,-0.440278053,-0.326680452
4.87,0.01504916,-0.443147659,-0.066095263
4.88,-0.001968563,-0.446032524,-0.119484901
4.89,-0.147313356,-0.180606842,-0.019833788
4.9,-0.147273004,-0.123202324,0.094586968
4.91,-0.164997399,-0.163662911,0.188838199
4.92,-0.142375827,-0.340214729,0.221571282
4.93,0.002550185,-0.530760765,0.065605424
4.94,0.223825246,-0.752149582,-0.12390323
4.95,0.524768591,-0.707480431,-0.24468416
4.96,0.766516209,-0.518938065,-0.375086695
4.97,1.221532583,-0.102739334,-0.463278472
4.98,1.553160191,0.31358242,-0.486347258
4.99,1.813702703,0.830586433,-0.619922161
5,1.789659619,0.830551148,-0.660542905
5.01,1.413003206,1.764537811,-0.187861174
5.02,1.198000312,2.052283287,0.082694948
5.03,1.072986722,2.074459076,0.114232749
5.04,1.058228612,1.842730522,-0.090308249
5.05,1.11897409,1.459996223,-0.297796726
5.06,0.888153315,1.098683357,-0.322042108
5.07,0.476384431,0.677526474,-0.459429383
5.08,0.222899959,0.335339546,-0.742363095
5.09,-0.073733658,0.03122139,-1.078187943
5.1,-0.470335096,-0.229963303,-1.401844144
5.11,-0.472652942,-0.230257034,-1.397869349
5.12,-1.280554533,-0.692604065,-1.38469696
5.13,-1.153415442,-0.975326538,-1.23884809
5.14,-0.606133461,-1.126339912,-1.13818121
5.15,-0.220845074,-1.207836151,-1.027437329
5.16,-0.031504929,-1.13353157,-0.634621501
5.17,0.173938498,-1.126067162,-0.341489941
5.18,0.178754464,-1.125626564,-0.346377164
5.19,0.347117305,-1.173069,-0.25907889
5.2,0.366575897,-1.242059708,-0.619463861
5.21,0.179686695,-1.145703316,-0.994600117
5.22,0.137831196,-1.180897713,-0.938973784
5.23,0.137427375,-1.180103302,-0.952124953
5.24,0.228591025,-1.109869003,-1.03096962
5.25,0.273319095,-1.0492239,-1.277251005
5.26,0.372931987,-0.916851997,-1.308341742
5.27,0.334715366,-0.81329155,-1.225255966
5.28,0.334586769,-0.812664032,-1.234748125
5.29,0.1010748,-0.678032875,-1.393170953
5.3,-0.11220935,-0.66084671,-1.506092191
5.31,-0.106009424,-0.66768074,-1.602626562
5.32,-0.219643444,-0.645893097,-1.496572256
5.33,-0.281447768,-0.556977272,-1.438965201
5.34,-0.234629929,-0.422581673,-1.438007712
5.35,-0.201048344,-0.257200241,-1.3461169
5.36,-0.218238324,-0.13252449,-1.097326875
5.37,-0.071183592,-0.002966881,-1.01180172
5.38,0.092887372,0.073901176,-0.949772239
5.39,0.103171378,0.074217796,-0.948501468
5.4,0.158683091,0.318777084,-1.014786005
5.41,-0.164912164,1.02549839,-0.850076079
5.42,-0.081215858,1.377934456,-0.931763113
5.43,0.029312551,1.852432251,-1.036752224
5.44,0.145906597,2.290990829,-1.077907562
5.45,0.461749882,2.686473846,-1.323949456
5.46,0.541759372,3.048330307,-1.485233665
5.47,0.538497686,3.04877758,-1.49314642
5.48,0.439973563,3.145206451,-1.315421462
5.49,0.21779494,3.387955666,-1.246211052
5.5,-0.238339245,3.67908287,-0.932915568
5.51,-0.45285818,3.743238449,-0.708073795
5.52,-0.59742558,3.760068893,-0.062279046
5.53,-0.893263757,3.631500244,0.519549012
5.54,-1.153538465,3.632655144,1.144816637
5.55,-1.122091293,3.636291504,1.122604847
5.56,0.280806482,3.313700676,2.371021748
5.57,1.09085238,2.734547615,3.208673954
5.58,1.924986362,2.001936913,4.385176182
5.59,1.919414878,2.004405975,4.355820656
5.6,-0.178391755,1.51399231,4.981247902
5.61,-1.17051506,1.313080788,4.425509453
5.62,-1.551390409,0.853329659,3.676340103
5.63,-1.222377777,0.371811867,3.071235657
5.64,-1.208778381,0.373768807,3.061071396
5.65,-0.664973259,0.040608406,3.02417016
5.66,-0.16912967,-0.081282616,3.29467392
5.67,0.008046865,0.798756599,3.447282314
5.68,-0.013792872,0.803262711,3.396254539
5.69,-0.058839679,1.495551109,3.027069092
5.7,-1.382959366,2.62189579,2.787402153
5.71,-2.663188457,2.795730591,2.642601013
5.72,-3.333791256,2.518733978,2.176512718
5.73,-3.212347984,1.790313721,1.125479698
5.74,-3.204953194,1.792541504,1.112882614
5.75,-1.962372184,-1.125822067,-0.728068113
5.76,-1.572748184,-2.462351322,-0.921216011
5.77,-0.753232539,-3.236072063,-1.341019154
5.78,-0.751690924,-3.236599445,-1.336606622
5.79,0.040594637,-5.136107445,-0.76570195
5.8,0.30543527,-5.689549923,-0.363893569
5.81,0.472664893,-5.986796856,-0.031326294
5.82,0.397746682,-6.432738304,0.566328645
5.83,0.67019856,-6.54425621,0.574605823
5.84,1.395624161,-6.620471954,-0.256044388
5.85,1.714964151,-6.588670731,-0.940792561
5.86,1.453023553,-6.309540749,-0.675476551
5.87,1.242886543,-6.032348633,-0.490566731
5.88,1.235007286,-6.036768913,-0.458684564
5.89,0.784297645,-4.924529076,-1.177048326
5.9,0.766667485,-4.927458763,-1.161237597
5.91,0.10407418,-3.426324368,-1.435373068
5.92,0.07902199,-3.428562641,-1.42815125
5.93,-0.17149061,-1.77146244,-1.520526886
5.94,-0.685814261,-0.729763985,-1.105681539
5.95,-1.251339197,0.060712814,-0.616135716
5.96,-1.261147261,0.05860424,-0.601482272
5.97,-1.786939621,1.016186714,-0.060561538
5.98,-1.559038281,1.307471275,-0.506895363
5.99,-1.557042122,1.30354023,-0.46823746
6,-1.393937111,1.792666435,-0.873620629
6.01,-0.953081131,2.246334076,-0.59837544
6.02,-0.832877755,2.717404366,0.306162655
6.03,-0.964825332,2.978544235,0.571575165
6.04,-1.368075728,3.216169357,0.291013777
6.05,-2.216374874,3.441957474,-0.247727275
6.06,-3.01292038,3.754010201,-0.770449638
6.07,-3.450110197,4.384543419,-0.942032695
6.08,-3.434616804,4.382863045,-0.91157794
6.09,-1.900706887,5.137094498,0.085510194
6.1,1.555834413,5.536072731,1.50295043
6.11,1.547710299,5.532465935,1.551963806
6.12,2.879776001,5.270913124,2.948400497
6.13,2.965251684,3.652523994,5.128660202
6.14,3.053498983,2.154393196,6.111367226
6.15,3.651532888,0.879584312,5.620228767
6.16,3.688894749,0.050264359,4.132661819
6.17,3.682179451,0.04954052,4.141413689
6.18,1.084302425,0.681253433,0.152864069
6.19,1.086806059,0.681375504,0.152867556
6.2,0.912218094,0.97397995,-0.61859417
6.21,0.702072978,1.810689926,-0.216743946
6.22,0.687641144,1.812492371,-0.260670722
6.23,1.346830606,1.915220261,1.364462376
6.24,1.566944361,1.678316116,1.863689423
6.25,1.361752868,1.314620018,2.243040323
6.26,0.792628288,0.771401405,2.372803211
6.27,0.266802758,-0.135877609,2.111937523
6.28,0.259715229,-0.134177208,2.088543653
6.29,-1.043977857,-2.103841305,0.180584192
6.3,-1.295623064,-3.159722805,-0.689992607
6.31,-0.969538093,-4.335918427,-1.049405336
6.32,-0.95754236,-4.33667469,-1.035320163
6.33,0.073534966,-6.010855675,-0.755359292
6.34,0.192612097,-6.444577217,-0.39782998
6.35,0.208855525,-6.44470787,-0.388609737
6.36,0.293016255,-6.518790722,-0.049285233
6.37,0.543670774,-6.070611954,0.443787396
6.38,0.881993413,-5.615292072,0.452458441
6.39,0.940184176,-5.121743202,0.32317698
6.4,0.972970605,-4.51560545,-0.066176116
6.41,0.839143634,-3.863884926,-0.35439679
6.42,0.649882555,-3.3676548,-0.955952287
6.43,0.323109686,-2.794860363,-1.797546864
6.44,-0.074992865,-2.174209118,-2.100984097
6.45,-0.063626558,-2.173364162,-2.105092287
6.46,-0.788774788,-1.624165535,-1.949786425
6.47,-0.861364901,-0.383335114,-1.806108356
6.48,-0.601319969,0.222783089,-0.828369975
6.49,-0.155327678,0.697487831,-0.019866169
6.5,-0.142816663,0.698230743,-0.020626664
6.51,0.555810511,1.119734764,0.347499251
6.52,0.409973323,1.835599899,-0.702345491
6.53,0.440387815,2.211382866,-1.224730968
6.54,0.300842643,2.56066227,-1.397184134
6.55,0.09082824,2.862041473,-1.282271147
6.56,0.210050464,3.2619133,-1.17940414
6.57,0.055722833,3.501478195,-1.36276865
6.58,-0.565334499,3.736379623,-1.116741776
6.59,-0.767119348,4.215835571,-0.185713857
6.6,-0.104586661,4.525405884,0.81790936
6.61,0.532602549,4.621519089,1.107659101
6.62,0.542241812,4.621319771,1.120301723
6.63,0.731798708,4.489501953,3.107962608
6.64,0.050268233,3.984585762,4.663031101
6.65,-0.438270748,2.9724617,6.062467575
6.66,-0.619684637,1.975099564,6.674458981
6.67,-0.692250967,0.96116066,6.056506634
6.68,-0.492648602,0.233492851,4.897443295
6.69,-0.546439827,0.130368233,3.685501337
6.7,-1.118733406,0.482006073,2.402667522
6.71,-1.12307322,0.481807709,2.400016308
6.72,-1.821390629,2.069048882,0.053645909
6.73,-1.87774992,2.775332451,-0.399545461
6.74,-2.665759563,3.542738914,0.260401726
6.75,-2.680197001,3.545220375,0.206854284
6.76,-2.608840227,3.003185272,2.580833435
6.77,-2.619166851,3.007287979,2.519446373
6.78,-1.41204071,1.337396622,2.225693941
6.79,-0.888890624,0.082808495,1.894005299
6.8,-0.893598557,0.084257126,1.874638319
6.81,0.982427716,-3.228909969,0.393199325
6.82,1.658039331,-4.407633305,-0.591618359
6.83,1.949779034,-5.41768837,-1.300937414
6.84,1.912250042,-5.42007637,-1.301050782
6.85,2.000971556,-6.679256439,-1.061825514
6.86,1.484168768,-6.824714661,-0.630744815
6.87,0.691748619,-6.720982075,-0.316200972
6.88,0.485749632,-6.586080074,-0.289068937
6.89,0.472118706,-6.357983589,-0.607859492
6.9,0.727219045,-5.945990562,-0.307252526
6.91,0.513096809,-5.579553127,-0.109199703
6.92,0.487238765,-5.582018375,-0.092187166
6.93,-0.33222276,-4.902243137,-0.899038553
6.94,-0.512245834,-4.545442104,-1.007798672
6.95,-0.644776464,-4.040157318,-1.801072359
6.96,-0.869637132,-3.441531658,-2.526301384
6.97,-0.84601301,-2.732674122,-2.50952363
6.98,-0.8633008,-2.7350173,-2.485186577
6.99,-0.623213828,-0.860580444,-1.577945471
7,-0.510605097,0.547493935,-0.795379043
7.01,-0.52129662,0.545751572,-0.773687422
7.02,-0.47864157,1.74627018,-0.161835015
7.03,-1.667294979,3.729902267,0.784853995
7.04,-1.95736146,4.185835838,0.605305553
7.05,-1.567381263,4.26798439,0.163680375
7.06,-1.306990147,4.120408058,-0.249836087
7.07,-1.540026307,3.997059822,-0.625056148
7.08,-1.555789113,3.996110916,-0.612383723
7.09,-3.17323637,3.818243027,-1.883448124
7.1,-3.856470108,3.836724281,-2.582458735
7.11,-3.740529776,4.46310997,-1.994926691
7.12,-3.724306822,4.461979866,-1.968357921
7.13,-1.591220379,5.159641266,-0.237225145
7.14,2.62101078,5.438047409,1.956709385
7.15,3.71107173,5.201731682,3.57970953
7.16,4.025775433,4.688034058,5.178254604
7.17,4.01188612,4.68700695,5.203316689
7.18,3.473871469,2.54807663,6.475705624
7.19,3.948178291,1.000669479,5.378800869
7.2,3.574304104,0.020978928,3.167814016
7.21,1.821250439,0.271817207,0.52766943
7.22,0.168738022,1.17869854,-1.603976488
7.23,0.076736107,1.824725151,-2.311082602
7.24,0.082752377,1.824532509,-2.300161362
7.25,-0.122744635,2.54291153,-1.921635032
7.26,0.225315303,2.941063881,0.855489135
7.27,0.513512492,2.439429283,2.259964705
7.28,0.692240477,1.52409935,3.152871609
7.29,0.682145298,1.52620697,3.094634533
7.3,0.309028268,0.381598473,2.940533161
7.31,-1.240258574,-2.015443325,0.659610093
7.32,-1.226216078,-2.014073849,0.63404721
7.33,-1.726581097,-4.246781349,-0.572313666
7.34,-1.698343277,-4.245629311,-0.588466883
7.35,-1.137760639,-6.150256157,-0.552274108
7.36,-0.586506605,-6.77371788,-0.075532973
7.37,-0.153080076,-7.056606293,0.210247278
7.38,0.252762616,-7.01583147,0.144956529
7.39,0.367307574,-6.799956322,0.536739051
7.4,0.730366588,-6.41162014,0.743707061
7.41,1.146237612,-5.925333977,0.458997965
7.42,1.551161885,-5.367593288,-0.073769927
7.43,1.586627483,-5.365325451,-0.081932187
7.44,1.426961184,-4.079445839,-0.940622509
7.45,1.377718449,-3.45663929,-1.383960962
7.46,1.399277687,-3.453961372,-1.403476954
7.47,0.993798852,-2.25701046,-1.629964471
7.48,0.993665218,-2.255777359,-1.64592886
7.49,0.721053004,-1.553459167,-1.582767725
7.5,-0.110629559,-0.195290566,-1.23843503
7.51,-0.111599743,-0.194587708,-1.247711897
7.52,0.142434388,0.634392738,-0.741401494
7.53,0.034112215,0.919518471,-0.856164038
7.54,0.033153713,0.919449806,-0.855994523
7.55,0.149252713,1.388050079,-1.181415081
7.56,0.064691544,2.088571548,-1.6868155
7.57,-0.05840987,2.877595901,-1.803390741
7.58,-0.181300342,4.483320236,-1.244552732
7.59,-0.457895935,4.889801025,-0.89953351
7.6,-0.49341923,4.667175293,-0.6320889
7.61,-0.863945782,3.982931137,-0.074013293
7.62,-1.434430599,3.890625954,0.684235513
7.63,-1.242806435,4.243884087,1.092419863
7.64,-0.624898195,4.620880127,0.360210121
7.65,-0.023951054,4.561730385,0.106655359
7.66,-0.778560698,4.182593346,1.771834373
7.67,-1.074805498,3.191876411,4.412761688
7.68,-0.69332391,1.648453712,6.165230751
7.69,0.480816603,0.040179253,6.634335518
7.7,1.669431329,-0.859485626,5.884162426
7.71,1.684789181,-0.562997818,4.372471809
7.72,1.670672655,-0.561928749,4.350084305
7.73,-0.417858183,1.658601761,1.86019206
7.74,-0.515182734,2.688697815,0.559662461
7.75,-0.303220809,3.751774788,0.49921459
7.76,-0.896164298,4.314512253,1.404878974
7.77,-2.486865282,4.662798882,3.069090366
7.78,-3.230329514,4.227502823,4.068532944
7.79,-2.25926733,3.043027878,3.533804893
7.8,-1.244303823,1.699084282,1.641371608
7.81,-0.852906883,0.317368507,0.074093819
7.82,-0.520912886,-0.71096611,-0.611755014
7.83,-0.53922677,-0.711731911,-0.612938047
7.84,0.337554753,-2.804480076,-0.719204187
7.85,0.753578305,-3.721336842,-0.860851169
7.86,0.923986793,-4.40581131,-0.889059544
7.87,0.890901923,-4.405339241,-0.903408408
7.88,0.530646443,-5.02250433,0.319035888
7.89,0.509082437,-5.022465229,0.313103557
7.9,0.524596036,-5.241248131,1.070375204
7.91,0.515416265,-5.829601288,0.894789219
7.92,0.472034693,-6.114783764,-0.146266818
7.93,0.290763408,-6.298034668,-0.861986995
7.94,0.033539578,-6.386687279,-1.551742792
7.95,-0.150791079,-6.298980236,-2.133935928
7.96,-0.373545677,-6.069645882,-2.235735655
7.97,-0.382923454,-6.073889732,-2.195014238
7.98,-0.669590473,-5.658192158,-1.965947032
7.99,-1.389119148,-4.331992149,-1.814802885
8,-1.564123273,-3.433730602,-1.955145597
8.01,-1.517428637,-2.480360985,-2.027551413
8.02,-1.530558348,-1.450893402,-1.772192597
8.03,-1.348732471,-0.386069298,-1.550598979
8.04,-1.326210141,-0.388752937,-1.509697676
8.05,-0.790437818,1.658330917,-1.062025547
8.06,-0.762734056,1.656105042,-1.019167304
8.07,-1.268933296,3.035743713,-0.745479405
8.08,-1.243625641,3.034357071,-0.709140837
8.09,-1.234178185,3.473859787,-0.317178011
8.1,-0.745339334,3.702878952,0.339006484
8.11,-0.095667541,3.469991684,1.494512677
8.12,-0.735878944,3.232394218,1.36726141
8.13,-2.093454123,3.437800407,0.225200474
8.14,-3.416161776,4.241632462,-1.981328726
8.15,-3.573417902,4.956495285,-3.804323435
8.16,-2.654745579,5.177856445,-3.521400452
8.17,-0.400381088,5.179131508,-0.72605592
8.18,-0.406851649,5.178467751,-0.715502381
8.19,1.320642233,5.067852974,2.094186783
8.2,2.516510963,3.958743095,4.430893421
8.21,3.106964588,2.356341362,5.696440697
8.22,3.643689156,1.237884521,5.30049181
8.23,3.686471939,0.229718208,4.034645081
8.24,3.680829763,0.229566574,4.035010338
8.25,0.904889405,1.716303825,-0.149497896
8.26,0.514855206,2.504001617,-1.279998779
8.27,0.607918859,2.983020782,-1.509571671
8.28,0.78938818,3.146407127,-0.354878157
8.29,1.354324579,2.913280487,0.808598995
8.3,2.161692619,2.240005493,2.077726841
8.31,2.148860455,2.242276192,2.024546385
8.32,2.184114218,1.54345417,3.089985847
8.33,2.22782445,0.717971802,3.138752699
8.34,0.569917977,-0.857081413,0.385467351
8.35,-0.580178618,-1.726130486,-0.967114985
8.36,-1.105651021,-2.509126186,-1.714188099
8.37,-1.297193766,-3.505146027,-1.74209559
8.38,-1.198377728,-4.31410408,-1.205898762
8.39,-1.072412729,-5.058054924,-0.656983554
8.4,-1.052088499,-5.622286797,0.050820708
8.41,-0.396000296,-6.105648994,0.237645984
8.42,0.398720652,-6.484414101,-0.208652139
8.43,0.941510201,-6.504754066,-0.71217978
8.44,1.240582108,-6.422354698,-0.679592848
8.45,1.597879887,-6.23422718,-0.1942119
8.46,1.837797761,-6.007095337,0.045670152
8.47,1.765057921,-5.597797871,-0.050628781
8.48,1.27413106,-5.085384369,-0.218127072
8.49,1.009968877,-4.55373764,-0.641086221
8.5,1.03285253,-4.55132103,-0.652875423
8.51,0.065490544,-3.292160034,-1.286226749
8.52,-0.156739235,-2.607635498,-1.52902317
8.53,-0.097572029,-1.720007896,-1.873692036
8.54,-0.287878811,-0.85248661,-1.836267233
8.55,-0.178310514,0.077045441,-1.434491873
8.56,-0.322804153,0.714282036,-1.222562909
8.57,-0.319637895,1.571509361,-1.291860819
8.58,-0.187862098,2.231769562,-1.240171313
8.59,0.114605427,2.798295975,-1.044862986
8.6,0.591203332,3.40536499,-0.483222842
8.61,0.323942184,3.952443123,-0.459200859
8.62,0.319203258,3.951273918,-0.450361729
8.63,-0.027803838,4.307022095,-1.344746947
8.64,-0.604158342,4.1726408,-2.292012691
8.65,-1.126934767,4.462464333,-2.037098408
8.66,-1.128569007,4.463388443,-2.047526121
8.67,-0.812231183,5.990546227,0.989123285
8.68,-0.931116223,5.942863464,1.365807176
8.69,-0.839113236,5.801754951,2.167281628
8.7,-0.814002693,5.804471016,2.156672001
8.71,-0.653830409,3.965508461,3.367444038
8.72,-0.38351506,2.848814964,3.703778744
8.73,0.198853612,1.573726654,4.376016617
8.74,0.203099966,1.575180054,4.365130424
8.75,1.683653116,-0.14249897,5.394878387
8.76,1.658501863,-0.140621185,5.362070084
8.77,1.056573391,0.200837135,4.855153561
8.78,0.26801914,0.936447144,3.186669827
8.79,-0.675667703,1.680542946,1.89757514
8.8,-1.615067244,2.392959595,0.945161343
8.81,-1.638381004,2.392222404,0.940395117
8.82,-3.019125938,3.340215683,0.772848129
8.83,-2.814563036,3.129685402,0.518201947
8.84,-2.289814711,2.490490913,0.374329925
8.85,-1.639409423,1.6023283,0.38318944
8.86,-1.084662199,0.444056511,0.680041313
8.87,-0.611956239,-0.70667553,0.682167053
8.88,-0.299675494,-1.898163795,0.5408113
8.89,0.18188481,-2.970105648,0.347686768
8.9,0.698387027,-3.989527702,0.176483631
8.91,1.142008185,-4.726523876,-0.327344239
8.92,1.079990506,-5.306046963,-0.764033735
8.93,0.824748397,-5.651503563,-0.735366643
8.94,0.666951716,-6.001977921,-0.413661182
8.95,0.827264905,-6.33349371,-0.374068618
8.96,1.147120237,-6.684744835,-0.637816846
8.97,0.696239829,-6.771009922,-0.637980878
8.98,0.676349402,-6.774953365,-0.608331025
8.99,-0.082510382,-6.379709244,-1.031597376
9,-0.095605642,-6.384487152,-0.992370129
9.01,-0.106470883,-5.519925594,-1.738728046
9.02,-0.147592068,-4.844109535,-1.177411437
9.03,-0.59418565,-4.175037861,-1.133638144
9.04,-0.601469696,-4.178733349,-1.098376274
9.05,-0.988605201,-2.41063261,-1.217726827
9.06,-1.053735018,-1.466223717,-1.157875299
9.07,-0.995750487,-0.531757355,-1.796360016
9.08,-0.990978599,-0.535959244,-1.748774052
9.09,-1.056460023,0.379927635,-2.020533562
9.1,-1.154219389,1.272658348,-1.667781353
9.11,-1.727827668,2.913109779,-0.066115856
9.12,-2.234594345,3.531650543,0.388997376
9.13,-2.231092691,3.865415573,0.2273826
9.14,-1.7140553,3.765842438,-0.283325106
9.15,-1.723406672,3.685397148,-0.843446374
9.16,-2.421296358,3.724852562,-1.786074638
9.17,-3.422713518,3.647134781,-2.641038179
9.18,-4.106281757,3.689214706,-2.578147173
9.19,-3.655870199,4.205625534,-1.231047153
9.2,-1.273305416,5.131615639,0.415609539
9.21,-1.249325514,5.130378723,0.445590854
9.22,0.753773928,5.756209373,1.247455597
9.23,2.749554157,5.417079926,2.385211468
9.24,2.752115011,5.415606499,2.419167042
9.25,3.235597134,4.267403603,3.189831734
9.26,3.046382666,2.671730042,3.80956316
9.27,3.698843241,1.303974152,4.091810226
9.28,3.592737436,0.164316177,3.34374094
9.29,2.481217623,-0.304708481,1.824222922
9.3,2.468834639,-0.304340363,1.810539842
9.31,0.306352437,0.562846184,-0.562437534
9.32,0.306108713,0.56360817,-0.580294609
9.33,0.177468374,1.091221809,-0.725897074
9.34,0.601608038,1.607089996,-0.38703987
9.35,0.943232536,1.993900299,0.223150313
9.36,0.850599945,2.088913918,0.714013279
9.37,0.858916163,1.264799118,1.313153505
9.38,0.719884276,0.402663231,1.369627714
9.39,0.371206462,-0.727352142,1.283014297
9.4,0.052838802,-1.804594517,0.965578139
9.41,-0.261528552,-3.032892227,0.479065657
9.42,-0.392198652,-3.979055882,-0.06666863
9.43,-0.645144999,-4.813248158,-0.6273669
9.44,-0.723750889,-5.480617523,-0.823969662
9.45,-0.679018736,-5.949484348,-0.486895919
9.46,-0.64959681,-5.948904514,-0.487526
9.47,-0.856583297,-6.247639656,-0.641736388
9.48,-0.548622072,-5.990801811,-0.860206485
9.49,0.106675595,-5.70960474,-0.942430675
9.5,0.415181816,-5.226821899,-0.825908184
9.51,0.680574179,-4.743544102,-0.397212625
9.52,0.778257966,-4.164065361,0.109736562
9.53,1.087840199,-3.615379333,0.105789959
9.54,1.286807418,-3.201014996,-0.22697258
9.55,1.101376772,-2.62666893,-0.522301376
9.56,0.814647377,-2.009677887,-0.88056469
9.57,0.835368037,-1.548735619,-1.380617142
9.58,0.634691119,-1.055030823,-1.737649083
9.59,0.434973478,-0.423005104,-1.533740044
9.6,0.433167577,-0.423329353,-1.531143665
9.61,0.328869134,0.778051376,-0.841168761
9.62,0.156915352,1.244053841,-0.898372173
9.63,0.190130577,1.882098198,-0.92946136
9.64,0.065577358,2.40266037,-0.939334154
9.65,0.068579167,2.401165009,-0.920969069
9.66,-0.386221588,3.048882484,-0.883981645
9.67,-0.669454932,3.469526291,-0.901949525
9.68,-0.473157495,3.267877579,-2.110714197
9.69,-0.470509678,3.267542839,-2.10533762
9.7,-0.688736439,4.50344944,-0.389530659
9.71,0.428453386,5.368623734,0.998394907
9.72,0.785386562,5.652118683,1.620419025
9.73,0.799568832,5.653326988,1.613798738
9.74,0.187794298,5.497109413,2.636236668
9.75,-1.206613183,3.172086716,4.681472778
9.76,-1.211684823,1.497968674,4.553539753
9.77,-0.900031865,0.223686218,4.168818474
9.78,-0.132116795,-0.506708145,4.059810638
9.79,0.165602654,-0.403624535,4.171112061
9.8,-0.282510698,0.268950462,3.955687523
9.81,-0.501636744,1.260983467,2.545799732
9.82,-0.688258946,2.450612068,1.0726583
9.83,-0.989311218,3.742588997,0.148585677
9.84,-1.818699241,4.598683357,0.405742705
9.85,-3.512788057,5.400294304,1.807886839
9.86,-3.5106709,5.40141201,1.797201276
9.87,-3.462695837,4.75434494,2.843114138
9.88,-1.136235476,2.999518394,2.630523205
9.89,-0.303038061,1.203251839,1.838370323
9.9,0.035173833,-0.284676552,0.842725635
9.91,0.145901471,-1.775564671,-0.01625818
9.92,0.12741831,-1.777451038,-0.005685925
9.93,0.858379483,-4.216448784,-0.910517991
9.94,1.350581527,-4.910236835,-1.290000319
9.95,1.323104143,-4.912196636,-1.280739069
9.96,0.932276785,-6.257047653,-0.653131902
9.97,0.691409588,-6.59833765,-0.164503634
9.98,0.53233546,-6.649805069,0.024263442
9.99,0.38297838,-6.605886459,-0.014259756
10,0.329511583,-6.487886429,0.045559943
10.01,0.346100628,-6.28165102,-0.229740143
10.02,0.234691232,-6.095064163,-0.900477409
10.03,0.21427308,-6.097939491,-0.871158361
10.04,0.200577736,-5.832337379,-1.296456814
10.05,-0.012643144,-5.0634408,-1.898678541
10.06,-0.579033971,-4.531028748,-1.300082207
10.07,-0.779001832,-3.866369247,-0.969127238
10.08,-1.090316296,-3.036385536,-0.850242078
10.09,-1.103576541,-3.037569046,-0.835757613
10.1,-1.067082882,-1.270397186,-1.550257802
10.11,-1.212130308,-0.171853066,-1.671206236
10.12,-1.235779285,0.598633766,-1.395071626
10.13,-1.220969915,0.596092224,-1.34965086
10.14,-1.146307826,1.271584511,-0.770644307
10.15,-0.91119343,1.961778641,-0.454232335
10.16,-1.060612082,3.097593307,-0.295488089
10.17,-1.369226933,3.513138771,-0.096109927
10.18,-1.846630096,3.869130135,-0.190239519
10.19,-2.200497389,3.863742828,-0.565861702
10.2,-2.674704552,3.79142952,-1.317308903
10.21,-3.56720829,3.889148712,-2.065679789
10.22,-4.219448566,4.458567619,-2.036233664
10.23,-2.910868883,5.061502457,-1.298168182
10.24,-0.736663938,5.491800308,-0.381014109
10.25,1.402231574,5.711184502,0.858036816
10.26,2.953594208,5.585710526,2.568713903
10.27,3.609503031,5.273631096,3.86569953
10.28,3.948465824,4.303385735,4.845520496
10.29,3.532626152,3.338162422,4.950686932
10.3,3.144814491,2.289305687,4.421332359
10.31,2.942136288,1.257163048,3.475097895
10.32,1.948633552,0.560152054,1.426703572
10.33,1.93800807,0.55996418,1.432551742
10.34,0.231648803,0.808802605,-1.103398442
10.35,0.060750738,1.337784767,-0.894444346
10.36,0.056790605,1.337703705,-0.911830306
10.37,0.56258446,2.180496216,0.565909505
10.38,0.907783151,2.15659523,1.524557114
10.39,1.139831066,1.886153221,2.03529501
10.4,1.077444553,1.354794502,2.057429552
10.41,0.713655412,0.44285965,1.484252334
10.42,0.176131934,-0.624554634,0.919531822
10.43,-0.386071563,-1.746917725,0.384908497
10.44,-0.806355715,-2.957790852,-0.204810202
10.45,-1.09881568,-3.957882404,-0.495641053
10.46,-1.070254803,-3.9570508,-0.50713563
10.47,-1.161000133,-4.741372585,-0.533773422
10.48,-1.111783624,-5.38663435,-0.315085143
10.49,-0.818345308,-5.890428543,-0.083512455
10.5,-0.039228737,-6.374883175,0.250103861
10.51,0.328199834,-6.318098068,0.098038256
10.52,0.560487449,-6.06972456,0.060967386
10.53,0.685252786,-5.742303371,-0.10250847
10.54,0.873231709,-5.333341122,-0.489609927
10.55,0.899568319,-4.878876686,-0.83241725
10.56,0.781525493,-4.448242188,-1.098873496
10.57,0.818543553,-3.92194128,-1.264187932
10.58,0.994495273,-3.29057312,-1.417271376
10.59,0.957882881,-2.62865448,-1.217043161
10.6,0.990854621,-1.792689323,-1.041325569
10.61,0.980779171,-1.793066978,-1.04838419
10.62,0.860685468,-1.015463829,-0.767351985
10.63,0.527617037,0.449314117,-0.318131834
10.64,0.253791302,1.114419937,-0.43183288
10.65,0.026954174,1.487305641,-0.802618802
10.66,0.019732118,1.486686707,-0.797904611
10.67,-0.678569555,2.27149868,-1.725061893
10.68,-0.785099149,2.962774277,-1.736966372
10.69,-0.64909029,3.541516304,-1.594953537
10.7,-0.692279756,4.019717216,-1.501737595
10.71,-1.013908625,4.163035393,-1.765898585
10.72,-1.018121719,4.163004875,-1.771252871
10.73,-1.221055269,3.971718788,-1.867397189
10.74,-1.355806112,3.776036263,-1.044803023
10.75,-0.410803914,4.241454124,1.661797285
10.76,-0.121942401,4.299575806,0.988179147
10.77,-0.095317781,4.300423622,1.008677125
10.78,-0.388230681,4.009635925,1.527537346
10.79,-0.350121737,4.011407852,1.550558686
10.8,-0.321090281,2.260802269,3.512901306
10.81,-0.155943036,1.364821434,4.80896759
10.82,0.241108179,0.539966583,5.824570656
10.83,0.777202845,0.028352737,6.075418949
10.84,0.604872465,0.102869988,5.195117474
10.85,-0.478087008,0.524402618,3.572360516
10.86,-0.495019615,0.524712563,3.533695459
10.87,-1.598496914,1.566596985,1.73164022
10.88,-2.586758852,2.749861717,0.462207824
10.89,-3.621114492,4.318965912,0.78342396
10.9,-3.46540451,4.056973457,1.355186105
10.91,-2.235869169,3.172519684,1.68748796
10.92,-1.011736155,1.933325768,1.303677082
10.93,-1.022409201,1.933805466,1.285183907
10.94,-0.412746608,0.576243401,0.470536947
10.95,0.144521415,-1.801507473,0.265826047
10.96,0.874688506,-3.113878727,0.199541271
10.97,1.630245686,-4.311670303,-0.241671979
10.98,1.600254536,-4.312837601,-0.249449015
10.99,1.498749733,-5.20224762,-0.26044628
11,1.490350127,-5.816374779,-0.220280588
11.01,1.508818269,-6.476141453,-0.280425489
11.02,1.08929801,-6.692913055,-0.028085411
11.03,0.791047156,-6.722969055,0.058941484
11.04,0.371255577,-6.413105011,-0.161151826
11.05,0.278497338,-6.206707001,-0.580942988
11.06,0.094092757,-5.931038857,-0.851434648
11.07,-0.189451158,-5.569033623,-1.087441921
11.08,-0.359886557,-5.087024689,-1.172294378
11.09,-0.607802987,-4.224009037,-1.339590669
11.1,-1.079683185,-3.3367939,-1.318196893
11.11,-1.218778729,-2.449368477,-1.512220502
11.12,-1.367521763,-1.665039062,-1.577077866
11.13,-1.366683006,-1.666366577,-1.553640366
11.14,-1.248168588,-0.858424187,-1.688534737
11.15,-1.213763714,0.837995529,-1.255336046
11.16,-1.035059571,1.842741966,-0.55978173
11.17,-0.931021035,2.759181023,0.208366156
11.18,-1.459462285,3.345293045,-0.26714161
11.19,-1.698408961,3.758845329,-0.823348761
11.2,-1.687703967,3.758155823,-0.80081898
11.21,-1.129678965,4.033000946,0.275086761
11.22,-1.445630074,4.046948433,-0.422120452
11.23,-2.001427412,4.178089142,-1.32272768
11.24,-3.025422096,4.316508293,-1.99461031
11.25,-3.019557238,4.316292763,-1.984024644
11.26,-4.499083519,3.624375343,-1.921584964
11.27,-4.480167389,3.624604225,-1.912433743
11.28,-1.589832187,3.914215088,-0.261028945
11.29,1.022172928,4.359163284,0.310416043
11.3,2.525178909,4.545101166,0.667564392
11.31,2.527510643,4.544220924,0.716958821
11.32,3.298045397,4.574754715,2.87921834
11.33,3.435617685,3.686192513,3.905610561
11.34,3.352719307,2.323596954,4.240739346
11.35,3.147013903,0.96088028,3.545303345
11.36,2.657121181,-0.30860424,2.320832729
11.37,2.145272017,-1.187784195,1.137920737
11.38,1.836084962,-1.26001358,0.135963887
11.39,1.821064234,-1.260304451,0.114781395
11.4,1.071476102,-0.094478607,-0.262710005
11.41,1.41831255,0.453807831,0.112194307
11.42,1.403116703,0.45393467,0.07783787
11.43,1.339185834,2.173343658,0.694054902
11.44,0.86958766,2.485103607,1.175339103
11.45,0.256796897,2.284687996,1.57393539
11.46,-0.217649013,1.423599243,1.245042324
11.47,-0.220840216,1.42445755,1.215760112
11.48,-0.905242562,-1.277959824,-0.134286448
11.49,-1.270199776,-2.460102081,-0.404807508
11.5,-1.146200538,-3.589670658,-0.541598916
11.51,-0.864899576,-4.522903442,-0.478642106
11.52,-0.842691422,-4.522295952,-0.481559455
11.53,-0.300657511,-5.996273041,0.21239984
11.54,0.120280743,-6.308728218,0.273055494
11.55,0.152172536,-6.307265282,0.261701137
11.56,0.403349996,-6.288620949,0.335316271
11.57,0.492961019,-6.14278698,0.416146487
11.58,1.239029408,-5.331333637,-0.092946559
11.59,1.002247214,-4.752000332,-0.389623165
11.6,1.353529215,-4.15332365,-0.312324613
11.61,1.543914437,-3.722403526,-0.464620888
11.62,1.187081099,-3.117080688,-1.092445135
11.63,0.972945869,-2.53138876,-1.112467766
11.64,0.745657921,-1.95804882,-0.647071958
11.65,0.74629581,-1.95694828,-0.664459765
11.66,0.12822783,-0.581974983,-1.561321139
11.67,-0.174947262,0.023911476,-1.293046117
11.68,-0.300534725,0.407122612,-0.950334132
11.69,-0.384661615,0.761536598,-0.912512898
11.7,-0.519152463,1.041680336,-1.015242696
11.71,-0.721847355,1.223619461,-1.210990429
11.72,-0.642626762,1.566041946,-1.589038849
11.73,-0.433495998,2.075984001,-1.61662674
11.74,-0.193469167,2.763156891,-1.353077412
11.75,-0.084031105,3.412097931,-1.396985412
11.76,-0.242324948,4.0203619,-1.461451292
11.77,-0.538863301,4.360671997,-1.287675142
11.78,-0.64658761,5.151547432,-0.568798423
11.79,-0.088253737,6.062226295,0.163467169
11.8,0.630763412,6.596833229,0.527881324
11.81,0.630895197,6.597417831,0.517925203
11.82,-0.090869427,5.590417862,2.703429222
11.83,-0.394768298,4.150596619,2.861273289
11.84,-1.132898092,2.789427757,2.808042526
11.85,-1.322157383,1.198303223,3.026473522
11.86,-0.614449561,-0.182372093,3.629937649
11.87,0.761120439,-1.398103714,4.364256859
11.88,1.641228914,-1.981759071,5.160970211
11.89,1.295876503,-0.870105743,4.950277328
11.9,0.530313432,0.29102993,3.899960518
11.91,-0.263211787,1.530398369,2.477627516
11.92,-1.029552698,2.95826149,0.944474459
11.93,-2.08725071,4.208691597,0.233415008
11.94,-3.07033515,5.033349991,0.379267514
11.95,-4.153705597,5.262449265,1.035601616
11.96,-2.786141872,3.837853432,1.339625597
11.97,-0.853120804,2.154408455,1.158332348
11.98,-0.395682812,0.767453194,0.897402465
11.99,-0.381407499,-0.226613045,0.63675493
12,-0.275508463,-1.158387184,0.274151921
12.01,-0.257771671,-2.121373177,0.036491811
12.02,-0.133165479,-3.153914928,-0.015217483
12.03,0.019453704,-3.72197485,-0.031998158
12.04,0.441350728,-4.457821369,0.009548247
12.05,0.772117734,-5.172575951,0.111137271
12.06,0.926039517,-5.873419762,-0.331162989
12.07,0.866572022,-6.397535324,-0.369516164
12.08,1.046065092,-6.464406013,-0.29879728
12.09,1.013038993,-6.466685295,-0.279602736
12.1,0.711592734,-6.318265438,-0.967043877
12.11,0.458395183,-6.145875931,-0.947228909
12.12,0.483787775,-5.963635921,-0.99888432
12.13,0.380594611,-5.776364326,-1.220658302
12.14,0.21832332,-5.289519787,-0.988768578
12.15,-0.072219655,-4.668223381,-0.525257647
12.16,-0.312147796,-4.147233009,-0.591266632
12.17,-0.740781784,-3.470691681,-1.100414753
12.18,-1.130458593,-2.739246368,-1.49783814
12.19,-1.331908107,-1.900264263,-1.649317384
12.2,-1.357341647,-1.102279663,-1.777907014
12.21,-1.311869621,-0.299448967,-1.811145544
12.22,-0.758606255,0.489283562,-1.644638777
12.23,-0.619862735,1.268818855,-1.398356915
12.24,-0.691624582,2.094260216,-1.003960133
12.25,-1.177183986,2.915244102,-0.397136688
12.26,-1.432376385,3.535374641,0.147975445
12.27,-1.416290402,3.535515785,0.173971474
12.28,-1.228832006,3.966610909,0.19190672
12.29,-1.462952137,4.292387009,-0.897433519
12.3,-2.242241144,4.211211205,-1.352334023
12.31,-3.347713232,3.787744522,-2.133032322
12.32,-4.153709412,4.008637428,-2.302009821
12.33,-4.117445469,4.009701729,-2.278865099
12.34,-0.843951047,5.268011093,-1.291452646
12.35,1.427306652,5.269207954,0.115367308
12.36,2.721477509,5.116717339,2.230806351
12.37,4.089740753,4.985399246,4.395562172
12.38,4.506135464,4.669757843,5.571877956
12.39,4.128949165,4.011670113,5.25480938
12.4,3.429766178,2.956048965,4.070313454
12.41,2.213015556,1.974458694,2.852516651
12.42,0.750342727,1.076331139,1.565919161
12.43,0.757468939,1.076281548,1.556131363
12.44,-0.995271266,-0.058474541,-1.227407455
12.45,-0.978253365,-0.058176041,-1.2399472
12.46,-0.594580889,-0.187233925,-0.336016059
12.47,-0.578528881,-0.187166214,-0.363735259
12.48,0.702399731,0.133560181,1.152986288
12.49,1.144920349,0.360659599,1.718775868
12.5,1.26297915,0.271739006,1.593653679
12.51,0.973269999,0.005735397,1.311090946
12.52,0.648632169,-0.475564957,1.0570333
12.53,0.644216299,-0.47535038,1.003611565
12.54,-0.367392063,-1.889827728,0.188853025
12.55,-0.309191346,-2.602566719,0.156897232
12.56,-0.311276764,-3.195315838,0.281507939
12.57,-0.307963282,-3.194006443,0.23915875
12.58,-0.638899446,-3.65696907,0.379494906
12.59,-0.876172423,-4.193981171,0.457981318
12.6,-0.216718823,-4.989583015,0.031449705
12.61,-0.000115663,-5.107614517,-0.06845656
12.62,0.251966626,-5.163300514,-0.036958367
12.63,0.565564215,-5.190198421,0.078757972
12.64,0.777125537,-4.963308811,-0.176677436
12.65,0.81973505,-4.815490723,-0.264959097
12.66,1.113781214,-4.624691963,-0.31422627
12.67,1.33480525,-4.326339245,-0.575644553
12.68,1.152600288,-3.791234016,-0.92342633
12.69,0.797971845,-3.234808922,-1.044033289
12.7,0.682316482,-2.525435925,-1.24083209
12.71,0.689830065,-2.525218487,-1.234411597
12.72,0.291391462,-1.122401237,-1.465232134
12.73,0.288748384,-0.335114479,-1.12795198
12.74,0.290280461,-0.335566521,-1.114075422
12.75,0.048014343,0.279605866,-0.427197695
12.76,-0.278751731,0.81842041,-0.218157291
12.77,-0.481532514,1.714017868,-1.099792838
12.78,-0.584769726,2.386872292,-1.486787319
12.79,-0.577256143,2.386937141,-1.472452998
12.8,-0.653572679,3.138853073,-1.490756392
12.81,-0.722572744,3.821380615,-1.429234743
12.82,-0.757183552,4.343545914,-1.670053959
12.83,-0.746558726,4.34292984,-1.621681213
12.84,-1.003221512,4.309751511,-1.347908139
12.85,-0.817043841,5.39317894,-0.085840397
12.86,-0.397480786,5.727237701,-0.14753443
12.87,-0.507803857,5.599134445,0.351424336
12.88,-0.762602031,4.913455963,1.399541974
12.89,-0.95310086,4.063098907,2.237714767
12.9,-0.955481827,2.894417763,2.730540276
12.91,-0.772709549,1.802545547,3.6385324
12.92,-0.199495018,0.670256615,4.978238106
12.93,0.77933538,-0.46357441,5.573872566
12.94,1.237535596,-1.262638092,4.814071655
12.95,0.913031042,-1.176626205,4.202236652
12.96,0.140825868,-0.346650124,3.338502169
12.97,0.130352855,-0.347938538,3.343828917
12.98,-1.118842602,1.740317345,0.496659935
12.99,-1.137787819,1.737975121,0.507438481
13,-2.27507329,3.978960037,0.358011782
13.01,-2.344311237,3.931027412,1.173914433
13.02,-1.895617485,3.019036293,1.792099237
13.03,-1.941422701,3.017296791,1.763573885
13.04,-0.842153728,0.604748726,0.783523738
13.05,-1.073258162,-0.220146179,-0.195084065
13.06,-0.90677774,-1.265218735,-0.886098146
13.07,-0.397132039,-2.334040165,-1.107257366
13.08,-0.214221478,-3.27587986,-0.92103231
13.09,-0.230726361,-3.276486397,-0.926068544
13.1,0.217844665,-4.744589806,-0.061423004
13.11,0.569084883,-5.252614975,0.034133077
13.12,0.545585632,-5.253726006,0.032338023
13.13,1.006587267,-6.16516304,0.016856968
13.14,1.263185024,-6.440140724,-0.072991192
13.15,1.376902819,-6.590908051,-0.217624188
13.16,0.973908663,-6.392252922,-0.295895189
13.17,0.706944227,-6.258314133,-0.658372462
13.18,0.793758392,-6.026393414,-0.927942216
13.19,0.776542604,-6.029045582,-0.892745793
13.2,0.409043193,-5.653082848,-1.212426424
13.21,-0.280417293,-4.400516033,-1.738156557
13.22,-0.49996081,-3.511565208,-1.909551501
13.23,-0.803565383,-2.344763279,-1.853392482
13.24,-1.091118574,-1.029583931,-1.828201056
13.25,-1.277139306,-0.119239807,-1.703441024
13.26,-1.650496244,0.879973412,-1.270391464
13.27,-1.597953677,1.599468231,-0.708978057
13.28,-1.23749733,2.063126564,-0.523009777
13.29,-1.110783339,2.483888626,-0.642394543
13.3,-1.211199164,2.660650253,-0.645747185
13.31,-1.085213423,2.619791985,-0.501724303
13.32,-1.076880217,2.619745255,-0.465289295
13.33,-0.650969565,2.557400703,-0.271685928
13.34,-1.458698869,3.002671242,-0.524388313
13.35,-2.199345112,3.40733242,-1.346163869
13.36,-3.162556648,3.78575325,-1.598763585
13.37,-4.026434422,4.214658737,-1.906304836
13.38,-3.901526213,4.813894272,-1.785001397
13.39,-2.0575881,5.207474709,-0.194755241
13.4,-2.038145304,5.208353043,-0.169709057
13.41,0.474754155,5.302390099,0.715610266
13.42,2.417665243,4.510691643,1.691173553
13.43,2.818936825,4.298607826,2.96565485
13.44,2.986005306,3.540734291,3.574492216
13.45,2.780524969,2.780154228,3.473792553
13.46,2.588615656,1.511383057,2.953664303
13.47,2.004449844,0.385457993,2.433199644
13.48,1.564210415,-0.2570858,1.633681655
13.49,1.485722065,-0.506926537,0.492365956
13.5,1.190799952,-0.189296722,-0.102922902
13.51,1.236382723,0.456411362,-0.037750766
13.52,1.592970014,1.386985779,0.133055523
13.53,2.007544041,2.228945732,0.575587511
13.54,2.411369562,2.939173698,0.873852789
13.55,2.394029856,2.93824482,0.83882004
13.56,2.459858894,3.148087502,1.095222592
13.57,1.21721077,2.74040699,1.737971544
13.58,0.495402873,1.729678154,1.615253925
13.59,-0.226409018,0.168540001,0.968082905
13.6,-1.1039505,-1.385253906,-0.153594375
13.61,-1.393953204,-2.622841358,-0.938756645
13.62,-1.635573864,-3.80762291,-1.225081205
13.63,-1.554605126,-4.862959385,-0.875740945
13.64,-1.529455423,-4.8622365,-0.874884605
13.65,-0.549296379,-6.393708229,-0.053972777
13.66,-0.133437008,-6.861908436,0.444028884
13.67,-0.100454897,-6.860599041,0.439546168
13.68,0.155960798,-6.715373993,0.732409537
13.69,0.290013909,-6.435817242,0.442674995
13.7,0.59614706,-6.055556297,0.12025252
13.71,0.919329524,-5.656033516,-0.113812625
13.72,1.480211496,-5.074480534,-0.411479116
13.73,1.443124056,-4.389875889,-0.764244199
13.74,1.475152969,-4.387492657,-0.783140659
13.75,1.390940428,-3.784389019,-0.88307637
13.76,1.122944951,-2.073266983,-0.799739122
13.77,1.081628323,-1.093384743,-1.028823972
13.78,0.794886947,-0.240950584,-1.082335472
13.79,0.793488205,-0.240921021,-1.086674929
13.8,-0.1502617,1.337281227,-0.149173558
13.81,-0.143139184,1.337748528,-0.147484303
13.82,-0.134478331,1.412341118,-0.891843319
13.83,-0.125014603,1.412574768,-0.874284327
13.84,0.108300388,1.429483414,-1.660904765
13.85,0.114548922,1.42950058,-1.639333606
13.86,0.150423169,1.654315948,-2.140815496
13.87,0.355184138,2.760055542,-1.30006671
13.88,0.240447879,3.37485218,-0.75750792
13.89,-0.105213702,3.738286018,-0.516489565
13.9,-0.505067527,3.682831764,-0.622152209
13.91,-0.861872435,3.754608154,-0.517879784
13.92,-0.524408877,4.171474457,0.26743865
13.93,-0.078755319,4.863834381,0.883537889
13.94,-0.033206999,5.324234962,0.63491267
13.95,-0.012533307,5.325615883,0.663658917
13.96,-1.265979052,4.975872993,1.75011909
13.97,-1.425546169,4.138887405,2.953155279
13.98,-1.039349556,2.81849575,3.614515066
13.99,-1.001340747,2.822102547,3.64435792
14,0.447738946,-0.323143005,3.418828011
14.01,0.771501243,-1.323753357,3.472673655
14.02,1.238272429,-1.700303078,3.784371376
14.03,0.707924008,-0.979089737,3.807591438
14.04,0.085767984,-0.243908882,3.269014359
14.05,-0.426637411,0.914769173,2.16284585
14.06,-1.288373828,2.307908058,1.103159189
14.07,-1.989429951,3.385308266,0.503017724
14.08,-3.015388966,4.14461422,0.732245147
14.09,-3.29849267,4.314954758,1.62086463
14.1,-2.482822418,3.730831146,2.297802687
14.11,-1.178700209,2.499814987,2.408738852
14.12,-0.827005625,1.309340477,1.842878103
14.13,-0.906853914,0.258183479,0.882318676
14.14,-0.827135086,-0.497868538,0.265216887
14.15,-0.823375881,-0.497467041,0.277103156
14.16,-0.484703898,-1.385869026,-0.143304676
14.17,0.365243554,-2.83509922,-0.039960183
14.18,0.6024912,-3.427627563,0.335945338
14.19,0.899006844,-3.855482101,0.699169397
14.2,1.538576603,-4.195315838,0.700258195
14.21,1.978958845,-4.461360455,0.610608876
14.22,1.948703527,-4.46402216,0.621957362
14.23,1.494619966,-4.454395771,0.400491178
14.24,0.480494708,-4.286438465,0.26017201
14.25,0.4309012,-4.149553776,0.365184248
14.26,0.401949555,-4.151742458,0.375149757
14.27,0.00810802,-3.981483459,-0.365788698
14.28,-0.055742502,-3.9834795,-0.380756319
14.29,0.116708756,-3.839396,-0.16347222
14.3,0.038461924,-3.793320656,-0.407084227
14.31,-0.13516134,-3.612841606,-0.535341501
14.32,-0.509368718,-3.36007452,-0.240202621
14.33,-0.527893126,-3.360792637,-0.223146275
14.34,-0.628719091,-2.774728775,0.068159699
14.35,-0.512980163,-2.384861469,0.099419147
14.36,-0.504460514,-1.791357994,0.097412974
14.37,-0.518510938,-1.791578293,0.115231544
14.38,-0.388355732,-1.150063515,0.113100976
14.39,-0.496794313,0.758131027,-0.587762117
14.4,-0.630471885,1.574578285,-0.633379579
14.41,-0.935700536,2.556262016,-0.465701282
14.42,-1.260992289,3.418223381,-0.439435899
14.43,-1.691912174,3.842119217,-0.495272696
14.44,-2.239630699,3.782476425,-0.444782734
14.45,-2.827967405,3.0454216,-0.570229888
14.46,-3.073571205,2.112448692,-1.008306503
14.47,-3.205082893,1.450761795,-1.659812808
14.48,-2.964244604,1.122973442,-2.056381702
14.49,-2.925821304,1.127047539,-2.01509285
14.5,-1.62896812,2.245539665,-1.334881902
14.51,-0.390543222,3.250153542,-1.154158592
14.52,0.730641782,3.852890015,-0.327806294
14.53,0.751693368,3.85921669,-0.261290014
14.54,2.255193949,4.142715454,1.959943295
14.55,2.265186548,4.148643494,2.020194769
14.56,2.428992033,4.31026268,2.418555021
14.57,1.917941451,4.03328228,1.667618513
14.58,1.917138338,4.037777901,1.711681604
14.59,1.046043277,1.763474464,0.871789992
14.6,0.482243836,0.32421875,1.022138119
14.61,0.431862235,-1.034895897,1.061877251
14.62,0.722389162,-2.004517555,1.153543353
14.63,1.012101889,-2.122161388,1.326469064
14.64,1.291214943,-1.574521065,1.441967964
14.65,1.451839924,-0.637086868,1.603136301
14.66,1.770952225,0.354262352,1.670371294
14.67,1.753763318,0.348553658,1.620355606
14.68,1.118218303,1.721268654,1.917673588
14.69,0.712421,1.958774567,2.116689205
14.7,0.688643515,1.952232361,2.045526028
14.71,0.522132576,0.976361275,1.710959911
14.72,0.198238134,0.020793915,0.85186553
14.73,-0.126091838,-0.715884209,0.686007679
14.74,-0.114326507,-1.317660332,0.880692601
14.75,0.057222515,-1.897181988,0.814523697
14.76,0.480847001,-2.36347723,0.846168995
14.77,0.626507461,-2.443736553,1.253201842
14.78,0.495891005,-2.394528866,1.804712534
14.79,0.602562308,-2.326045036,1.603458762
14.8,0.676352978,-2.094736576,1.314972997
14.81,0.58828336,-1.791577339,1.219188452
14.82,0.585143328,-1.519508362,0.8539958
14.83,0.527280211,-1.300063133,0.43277207
14.84,0.408886641,-1.109225273,0.314462543
14.85,0.39292118,-0.987752914,0.504100263
14.86,0.452336818,-0.935713768,0.764750183
14.87,0.747330487,-0.86928463,1.287769079
14.88,0.731757224,-0.869864464,1.259093642
14.89,0.89551115,-0.875121117,1.820651412
14.9,0.886987627,-0.863474846,1.821279645
14.91,0.871495724,-0.863599777,1.783407927
14.92,0.481511295,-0.415744782,1.791931748
14.93,0.539078593,-0.161655426,1.376930714
14.94,0.432549775,0.078128815,0.8381567
14.95,0.424944401,0.078502655,0.813897252
14.96,-0.062103361,0.533752441,-0.09820348
14.97,-0.368065059,0.560399056,-0.319448531
14.98,-0.359515667,0.385874748,-0.423705697
14.99,-0.355030209,0.386090279,-0.427005291
15,-0.268856764,0.201895714,-0.469037771
15.01,0.086803243,0.281043053,-0.185016871
15.02,0.259025544,0.257152557,-0.204213187
15.03,0.259872943,0.257115364,-0.202099547
15.04,0.204597861,0.278569222,-0.469439507
15.05,-0.105409533,0.350317955,-0.247678593
15.06,-0.237778813,0.465267181,0.139123082
15.07,-0.262180001,0.59458065,0.1978378
15.08,-0.144994527,0.659160614,-0.066206455
15.09,-0.145132631,0.659010887,-0.061107069
15.1,-0.004229486,0.773729324,-0.321941823
15.11,-0.012698531,0.914833069,-0.443883956
15.12,-0.115468115,0.883615494,-0.514360189
15.13,-0.1996741,0.821344376,-0.712922454
15.14,-0.532223225,0.397708893,0.385647208
15.15,-0.516678631,-0.073683739,0.989431441
15.16,-0.514612198,-0.719892502,0.676732779
15.17,-0.349187374,-1.275210381,0.25776875
15.18,-0.083222121,-1.452238083,0.372372598
15.19,-0.154983282,-1.483115196,-0.083571658
15.2,-0.12291196,-1.379696846,-0.545696795
15.21,-0.099190027,-0.859782219,-0.255732119
15.22,-0.096608609,-0.859374046,-0.265875906
15.23,-0.285440594,-0.406437874,0.08328402
15.24,-0.689326227,0.11590004,0.029463321
15.25,-0.684658289,0.116206169,0.024383247
15.26,-0.569491506,0.305578232,-0.281754762
15.27,-0.755173802,0.329638481,-0.413950235
15.28,-0.914998233,0.315286636,-0.525654256
15.29,-0.910033345,0.221959114,-0.578339756
15.3,-0.815171957,0.109507561,-0.603394806
15.31,-0.62674737,0.047397614,-0.471902013
15.32,-0.528132737,0.081139565,-0.219616413
15.33,-0.52958703,0.050370216,-0.130406916
15.34,-0.798406363,0.036455154,-0.071772352
15.35,-0.850642443,0.029986382,-0.081932276
15.36,-0.573213458,-0.033753395,-0.351126313
15.37,-0.547491252,-0.032875061,-0.329976559
15.38,-0.50245136,0.03269577,-0.505657017
15.39,-0.480868578,0.03365612,-0.490487516
15.4,-0.475425422,0.065758705,-0.311864793
15.41,-0.546791315,-0.103194237,-0.176541179
15.42,-0.494773209,-0.272122383,-0.182559788
15.43,-0.482056022,-0.441066742,-0.170962647
15.44,-0.534023702,-0.518948555,-0.122112684
15.45,-0.453716159,-0.522512436,-0.157725707
15.46,-0.383942962,-0.516515732,-0.170382068
15.47,-0.267461181,-0.24241066,-0.158956558
15.48,-0.191181779,-0.013917923,0.013065979
15.49,-0.126096427,0.080392838,-0.026825897
15.5,-0.117157698,0.191370964,-0.1453408
15.51,-0.041878223,0.192106247,-0.1700266
15.52,0.056348145,0.171215057,-0.168865308
15.53,0.045543849,0.143055916,-0.161284059
15.54,0.00971818,0.162680626,-0.148224533
15.55,0.015778244,0.163085938,-0.139284268
15.56,0.092203438,0.010128975,-0.156469435
15.57,-0.086045921,0.010359764,-0.360711992
15.58,-0.029933631,0.017756462,-0.348155737
15.59,-0.027660549,0.017911911,-0.341773927
15.6,0.179394364,0.039526939,0.328773797
15.61,0.179095209,0.0394907,0.33132112
15.62,0.118196607,-0.255109787,-0.100699455
15.63,0.267103732,-0.212168694,0.23980251
15.64,0.13722086,-0.135772705,-0.302092612
15.65,0.12479353,-0.040215492,-0.77016741
15.66,0.121077836,-0.040534019,-0.768380523
15.67,0.08516258,0.083593369,-0.36387673
15.68,0.088018954,0.107205391,0.104759336
15.69,0.160680294,0.046843529,0.038095489
15.7,0.063076377,-0.042265892,-0.013363924
15.71,0.129377961,-0.119322777,-0.149491623
15.72,0.124228656,-0.126918793,-0.199715421
15.73,0.076606333,-0.115322113,-0.107368276
15.74,0.166001141,-0.103684425,-0.08310543
15.75,0.161773741,-0.104011536,-0.073989809
15.76,0.200846553,-0.082779884,-0.085403256
15.77,0.268257231,-0.035228729,-0.120098941
15.78,0.248451173,0.043382645,-0.123881832
15.79,0.26362893,0.086030006,-0.176094383
15.8,0.121807516,0.11423111,-0.020514745
15.81,-0.042092204,0.144780159,0.064381801
15.82,0.055232942,0.086790085,-0.115041733
15.83,0.04854238,0.112541199,-0.326845288
15.84,-0.048577309,0.111987114,-0.352160782
15.85,-0.115660608,0.087617874,-0.26272881
15.86,-0.171278536,0.039433479,-0.230852336
15.87,-0.201029003,0.008146286,-0.186015487
15.88,-0.202639103,0.008135796,-0.176950142
15.89,-0.317372978,-0.051624298,0.03560812
15.9,-0.210257709,0.013235092,-0.072696261
15.91,-0.236852765,0.030259132,-0.175514162
15.92,-0.238566756,0.040184975,-0.196749628
15.93,-0.235057831,0.040546417,-0.187542826
15.94,-0.081498861,-0.026187897,0.007594973
15.95,-0.030987859,-0.11925602,-0.077403784
15.96,-0.124206364,-0.164410591,-0.178521842
15.97,-0.138465405,-0.156916618,-0.165070668
15.98,-0.030790627,-0.127864838,-0.217101365
15.99,-0.041687667,-0.017521858,-0.221657515
16,-0.079237342,0.042510033,-0.131833792
16.01,-0.076235473,0.042662621,-0.021531314
16.02,-0.171491921,0.037991524,-0.077027634
16.03,-0.290222108,0.04058075,-0.440561861
16.04,-0.386040747,0.036088943,-0.508551002
16.05,-0.382089973,0.036502838,-0.502064586
16.06,-0.166847467,-0.056671143,0.234916061
16.07,0.035504162,-0.130713463,-0.211450875
16.08,-0.05439496,-0.14488411,-0.205816656
16.09,0.198619098,-0.111168861,0.242414743
16.1,-0.011507332,-0.005810738,0.178687692
16.11,-0.00877732,-0.005589485,0.180013388
16.12,-0.011015773,0.066473961,0.005242363
16.13,-0.135644555,0.066651344,0.058848709
16.14,-0.248170793,0.05964756,0.132963672
16.15,-0.24558562,0.059820175,0.132670254
16.16,-0.242642582,0.040884018,0.012948319
16.17,-0.312396467,0.024503708,-0.07809265
16.18,-0.30191803,-0.044404984,-0.150357097
16.19,-0.209402382,-0.036610603,-0.0920237
16.2,-0.246209085,-0.019216537,0.055266097
16.21,-0.112730682,0.002986908,0.15929997
16.22,0.02004528,-0.06343174,0.06787248
16.23,-0.080518663,-0.05563736,-0.119963765
16.24,-0.133386135,-0.050225258,-0.1754632
16.25,-0.12973392,-0.049689293,-0.167250663
16.26,-0.067717135,-0.109182358,0.006589532
16.27,-0.038158059,-0.101794243,0.121315837
16.28,-0.069174707,-0.082530975,0.069671661
16.29,0.01594311,-0.044226646,-0.100160003
16.3,-0.071479738,0.010784149,0.018375248
16.31,-0.072795928,0.010697365,0.018556446
16.32,-0.071470797,0.005848885,0.064647406
16.33,-0.036692381,-0.037297249,0.089906484
16.34,-0.173448086,-0.046833992,0.182736576
16.35,-0.05880487,-0.053976059,0.019646436
16.36,-0.059900165,-0.053972244,0.022179186
16.37,-0.027839363,0.008242607,-0.05197677
16.38,-0.06522125,0.053713799,-0.075952917
16.39,-0.064159691,0.041686058,-0.074484587
16.4,-0.0662691,0.041571617,-0.07316944
16.41,-0.099227905,0.0390625,-0.036227703
16.42,-0.146345139,0.050947189,0.089458242
16.43,-0.109340012,0.04375267,0.182501689
16.44,-0.112305999,-0.032793045,0.212090418
16.45,-0.081916749,-0.066234589,0.161103219
16.46,0.102996647,-0.066167831,0.006284773
16.47,0.067247391,-0.032640457,0.107101381
16.48,0.064363658,-0.032705307,0.111111194
16.49,0.006404579,-0.044764519,0.205510736
16.5,-0.282927036,0.051011086,-0.154564709
16.51,-0.2835446,0.051120758,-0.150110632
16.52,-0.214832783,0.051193237,0.228961542
16.53,-0.148656309,-0.075678825,0.113937497
16.54,-0.227539241,-0.058698654,-0.026369184
16.55,-0.164702535,-0.096747398,0.268753648
16.56,-0.164095342,-0.096623421,0.270520687
16.57,-0.120025039,0.025669098,-0.037981957
16.58,-0.070991099,0.030773163,-0.173652589
16.59,-0.070758164,0.031007767,-0.168125957
16.6,-0.157101393,0.052674294,-0.01163426
16.61,-0.214693308,0.05278492,0.187154189
16.62,-0.093051434,0.002524376,0.102501661
16.63,-0.117099106,0.00980854,-0.081682205
16.64,-0.116004765,0.010068893,-0.077470124
16.65,-0.240599752,0.070304871,-0.070171118
16.66,-0.114619076,0.087406158,0.049890846
16.67,-0.029771686,0.056591988,0.383268297
16.68,-0.027962148,0.056985855,0.389008313
16.69,-0.106953442,0.0551548,0.01433444
16.7,-0.080081165,0.012731552,-0.02167058
16.71,-0.039467871,-0.017834663,-0.015420944
16.72,0.079550326,-0.060460091,-0.006156176
16.73,0.113727212,-0.088861465,0.045030028
16.74,0.109160721,-0.095835686,0.166313142
16.75,0.04478395,-0.038221359,0.271900237
16.76,-0.138400435,0.057723045,0.292688757
16.77,-0.135819078,0.057969093,0.293695867
16.78,-0.256635368,0.058328629,0.233058602
16.79,-0.398004592,-0.024915695,-0.069886804
16.8,-0.308980107,-0.050628662,-0.13261804
16.81,-0.348706186,0.005102158,-0.114065409
16.82,-0.342111051,0.005786896,-0.110522628
16.83,-0.089526713,0.061545372,-0.106670082
16.84,-0.084096968,0.081346512,0.048293024
16.85,-0.100448132,0.096351624,0.265482724
16.86,-0.011593997,0.082632065,0.286619604
16.87,0.049903989,0.061700821,0.196133822
16.88,0.084756017,-0.026218414,0.209925234
16.89,0.088176489,-0.025608063,0.216110647
16.9,0.145519018,-0.183145523,0.226094455
16.91,0.063201368,-0.154055595,0.127190173
16.92,0.009140611,-0.105903626,0.147465408
16.93,0.009822309,-0.10571003,0.149733365
16.94,0.078684568,-0.062576294,0.213458121
16.95,-0.096950591,-0.03380394,0.016578078
16.96,-0.096622825,-0.033638,0.019208968
16.97,-0.336895227,0.016940117,-0.207715869
16.98,-0.316401482,0.017199516,-0.212478757
16.99,-0.208393812,0.017299652,0.085707754
17,-0.034465253,0.053237915,0.278971195
17.01,-0.035653889,0.053253174,0.280977845
17.02,-0.01457274,0.060451508,0.406290889
17.03,-0.004903436,0.050868988,0.135448486
17.04,-0.061228693,-0.032639503,-0.29216814
17.05,0.109593272,-0.08967495,-0.144756198
17.06,0.13711679,-0.039204597,0.161856353
17.07,0.082003951,-0.012978554,0.338085741
17.08,0.100267828,-0.030078888,0.51424557
17.09,0.096946597,-0.03050518,0.511609376
17.1,0.060723782,-0.050034523,0.190655619
17.11,-0.103911161,-0.007089615,0.006423891
17.12,-0.103930175,-0.006966591,0.008444548
17.13,0.073177874,-0.109771729,-0.003313482
17.14,0.210677624,-0.174372673,0.135643184
17.15,0.167997479,-0.152846336,0.004047453
17.16,0.036910594,-0.100089073,-0.078583241
17.17,-0.095990479,-0.001777649,-0.059967518
17.18,-0.125411987,0.019972801,-0.127680123
17.19,-0.167132318,0.060846329,-0.099580824
17.2,-0.134567559,0.072935104,0.028079033
17.21,-0.193418086,0.087304115,0.211641401
17.22,-0.201681972,0.099233627,0.368122101
17.23,-0.137672961,0.07529068,0.306571782
17.24,-0.138618588,0.07531929,0.308329463
17.25,-0.077360094,0.032291412,0.229252279
17.26,-0.077618778,0.032345772,0.230565667
17.27,-0.106119871,-0.053839684,0.283090115
17.28,-0.065294623,-0.140028,0.175100505
17.29,-0.000412881,-0.087352753,0.033644795
17.3,-0.019331574,-0.022747993,0.04470259
17.31,-0.018900216,0.027590752,0.135947436
17.32,-0.018176973,0.02771759,0.137117654
17.33,-0.026648462,0.037535667,0.204066694
17.34,0.000871897,0.01384449,0.209003031
17.35,-0.031547785,-0.060100555,0.103933096
17.36,-0.059504509,-0.047917366,0.247754931
17.37,-0.058888137,-0.078867912,0.261858046
17.38,-0.008689463,-0.083496094,0.288197935
17.39,-0.009079933,-0.083376884,0.290525496
17.4,-0.049931347,-0.111968994,0.257006168
17.41,-0.124295771,-0.190803528,-0.02290082
17.42,-0.291140258,-0.255225182,-0.118433356
17.43,-0.313632488,-0.173594475,-0.037876844
17.44,-0.311764956,-0.173419952,-0.037457705
17.45,-0.340207934,-0.122989655,0.241546661
17.46,-0.064922869,-0.060655594,0.448155195
17.47,-0.062208474,-0.060633659,0.445102245
17.48,-0.070647597,-0.029485703,0.388343573
17.49,-0.060807586,0.004137039,0.22301656
17.5,-0.103435457,-0.014855385,0.000940144
17.51,-0.016683042,-0.069554329,0.009233057
17.52,-0.075092316,0.002467155,0.330253571
17.53,-0.150578737,0.071850777,0.54269594
17.54,-0.265798628,0.062208176,0.248373926
17.55,-0.259696364,0.062397003,0.242978811
17.56,-0.222067714,-0.05700779,0.011239946
17.57,-0.064529359,-0.104527473,0.10824734
17.58,-0.064929962,-0.13764286,0.332432985
17.59,0.095342875,-0.122900963,0.34779191
17.6,0.101713896,-0.120074272,0.371621311
17.61,0.081556559,-0.086082459,0.15733555
17.62,0.087381601,-0.085469246,0.158693403
17.63,-0.084339321,-0.024920464,0.046912909
17.64,-0.014867842,-0.041063309,0.073640883
17.65,0.021753669,-0.009515762,0.056688607
17.66,-0.014848709,0.074525833,0.144502223
17.67,-0.126104593,0.077082634,0.245488465
17.68,-0.189664722,0.074789047,0.176370084
17.69,-0.241182149,0.077358246,0.114988774
17.7,-0.239468932,0.07756424,0.115851492
17.71,-0.196706772,-0.015559196,0.164686233
17.72,-0.165481865,-0.024909973,0.188632518
17.73,-0.103299737,-0.02712822,0.214152336
17.74,0.020870388,-0.01746273,0.171834678
17.75,0.026288986,-0.046295166,0.183610886
17.76,0.086287797,0.001421928,0.209181696
17.77,0.052441478,0.07536602,0.29624024
17.78,-0.02227205,0.077479362,0.304209948
17.79,0.001185298,0.024561882,0.080551684
17.8,0.000165701,0.024417877,0.079687178
17.81,-0.046377957,-0.016438484,0.12195006
17.82,-0.0237903,0.000139236,0.257476181
17.83,0.089090288,0.031052589,0.233036041
17.84,0.074246705,0.057113647,0.142329484
17.85,0.066148996,0.07365036,0.031099081
17.86,0.005399108,0.075918198,0.000263929
17.87,-0.026521981,0.075750351,0.108068228
17.88,-0.113245904,0.018133163,0.05257839
17.89,-0.165717244,0.02046299,-0.11288327
17.9,-0.296797156,0.020488739,-0.160214067
17.91,-0.116036117,-0.010557175,0.199721992
17.92,0.062947333,-0.063450813,0.423222482
17.93,0.152797163,-0.15476799,0.545078576
17.94,0.187628508,-0.171954155,0.552839518
17.95,0.082207322,-0.14598465,0.224805325
17.96,0.08080256,-0.146120071,0.224719971
17.97,-0.058617234,-0.002266884,-0.405829668
17.98,-0.144660473,0.074183464,-0.239851952
17.99,-0.012223721,0.138378143,0.498443455
18,0.033159852,0.094731331,0.405447304
18.01,-0.024259329,0.072667122,0.169335961
18.02,-0.030470669,-0.011457443,0.066573918
18.03,-0.028795898,0.005101204,0.060484111
18.04,-0.0170331,0.033705711,0.184266776
18.05,0.028446019,0.050336838,0.257576793
18.06,0.074043095,0.014338493,0.297595501
18.07,0.112539232,-0.016831398,0.151393861
18.08,0.019678593,-0.067029953,-0.036225975
18.09,-0.04113853,-0.088288307,-0.039632857
18.1,-0.039541066,-0.133437157,0.132154971
18.11,-0.040814579,-0.133177757,0.138101906
18.12,0.079208255,-0.006094933,-0.016732872
18.13,0.07666719,-0.00598526,-0.011759162
18.14,-0.028556764,0.065868378,0.008319616
18.15,-0.100678206,0.013119698,-0.11121589
18.16,-0.103333116,0.01303196,-0.109151959
18.17,-0.145927906,0.0344944,0.066695094
18.18,-0.195352137,0.022496223,0.106665254
18.19,-0.184121549,-0.02532196,0.058296323
18.2,-0.184255838,-0.053909302,0.029335201
18.21,-0.184015572,-0.053812027,0.030481458
18.22,-0.224012017,-0.058530808,0.105008006
18.23,-0.041105151,-0.005792618,0.138414383
18.24,-0.040658712,-0.005639076,0.140185475
18.25,-0.013547897,0.042487144,0.092333257
18.26,-0.089458406,0.028394699,0.172180146
18.27,0.031076252,0.062174797,0.191625357
18.28,0.030991912,0.059947014,0.194299519
18.29,-0.024084389,0.012225151,0.313964069
18.3,0.038222849,0.014681816,0.324579924
18.31,0.069261014,-0.042789459,0.26463297
18.32,-0.005389392,-0.026060104,0.1545735
18.33,-0.053254962,0.01461792,0.11581564
18.34,-0.155684948,0.005026817,0.217901439
18.35,-0.154163718,0.0050354,0.216268867
18.36,-0.373685777,0.043550491,-0.024169862
18.37,-0.368950129,0.044019699,-0.023087323
18.38,-0.271524072,0.032560349,0.118037462
18.39,-0.029011488,-0.002950668,0.201346606
18.4,0.01698339,-0.117399216,0.125700653
18.41,0.129231453,-0.179262161,0.373019278
18.42,0.032926023,-0.102501869,0.310369492
18.43,-0.148804009,-0.064052582,-0.160193682
18.44,0.027817309,-0.05657959,-0.184636891
18.45,0.044200182,0.024848938,0.156249166
18.46,0.042237103,0.024576187,0.154762685
18.47,0.0109846,0.026529312,0.391127288
18.48,-0.199691236,-0.040873528,0.366991699
18.49,-0.200862646,-0.041121483,0.365137041
18.5,-0.129717171,-0.060294151,0.018223763
18.51,-0.101448536,-0.03864193,0.044499934
18.52,-0.090016842,-0.026530266,0.143000662
18.53,-0.018809676,-0.009664536,0.197986454
18.54,0.015884101,-0.002445221,0.209523469
18.55,-0.088829339,0.016688347,0.139684916
18.56,-0.052103698,0.031118393,0.175909936
18.57,-0.008170128,0.035933495,0.269294769
18.58,0.035785437,-0.016744614,0.201771587
18.59,0.034107864,-0.016718864,0.204200894
18.6,-0.017828405,0.01205349,0.082326651
18.61,-0.019351959,0.012000084,0.083282888
18.62,-0.137816548,-0.019197464,0.114907622
18.63,-0.215074718,-0.045531273,0.173173368
18.64,-0.17213124,-0.009594917,0.185403109
18.65,-0.09314394,-0.052669525,0.171453595
18.66,-0.095631778,-0.050268173,0.253248304
18.67,-0.066476226,-0.057447433,0.231038094
18.68,-0.023029208,-0.009623528,0.19644627
18.69,-0.046936512,0.004659653,0.075474024
18.7,-0.047024786,0.004592896,0.074581504
18.71,-0.121525109,0.076313972,0.183476567
18.72,-0.038286328,0.07618618,0.134456575
18.73,-0.046517968,0.071327209,0.096411765
18.74,-0.016277373,-0.007730484,0.147082567
18.75,-0.024634182,-0.050916672,0.245303929
18.76,-0.025534749,-0.051083565,0.244109213
18.77,-0.042909324,0.030193329,0.216823459
18.78,-0.043429852,0.030143738,0.216584981
18.79,-0.044156849,0.027648926,0.235300213
18.8,0.028827965,0.001156807,0.241619706
18.81,0.065772057,-0.006205559,0.176248908
18.82,-0.167582154,-0.154802322,-0.045026779
18.83,-0.160771966,-0.059104919,-0.253709853
18.84,-0.142322719,0.01743412,0.176921189
18.85,0.095738292,0.024274826,0.693137705
18.86,0.162647188,-0.036139488,0.420080602
18.87,0.032986104,-0.058059692,0.101731002
18.88,0.031390667,-0.058198929,0.101790607
18.89,-0.061676025,-0.012927055,0.47897315
18.9,0.003536403,-0.029902458,-0.054079592
18.91,0.003781319,-0.029856682,-0.05369556
18.92,0.086626589,0.073021889,0.274388433
18.93,0.032018781,0.077397347,0.397537649
18.94,0.02931875,0.076871872,0.39298892
18.95,-0.078759551,0.071544647,0.361875713
18.96,-0.080786526,0.071041107,0.357035339
18.97,-0.008606017,0.037124634,0.135551572
18.98,-0.033674538,0.070400238,0.229114801
18.99,0.044480801,0.046233177,0.188350886
19,0.043851554,0.046092987,0.187057883
19.01,0.01207906,0.067459106,0.386039376
19.02,0.066722691,0.036212921,0.095147252
19.03,0.147012472,-0.011689186,0.084216356
19.04,0.085763037,0.012268066,0.320956051
19.05,0.106132507,-0.01891613,0.266345441
19.06,0.105361641,-0.018923759,0.267049789
19.07,0.016074538,0.009857178,0.029436111
19.08,0.015250385,0.009895325,0.030915499
19.09,-0.060140133,0.060113907,0.191909999
19.1,-0.1350438,0.048079491,0.381084055
19.11,-0.166321516,0.014493942,0.380212516
19.12,-0.143989325,-0.019012451,0.235600323
19.13,-0.147179663,-0.042867661,0.057947636
19.14,-0.192886472,-0.047440529,0.079940856
19.15,-0.19744128,-0.078331947,0.125798583
19.16,-0.192572177,-0.039791107,0.147817046
19.17,-0.092296064,-0.020468712,0.157262594
19.18,0.081382513,-0.032374382,0.11858654
19.19,0.038340271,0.022688866,0.149637878
19.2,-0.005168617,0.029831886,0.211502045
19.21,-0.038615406,-0.025238037,0.220848322
19.22,-0.067336798,-0.010860443,0.261781305
19.23,-0.105620742,-0.00131321,0.304563165
19.24,-0.100386381,-0.04676342,0.220615685
19.25,-0.075828552,-0.061059952,-0.023094773
19.26,-0.075761497,-0.060948372,-0.021529377
19.27,-0.140584767,0.04203701,0.151509523
19.28,-0.190728068,-0.024915695,0.102268457
19.29,-0.274242699,0.020710945,-0.101894379
19.3,-0.333001554,0.064055443,-0.32437557
19.31,-0.156493127,0.071597099,-0.165417671
19.32,0.06708324,0.088579178,0.411376268
19.33,0.133368015,0.08135128,0.624590635
19.34,0.058121264,-0.012015343,0.233399659
19.35,-0.138396442,-0.057235718,0.120414972
19.36,-0.208956063,-0.059260368,0.344510496
19.37,-0.156352341,-0.058983803,-0.022857606
19.38,-0.113105953,-0.039374352,-0.266048431
19.39,0.005285263,0.011240005,0.046448171
19.4,0.014669597,0.073533058,0.356208563
19.41,-0.029778183,0.075736046,0.355140626
19.42,-0.162950218,0.073188782,0.270774066
19.43,-0.204277098,-0.017891884,0.057059348
19.44,-0.297587395,-0.058567047,-0.174770951
19.45,-0.296891928,-0.058416367,-0.173630536
19.46,-0.200266719,0.071009636,0.023661554
19.47,-0.199171662,0.071138382,0.024412096
19.48,-0.025086641,0.025794983,0.697121501
19.49,0.049446344,-0.052973747,0.40757674
19.5,0.046818256,-0.126481056,0.072558165
19.51,-0.044374287,-0.147270203,0.015547812
19.52,-0.037302554,-0.148946762,-0.003597736
19.53,0.038107395,-0.138799667,0.031196296
19.54,0.038041711,-0.05701828,0.091218472
19.55,0.039269507,-0.056838036,0.092250764
19.56,-0.048841,0.012611389,0.199716061
19.57,-0.155770719,0.03664875,0.152014136
19.58,-0.357555986,0.075133324,-0.182643652
19.59,-0.369642019,0.07785511,-0.092182696
19.6,-0.246837974,0.078232765,0.1581949
19.61,-0.243414164,0.078579903,0.158998609
19.62,-0.071888387,0.062337875,0.228336066
19.63,-0.086799979,0.014959335,0.244746417
19.64,-0.084440649,-0.02278614,0.167781711
19.65,-0.115663111,-0.048560143,0.126683891
19.66,-0.039443493,-0.055192947,0.133624017
19.67,0.007143199,-0.078661919,0.085836709
19.68,0.010303736,-0.078129768,0.089110017
19.69,-0.100860238,0.018159866,0.227929354
19.7,-0.065749526,0.040214539,0.124572694
19.71,-0.055057228,0.045517921,-0.01872611
19.72,-0.023634195,0.065181732,0.020692825
19.73,-0.000386834,0.04634285,0.125714064
19.74,0.000570774,0.046535492,0.12720865
19.75,-0.063326597,0.075439453,0.092557132
19.76,-0.158364773,0.049332619,0.049315155
19.77,-0.295899034,0.025671005,-0.029892981
19.78,-0.291322112,0.016475677,0.060978889
19.79,-0.129064381,-0.062285423,0.356601119
19.8,-0.128081203,-0.062249184,0.355968654
19.81,-0.027424574,-0.174823761,0.56109941
19.82,-0.059868753,-0.206091881,0.562808156
19.83,-0.058053374,-0.206297875,0.557682455
19.84,-0.034425557,-0.096302986,0.043315709
19.85,-0.072645068,-0.014774323,-0.14507556
19.86,-0.032340646,0.033345222,0.028139889
19.87,-0.016820729,0.105356216,0.28762117
19.88,-0.016477644,0.105371475,0.287327737
19.89,-0.138895571,0.107666969,0.238515765
19.9,-0.175132394,0.105186462,0.137154222
19.91,-0.137095094,0.08597374,0.124921024
19.92,-0.137240946,0.086000443,0.125271738
19.93,-0.129148126,0.045436859,0.162147999
19.94,-0.02904582,-0.035597801,0.157362282
19.95,0.032570422,-0.095041275,0.261248291
19.96,0.134684205,-0.164081574,0.274226755
19.97,0.095198691,-0.108627319,0.153208792
19.98,-0.018239677,-0.069899559,0.238419354
19.99,-0.016688228,-0.069534302,0.2413221
20,-0.151781559,0.012201309,0.155181944
20.01,-0.195945025,0.048538208,0.048831224
20.02,-0.195125818,0.044092178,0.071567416
20.03,-0.154002428,0.034750938,0.160177112
20.04,-0.227985084,0.092287064,0.196892619
20.05,-0.111929596,0.089935303,0.157863498
20.06,-0.061403275,0.046798706,0.226387978
20.07,-0.082664728,-0.008329391,0.179817736
20.08,-0.053049862,-0.013103485,0.229059339
20.09,-0.088307202,-0.0179739,0.241600752
20.1,-0.125914753,0.017907143,0.276173919
20.11,0.008751571,-0.022836685,0.174416721
20.12,0.008372664,-0.022886276,0.17427063
20.13,0.119283855,-0.068536758,0.145596564
20.14,0.115008295,-0.037611961,0.32003203
20.15,0.041241467,-0.042547226,0.169538736
20.16,0.032481194,-0.080915451,0.1659531
20.17,0.031029105,-0.080979347,0.166959047
20.18,0.012470067,-0.10502243,0.160724402
20.19,0.091400802,-0.050131798,0.111036122
20.2,0.061827421,-0.071972847,0.163991332
20.21,0.075187325,0.016312599,0.307782292
20.22,0.056610763,0.039858818,0.159257114
20.23,-0.045778096,0.018032074,0.060094595
20.24,-0.049038827,0.017854691,0.061797321
20.25,-0.264409185,-0.001391411,-0.058773994
20.26,-0.122772813,-0.008666039,0.009415448
20.27,0.020573914,-0.025583267,0.146962285
20.28,0.122301877,-0.037852287,0.410966188
20.29,0.202532172,0.009654999,0.673466623
20.3,0.048795104,-0.031486511,0.481953353
20.31,0.100603759,-0.043691635,0.200055599
20.32,0.071632743,-0.105955124,-0.053755701
20.33,0.073903024,-0.110539436,0.035198927
20.34,0.027644038,-0.036182404,0.421000928
20.35,0.048988104,0.030450821,0.366054863
20.36,-0.016781569,0.061032295,0.190716445
20.37,-0.144242466,0.007849693,0.166204989
20.38,-0.13885057,0.021805763,0.18179065
20.39,-0.185481072,-0.014421463,0.167122304
20.4,-0.070327878,-0.026468277,0.184987068
20.41,0.076412022,-0.129369736,0.165846288
20.42,0.115085959,-0.129248619,0.135803282
20.43,0.163079143,-0.114778519,0.34067446
20.44,0.119473755,-0.107575417,0.164262116
20.45,0.013226509,-0.045312881,0.09373033
20.46,-0.023244202,-0.018925667,0.075918794
20.47,-0.108144045,0.009764671,0.064489245
20.48,-0.10963732,0.009684563,0.065281868
20.49,-0.1138708,0.083821297,0.071012676
20.5,-0.125575125,0.078938484,-0.002104521
20.51,-0.127046645,0.078926086,-0.000498295
20.52,-0.180079877,0.038247108,0.064874351
20.53,-0.10784173,-0.014299393,0.030164897
20.54,-0.049952209,-0.047669411,0.124937475
20.55,0.038862765,-0.09303093,0.166973412
20.56,0.017326593,-0.100152969,0.244490981
20.57,0.0172714,-0.100136757,0.244782627
20.58,-2.95043E-05,-0.126587868,0.227244139
20.59,0.082810879,-0.098031044,0.182935476
20.6,-0.028407574,-0.024006844,0.19348532
20.61,-0.117830992,-0.012228966,0.211177051
20.62,-0.118170321,-0.012332916,0.210112035
20.63,-0.075417221,-0.04347229,0.033259511
20.64,-0.076576352,-0.043495178,0.034101784
20.65,-0.103746593,-0.012393951,0.171314299
20.66,-0.135163665,0.028288841,0.152094066
20.67,-0.142345607,0.080940247,0.101658166
20.68,-0.087212741,0.080909729,0.072511911
20.69,-0.068818688,0.080826759,0.124912977
20.7,-0.067710996,0.025606155,0.100405574
20.71,-0.114728987,-0.020067215,-0.053259969
20.72,-0.115826726,-0.020120621,-0.052816927
20.73,-0.252217889,0.075670242,-0.095794022
20.74,-0.154178381,0.082859039,0.150971174
20.75,0.081962883,0.022936821,0.414572924
20.76,0.060925663,-0.027472496,0.663799584
20.77,0.021723509,-0.113895416,0.671614945
20.78,0.021890104,-0.11417675,0.667867005
20.79,0.03231591,-0.12376976,0.266638905
20.8,-0.039191127,-0.078132629,-0.172155201
20.81,0.011666834,0.017449379,0.188871741
20.82,0.036319613,0.081485748,0.350689948
20.83,-0.031242192,0.087854385,0.305290669
20.84,-0.062538028,0.063098907,0.283437789
20.85,-0.081196964,0.028840065,0.232937813
20.86,-0.234226465,-0.045825005,0.236692399
20.87,-0.181799948,-0.110637665,0.110260069
20.88,-0.100014687,-0.170473099,0.100574255
20.89,-0.004144371,-0.148851395,0.153976023
20.9,0.11047864,-0.077004433,0.209526539
20.91,0.109499872,-0.076992989,0.210903108
20.92,0.033993185,0.06668663,0.08097738
20.93,0.032366455,0.066744804,0.083549261
20.94,-0.039747894,0.078629494,0.159686685
20.95,-0.121203423,0.07857132,0.070669413
20.96,-0.118734539,0.078507423,-0.037872076
20.97,-0.147960544,0.059226036,-0.014731944
20.98,-0.236857534,0.078231812,0.192089856
20.99,-0.202784419,0.068423271,0.207899988
21,-0.125174463,0.063477516,0.228807747
21.01,-0.126041293,0.06338501,0.228401542
21.02,-0.116062343,-0.032381058,0.177994371
21.03,-0.115083277,-0.032268524,0.178319335
21.04,-0.13062799,-0.068089485,0.24282974
21.05,-0.038250864,-0.065706253,0.246023148
21.06,-0.037424922,0.02278614,0.150515854
21.07,-0.117815256,0.077806473,0.191794336
21.08,-0.068473697,0.029881477,0.208841324
21.09,-0.067474425,0.029866219,0.207450151
21.1,-0.078456521,0.003567696,0.134910584
21.11,-0.003681302,-0.044271469,0.139811337
21.12,-0.115717769,-0.003515244,0.147217989
21.13,-0.083974898,-0.010616302,0.128534377
21.14,-0.026200175,-0.04881382,0.050726295
21.15,0.009564281,-0.048675537,0.145971716
21.16,0.056931615,-0.007914543,0.154588938
21.17,0.010346174,0.071158409,0.240278304
21.18,-0.012528598,0.068793297,0.239697218
21.19,-0.073664963,0.023319244,0.162561297
21.2,-0.175443828,0.073631287,-0.111088693
21.21,-0.207477212,0.054574013,-0.101740241
21.22,-0.00035131,0.071350098,0.31639269
21.23,0.135964274,0.051953316,0.49306345
21.24,0.056097567,-0.001060486,0.393977523
21.25,0.005642772,-0.14975071,0.462981284
21.26,0.004309773,-0.150028229,0.460711002
21.27,-0.003140986,-0.157443047,0.376623929
21.28,-0.167555153,0.017466545,-0.257068634
21.29,-0.093329728,0.077363014,0.246296614
21.3,-0.094577372,0.077095032,0.244066685
21.31,0.047420263,0.050457001,0.457277
21.32,-0.014444411,-0.02645874,0.340692967
21.33,-0.020435333,-0.03865242,0.147440076
21.34,-0.026111782,-0.127354622,0.043896496
21.35,-0.057656467,-0.10099411,0.063700676
21.36,-0.026729286,-0.029149055,0.102614641
21.37,-0.000967145,-0.033964157,0.215471745
21.38,0.117547154,-0.053231239,0.291676998
21.39,0.115334451,-0.053448677,0.291328013
21.4,0.187020958,-0.010569572,0.271855891
21.41,0.024313211,0.075458527,0.236225843
21.42,0.031849742,0.051359177,0.291319847
21.43,0.02246803,-0.037367821,0.148156107
21.44,-0.053795993,-0.068511963,0.042318106
21.45,-0.031566739,-0.058934212,0.087291956
21.46,-0.045398355,0.000822067,0.183787823
21.47,-0.052199125,0.005407333,0.211709499
21.48,-0.053907692,0.005186081,0.210543394
21.49,-0.19351238,0.072011948,0.412158817
21.5,-0.183699429,0.004780769,0.358956993
21.51,-0.183107913,0.00464344,0.356556952
21.52,-0.063322008,-0.03616333,0.194758177
21.53,-0.127983511,0.004417419,0.310412288
21.54,-0.134122968,0.054509163,0.340289414
21.55,-0.082624733,0.073507309,0.200308681
21.56,-0.064704537,0.073470116,0.164867461
21.57,-0.063567042,0.073420525,0.163122058
21.58,-0.035929799,0.078172684,0.386208832
21.59,0.044572413,0.046977997,0.252075762
21.6,0.036265194,0.018333435,0.139340222
21.61,0.020695627,-0.007851601,0.116064966
21.62,-0.095707893,0.03772068,0.279191911
21.63,-0.094877601,0.037707329,0.278216302
21.64,0.061306477,0.044766426,0.402524084
21.65,0.061390638,0.044603348,0.400239736
21.66,-0.024301171,0.073281288,0.343814731
21.67,-0.023901045,0.073235512,0.342731059
21.68,-0.013939023,0.015802383,0.242260933
21.69,-0.226679981,-0.070277214,-0.034418702
21.7,-0.244562268,-0.024497986,-0.117846012
21.71,-0.097203851,0.01174736,0.031253576
21.72,0.039045036,0.064510345,0.590642273
21.73,-0.064991653,0.047615051,0.494160533
21.74,-0.099092424,0.021277428,0.31762889
21.75,-0.154573798,-0.016935349,0.149457395
21.76,-0.132524908,-0.057415009,0.029862165
21.77,-0.128990293,-0.085735321,-0.224557102
21.78,-0.103935719,-0.118761063,-0.264531076
21.79,-0.118112922,-0.139953613,-0.015638292
21.8,-0.192807138,-0.16855526,0.154005647
21.81,-0.353780568,-0.237975121,0.198082864
21.82,-0.27879554,-0.26661396,0.035766125
21.83,-0.277973115,-0.266530037,0.035856128
21.84,-0.250141442,-0.228122711,-0.184686065
21.85,-0.176666379,-0.189682961,-0.263657928
21.86,-0.194418311,-0.088994026,-0.25397855
21.87,0.005457759,-0.052973747,-0.311234295
21.88,0.124487281,-0.005098343,-0.128635168
21.89,0.151026368,-0.024425507,-0.073709488
21.9,0.108046651,0.011323929,-0.178563058
21.91,-0.228636801,-0.00547123,-0.033789516
21.92,-0.213779509,-0.093937874,0.034046233
21.93,-0.101132035,-0.208805084,-0.237955868
21.94,0.036466897,-0.242272377,-0.573572397
21.95,-0.004230142,-0.18010807,-0.574688256
21.96,-0.026224792,-0.077471733,-0.317249358
21.97,-0.068262458,0.029629707,-0.015381217
21.98,0.042229474,0.066951752,0.277744144
21.99,0.003317654,0.108813286,0.379296541
22,-0.000629306,0.107779503,0.369484782
22.01,-0.010717213,0.19792366,0.258007437
22.02,-0.024271488,0.173374176,0.310902059
22.03,-0.096773386,0.153741837,0.42463091
22.04,-0.096221268,0.153406143,0.419269651
22.05,-0.125934422,0.064631462,0.39579469
22.06,-0.123425901,0.047903061,0.350295931
22.07,-0.120376766,0.047995567,0.348308533
22.08,-0.117242575,0.024141312,0.281349003
22.09,-0.166498303,-0.045226097,0.290442199
22.1,-0.23976171,-0.15771389,0.037914693
22.11,-0.110227764,-0.25590229,-0.03725934
22.12,-0.076564431,-0.217957497,0.031351745
22.13,-0.182596386,-0.12037468,0.258136451
22.14,-0.022704303,-0.075609207,0.343285561
22.15,0.066327572,0.043218613,0.346544713
22.16,-0.034156799,0.071029663,0.361093074
22.17,-0.016550124,0.082170486,0.3040739
22.18,-0.080560684,0.095700264,0.184747487
22.19,-0.194877565,0.068608284,-0.036029339
22.2,-0.195930839,0.068029404,-0.044657469
22.21,-0.177387774,0.151357651,-0.006440639
22.22,-0.009814322,0.16050148,0.26853469
22.23,0.147158623,0.100208283,0.417879522
22.24,-0.009590626,0.087822914,0.443200231
22.25,0.023772836,-0.037010193,0.497300148
22.26,0.04065609,-0.099603653,0.588918746
22.27,0.046548843,-0.162143707,0.270432472
22.28,0.047486126,-0.1623106,0.266076624
22.29,0.130178332,-0.191362381,0.082156599
22.3,0.127167761,-0.192049027,0.073371232
22.31,0.11026448,-0.104517937,0.357133508
22.32,0.075803459,0.002058983,0.433574259
22.33,0.101481855,0.063241005,0.412525982
22.34,-0.003097475,0.11025238,0.374174088
22.35,-0.067993879,0.097701073,0.171791494
22.36,-0.010600746,0.034900665,0.15431869
22.37,0.093835294,-0.068642616,0.098401248
22.38,0.123503387,-0.133877754,0.151370704
22.39,0.124313414,-0.153629303,0.266221881
22.4,0.120338678,-0.15426445,0.258030415
22.41,0.018505812,-0.02316761,0.231207863
22.42,0.015684903,-0.02362442,0.224825457
22.43,-0.046334982,0.050218582,0.106864333
22.44,-0.001484334,0.061782837,0.145243019
22.45,0.042877078,0.133159638,0.32934162
22.46,-0.010679841,0.149441719,0.415780097
22.47,-0.024720371,0.079572678,0.310130596
22.48,-0.128612638,0.04816246,0.227660388
22.49,-0.197456539,-0.040564537,0.122078046
22.5,-0.117007554,-0.054954529,0.163706735
22.51,-0.115798175,-0.054990768,0.160084471
22.52,-0.073777735,-0.045469284,0.331019193
22.53,-0.008111715,-0.04552269,0.329310149
22.54,0.054812491,0.026212692,0.210527107
22.55,0.055167019,0.02614975,0.207851157
22.56,-0.020930707,0.016542435,0.117516458
22.57,-0.149742544,0.047634125,0.167990342
22.58,-0.126825988,0.050052643,0.163282543
22.59,-0.130093634,0.054886818,0.139743775
22.6,-0.128422797,0.054956436,0.138183087
22.61,-0.138920248,0.045415878,0.138826147
22.62,-0.135191858,0.002289772,0.261792958
22.63,0.051675618,0.014142036,0.298267782
22.64,0.090099156,0.028408051,0.299741507
22.65,0.076230943,-0.019503593,0.251762003
22.66,0.076758504,-0.019535065,0.250048757
22.67,-0.006175816,0.018777847,0.331668079
22.68,-0.019719303,0.047497749,0.247697875
22.69,0.032902181,0.006764412,0.187027335
22.7,0.033414483,0.006847382,0.188284665
22.71,-0.409502983,0.040622711,-0.093931198
22.72,-0.219123542,0.012257576,-0.193063438
22.73,-0.106955409,-0.030518532,-0.12786755
22.74,-0.0490942,-0.054284096,0.376873046
22.75,-0.030100405,-0.01839447,0.596870422
22.76,-0.104208112,-0.028021812,0.463515341
22.77,-0.122181237,0.003170013,0.189583108
22.78,-0.051063538,-0.046940804,-0.173087031
22.79,0.047839701,-0.097055435,-0.088157594
22.8,0.046118557,-0.097178459,-0.087684721
22.81,0.000425458,0.048591614,0.55833292
22.82,-0.001777887,0.048311234,0.554272234
22.83,-0.132985115,-0.033320427,0.161589027
22.84,-0.117364705,-0.133976936,-0.001786292
22.85,-0.08486104,-0.148424149,-0.02086392
22.86,0.014822543,-0.134116173,-0.018657297
22.87,0.013592422,-0.134212494,-0.018513501
22.88,0.059844792,-0.136741638,0.191810936
22.89,0.161135078,-0.014757156,0.433411717
22.9,0.165763855,-0.050863266,0.25367105
22.91,0.162981808,-0.051030159,0.254733115
22.92,0.010537982,-0.02950573,0.072756469
22.93,-0.256140113,-0.003182411,0.096330866
22.94,-0.255882919,-0.003117561,0.097679362
22.95,-0.255120456,0.047290802,-0.041063547
22.96,-0.275655091,0.047499657,-0.010781586
22.97,-0.314233661,0.0358181,0.09395729
22.98,-0.239402056,-0.009358406,0.154373482
22.99,-0.16415,-0.104792595,0.264603555
23,-0.160639048,-0.104499817,0.265597254
23.01,0.119838536,-0.22405529,0.37718299
23.02,0.1337502,-0.185667992,0.348784357
23.03,0.099496424,-0.120997429,0.357996792
23.04,0.135829687,-0.056447983,0.270252228
23.05,0.072410643,-0.004027367,0.262862653
23.06,0.02504015,0.048317909,0.268956065
23.07,0.050908446,0.021572113,0.25021416
23.08,-0.048597574,0.04742527,0.243700266
23.09,-0.052027524,0.047017097,0.237930447
23.1,-0.169535756,0.053889275,0.118870363
23.11,-0.136282682,0.046445847,0.164643377
23.12,-0.138805151,0.04623127,0.163014889
23.13,-0.026028097,0.007716179,0.360038757
23.14,0.038579106,0.041005135,0.326907098
23.15,0.000622928,0.040860176,0.235816509
23.16,-0.070193708,0.002483368,0.311447144
23.17,-0.070813596,0.002480507,0.312969804
23.18,-0.045100272,-0.143544197,0.195471436
23.19,-0.045750856,-0.143497467,0.198695064
23.2,-0.11056751,-0.208055496,0.149719298
23.21,-0.291318655,-0.073769569,-0.007004112
23.22,-0.215142667,-0.023223877,-0.148596138
23.23,-0.065995574,0.046393394,0.06637466
23.24,0.131798983,0.036804199,0.446392089
23.25,0.179593027,0.046165466,0.736824215
23.26,0.055752516,0.045917511,0.534428001
23.27,0.034312725,0.055447578,0.23071292
23.28,0.018037081,0.045915604,-0.190059871
23.29,0.018367887,0.046042442,-0.186497212
23.3,0.015526176,0.038933754,-0.142788351
23.31,-0.047588885,0.04602623,0.342251688
23.32,0.016349554,0.067492485,0.623814583
23.33,-0.026390195,-0.035409927,0.153221458
23.34,-0.051721871,-0.073560715,-0.042884111
23.35,-0.057691216,-0.102105141,-0.005842537
23.36,-0.056075573,-0.101874352,-0.002024442
23.37,-0.039731383,-0.048905373,0.076809973
23.38,0.003323436,-0.07013607,0.23209399
23.39,0.034345448,-0.072207451,0.311149329
23.4,0.056023061,-0.091028214,0.256070912
23.41,0.082399726,-0.061903,-0.034620285
23.42,-0.00147742,-0.047060966,0.002976447
23.43,-0.023390055,-0.070565224,0.169185996
23.44,0.094812334,-0.036775589,0.10294342
23.45,-0.001303852,0.049590111,0.103607893
23.46,-0.001515448,0.049772263,0.10883233
23.47,-0.257620156,0.052362442,0.108770251
23.48,-0.325437605,0.014382362,0.003953934
23.49,-0.361215293,-0.088172913,-0.074082315
23.5,-0.320128143,-0.149981499,-0.142314643
23.51,-0.230679572,-0.135158539,-0.079379201
23.52,-0.184887171,-0.132374764,0.003910005
23.53,-0.117865682,-0.127303124,0.009391129
23.54,-0.116065323,-0.127041817,0.012209117
23.55,-0.126556099,0.009647369,0.148838788
23.56,-0.110124707,0.043417931,0.167752683
23.57,-0.11764282,0.05328083,0.005731016
23.58,-0.201999605,0.05838871,-0.042473793
23.59,-0.240019321,0.054047585,-0.070469886
23.6,-0.150693893,0.037764549,-0.124720067
23.61,-0.076538324,0.040606499,-0.121129394
23.62,-0.063013315,0.024227142,-0.052938342
23.63,-0.10491544,-0.011350632,0.122279048
23.64,-0.103948951,-0.011091232,0.126167297
23.65,0.089705229,-0.049304962,0.157558173
23.66,0.040966928,-0.030119896,0.219540373
23.67,0.035579801,-0.010929108,0.230879799
23.68,0.003514946,-0.018086433,0.17543146
23.69,-0.071957886,0.056154251,0.178109169
23.7,-0.072953582,0.056191444,0.18040809
23.71,-0.159748673,0.046757698,-0.005075842
23.72,-0.139079273,0.054031372,-0.049517363
23.73,0.108080804,-0.008286476,0.514766336
23.74,0.097566783,-0.037352562,0.646894574
23.75,0.098892331,-0.150299072,0.526430965
23.76,-0.054885983,-0.246406555,0.423494756
23.77,-0.055397153,-0.246592522,0.420458138
23.78,-0.215332806,-0.208350182,-0.240389705
23.79,-0.152830899,-0.158064842,-0.22135067
23.8,-0.094432652,-0.040956497,0.410898119
23.81,-0.048822999,-0.010349274,0.702611208
23.82,-0.089020312,0.00353241,0.475010335
23.83,-0.089627326,0.003210068,0.468715608
23.84,-0.127277494,-0.092730522,-0.012503088
23.85,-0.119737923,-0.097614288,-0.120792478
23.86,-0.079184234,-0.040225029,0.038356662
23.87,-0.101031661,-0.009179115,0.25960502
23.88,-0.009805501,0.024299622,0.286965609
23.89,-0.009589493,0.024265289,0.285721749
23.9,0.059947014,0.057746887,0.249059439
23.91,0.030858576,0.06491375,0.023905844
23.92,-0.026625931,0.053024292,0.057130426
23.93,-0.024161518,0.005254745,0.128991336
23.94,-0.038443565,-0.001852036,0.188135609
23.95,-0.043161988,-0.037709236,0.19885309
23.96,0.007309258,-0.04722786,0.175899953
23.97,-0.057227194,0.015063286,0.32738632
23.98,-0.0851475,-0.054354668,0.190193132
23.99,-0.134184837,-0.087752342,0.025347054
24,-0.14911288,-0.118671417,0.034102231
24.01,-0.092466652,-0.130475044,0.0591667
24.02,-0.091411829,-0.130390167,0.059315175
24.03,-0.088821471,-0.051394463,0.180948556
24.04,-0.035536051,0.05393219,0.23698841
24.05,-0.03518182,0.053879738,0.235006288
24.06,-0.077666163,0.0873909,0.190601766
24.07,-0.060478389,0.053853989,0.15356946
24.08,-0.096227646,0.053848267,0.07918793
24.09,-0.105197132,0.053925514,0.077581614
24.1,-0.149554372,0.054074287,0.085934073
24.11,-0.133476973,0.015962601,0.078288227
24.12,-0.131492794,0.016278267,0.081668496
24.13,-0.14132601,-0.031242371,0.009702176
24.14,-0.13163209,-0.047588348,-0.025932103
24.15,-0.078981757,-0.051929474,-0.018150866
24.16,-0.02705282,-0.051589966,0.022534132
24.17,0.06399101,-0.056219101,0.081155151
24.18,0.062972784,-0.056176186,0.083691984
24.19,0.030024111,0.041910172,0.295499355
24.2,-0.019454777,-0.025232315,0.135400891
24.21,-0.140773654,-0.034881592,-0.193728328
24.22,-0.196913123,0.00830555,-0.324437946
24.23,-0.121756733,0.041845322,-0.077569366
24.24,0.095970392,-0.068444252,0.404791653
24.25,0.135184646,-0.128610611,0.306159914
24.26,-0.055292487,-0.179131508,0.088903427
24.27,-0.244379103,-0.116966248,0.097909987
24.28,-0.129973233,-0.119376183,0.064958274
24.29,-0.092740953,-0.150485039,-0.414367318
24.3,-0.055681646,-0.109687805,-0.319587231
24.31,-0.086791992,-0.109777451,0.046000838
24.32,-0.073337495,-0.055052757,0.300477356
24.33,-0.101110876,-0.069870949,0.244076982
24.34,-0.193651021,-0.106245995,0.159021288
24.35,-0.213298202,-0.233530045,0.009224325
24.36,-0.170150936,-0.288890839,-0.13945502
24.37,-0.17195034,-0.289108276,-0.140933842
24.38,-0.244411051,-0.282037735,-0.147328705
24.39,-0.258595526,-0.219819069,-0.141217291
24.4,-0.258210301,-0.219833374,-0.142098159
24.41,-0.183506727,-0.080945015,-0.104072094
24.42,-0.200306952,-0.0905056,-0.273695618
24.43,-0.202723742,-0.100017548,-0.207682371
24.44,-0.133481264,-0.066454887,-0.180303723
24.45,-0.131829262,-0.042518616,-0.315520734
24.46,-0.133111119,-0.164613724,-0.406448275
24.47,-0.067682087,-0.19571209,-0.408479601
24.48,-0.153783858,-0.138314247,-0.246263504
24.49,-0.332805455,-0.090572357,-0.133464247
24.5,-0.376693666,-0.00206852,-0.112835258
24.51,-0.419743776,0.069766998,-0.0697833
24.52,-0.447026968,0.201579094,-0.092817724
24.53,-0.443639934,0.20195961,-0.090135366
24.54,-0.550548077,0.272054672,-0.106473953
24.55,-0.531006753,0.174796104,-0.168880224
24.56,-0.472220182,0.082465172,-0.251125246
24.57,-0.415033162,0.040604591,-0.25954175
24.58,-0.431763589,-0.005903244,-0.192230046
24.59,-0.478590906,-0.121671677,-0.21196866
24.6,-0.504873335,-0.3257761,-0.423639119
24.61,-0.436239958,-0.522312164,-0.509471834
24.62,-0.417290211,-0.682666779,-0.429600418
24.63,-0.362289786,-0.795035362,-0.373624325
24.64,-0.129145682,-0.883499146,-0.470535278
24.65,0.026636481,-0.821259499,-0.504749179
24.66,0.033029974,-0.819200516,-0.482519805
24.67,-0.056493521,-0.671510696,-0.258171022
24.68,0.005640149,-0.435731888,-0.455376506
24.69,-0.163851798,-0.27671051,-0.554777443
24.7,-0.385730743,-0.175107002,-0.436089516
24.71,-0.57763809,-0.214679718,-0.397292793
24.72,-0.788535118,-0.287494659,-0.798271775
24.73,-1.027809858,-0.309119225,-0.988351286
24.74,-0.912298083,-0.420586586,-0.797146738
24.75,-0.735461354,-0.591236115,-0.325659633
24.76,-0.53907907,-0.838573456,-0.232672513
24.77,-0.587505281,-0.935189247,-0.85012722
24.78,-0.565759599,-0.930379868,-0.821056008
24.79,-0.598348439,-0.666385651,-0.721036375
24.8,-0.573593319,-0.661454201,-0.696581721
24.81,-0.474797726,-0.077393532,-1.085424781
24.82,-0.339712977,0.326956749,-0.897477746
24.83,-0.459880233,0.887573242,-0.719904065
24.84,-0.614233851,1.442840576,-0.786862493
24.85,-0.818608522,2.04580307,-0.834752619
24.86,-1.079830647,2.406622887,-0.911054075
24.87,-1.411733508,2.551812172,-0.899962246
24.88,-1.582623243,2.419078827,-0.79675895
24.89,-1.192228794,2.10879612,-1.056624889
24.9,-1.199997663,2.104613304,-1.096498489
24.91,-0.527778804,1.599251747,-2.092535973
24.92,0.095508516,1.461942673,-2.135931969
24.93,0.552870035,1.271214485,-2.220958948
24.94,0.526793361,1.264367104,-2.290088654
24.95,0.800955653,0.871721268,-2.015040398
24.96,1.439381838,-0.981506348,0.146194339
24.97,1.383275867,-2.173492432,1.031681418
24.98,1.231152892,-3.656169415,1.429008484
24.99,1.087279797,-5.139569759,1.341024518
25,0.82463479,-6.362652302,1.100702763
25.01,0.79024446,-6.362821102,0.95877099
25.02,0.674122572,-8.144880295,-0.425330579
25.03,0.902988553,-8.615401268,-1.303928852
25.04,0.838779926,-8.608737946,-1.468999028
25.05,1.106276155,-8.819747925,-2.07717371
25.06,1.191611767,-8.623087883,-2.248535156
25.07,0.484189004,-7.242354393,-0.809859037
25.08,0.415997505,-7.212640762,-1.029261112
25.09,-0.102140158,-5.990238667,0.374432921
25.1,0.740433753,-4.109055042,0.819708347
25.11,0.687401652,-3.433495045,0.727377176
25.12,0.10211993,-3.087448597,0.994068146
25.13,-0.12052922,-2.908661842,0.617920399
25.14,-0.138041124,-2.879032612,-0.786000133
25.15,0.037772402,-2.842120171,-2.503323555
25.16,-0.031748593,-2.808680534,-2.610556364
25.17,0.604668856,-2.085969448,-2.521725655
25.18,0.793048859,-1.095549583,-1.791944027
25.19,0.972835541,0.306099892,-1.09500289
25.2,1.183139563,1.752841949,-0.415225506
25.21,1.175389528,3.59013176,0.764416933
25.22,1.25993681,5.286374092,1.279339075
25.23,1.233916998,6.802974701,1.045179605
25.24,1.15152204,8.666341782,0.422896624
25.25,0.99396044,10.47651196,0.229491949
25.26,0.468196631,11.77294827,0.440295696
25.27,0.100696862,12.41114998,0.720533848
25.28,0.306643188,11.6548624,0.808593273
25.29,0.378455639,10.17644119,0.043817282
25.3,-0.091185749,8.790088654,-0.79169631
25.31,-1.192300081,7.429603577,-2.136723757
25.32,-2.136835098,6.357688904,-3.123448849
25.33,-2.330718517,5.434178352,-3.255935431
25.34,-2.134406805,4.265722275,-3.0403862
25.35,-2.464195013,3.310236931,-2.607692719
25.36,-2.087871075,2.491520882,-1.561632156
25.37,-0.942102552,2.522624969,-0.854743958
25.38,-0.289807111,2.865486145,0.734374046
25.39,-1.889243364,3.098095894,3.602561474
25.4,-2.960032225,2.327881813,5.581011772
25.41,-2.924367189,2.36011219,5.508731842
25.42,-0.539584935,-1.332869053,8.70152092
25.43,2.429943323,-4.1967659,9.87734127
25.44,4.532185555,-5.881535053,7.190056801
25.45,2.164542675,-5.119517326,0.845919132
25.46,-0.060050726,-3.374169827,0.165458679
25.47,-1.031401396,-0.794187069,-0.947457075
25.48,-1.030917406,-0.77867651,-0.976117373
25.49,-5.038077354,3.862928391,-4.297469139
25.5,-6.201724052,6.050216675,-3.196267843
25.51,-7.185130596,8.545535088,-1.013303041
25.52,-6.94212532,10.39275265,1.182424068
25.53,-5.174438,11.49128056,1.76300621
25.54,-2.422171831,11.47364521,3.148049355
25.55,0.503873348,9.732827187,4.121245861
25.56,2.904605389,8.355307579,3.405665398
25.57,3.702661753,6.583346367,2.796806335
25.58,3.656870365,6.594269753,2.781635761
25.59,1.182619214,4.368826866,-1.471480131
25.6,0.21772325,2.562574387,-1.934968233
25.61,0.580471933,0.244098663,-1.579525709
25.62,0.505251885,0.215860367,-1.522104979
25.63,2.812695503,-4.78503418,-1.355232477
25.64,3.406564713,-6.979952812,-0.922047854
25.65,1.681378722,-9.054115295,-0.665403128
25.66,-0.713809431,-10.2911272,-0.100008011
25.67,-2.853182554,-10.76634979,-1.397979259
25.68,-3.505702496,-11.14462757,-5.114329338
25.69,-3.175676823,-11.55542088,-7.367054939
25.7,-2.376565933,-11.58773422,-8.205698013
25.71,-1.38430357,-11.42411613,-7.031986237
25.72,-1.464718461,-11.4023819,-7.052936554
25.73,0.922642112,-10.19110489,-2.814892054
25.74,1.88443172,-9.038953781,-1.528596163
25.75,1.859742641,-9.013039589,-1.570444822
25.76,3.479317188,-5.907500267,2.823523998
25.77,4.557064056,-4.06380558,3.708064079
25.78,5.803647995,-1.054224491,1.763905525
25.79,4.636444092,2.466920853,-0.441813946
25.8,3.296984673,6.21169281,-0.452874661
25.81,3.262173176,6.186048508,-0.392782211
25.82,4.179128647,11.83405304,0.027233124
25.83,2.108735085,14.55060959,1.303620338
25.84,-0.136852741,16.8247776,5.149655342
25.85,1.616256475,16.49019241,8.461597443
25.86,1.647378802,16.48825455,8.455255508
25.87,2.510192394,11.03063965,6.333276749
25.88,1.065274835,8.887339592,3.906491756
25.89,-0.343987465,7.979673386,2.108686924
25.9,-1.661695242,7.391065598,-0.072621346
25.91,-2.721260548,6.6369133,-1.588273764
25.92,-2.419324875,5.469398499,-0.566714525
25.93,-1.837705374,2.676674843,3.324779987
25.94,-0.729009271,0.152667999,6.447975159
25.95,-0.006478548,-2.055001736,7.760184765
25.96,0.929719269,-4.988451481,7.743637562
25.97,0.984036565,-5.003469944,7.761572838
25.98,0.438999593,-7.760764599,4.857264519
25.99,-3.383123875,-12.14155388,-5.831933975
26,-5.301539898,-13.22487545,-9.924230576
26.01,-5.560322285,-12.83833885,-9.61728096
26.02,-5.519353867,-12.87470436,-9.546798706
26.03,-5.359256268,-11.99980354,-6.022686005
26.04,-2.814445019,-11.87721443,1.694255829
26.05,-2.800660849,-11.86424828,1.664467812
26.06,-3.452127695,-10.54464245,1.565384865
26.07,-4.204273701,-9.342930794,-1.775455952
26.08,-3.980669975,-8.06734848,-3.852899551
26.09,-3.952641964,-8.091673851,-3.803958416
26.1,-1.047374964,-4.973692417,-2.636092424
26.11,1.951099515,-2.686010361,-0.455711603
26.12,3.773778915,0.170048714,1.393577814
26.13,4.153968334,3.842912674,2.857812166
26.14,4.189749718,3.839710236,2.861905813
26.15,-1.294300675,11.27240753,4.983289719
26.16,-4.579695702,14.43271542,9.236866951
26.17,-5.330679893,15.86116982,13.52820015
26.18,-5.311312675,15.86597729,13.51609325
26.19,-6.638546467,14.96103191,4.513358593
26.2,-7.402595043,13.96806908,-3.553996563
26.21,-7.342573643,13.92236328,-3.446117163
26.22,-2.544989109,9.700673103,-2.182102203
26.23,-2.539170504,9.688754082,-2.15226841
26.24,0.390270829,7.308998108,-0.961233854
26.25,3.103731394,3.375587463,2.060943842
26.26,3.492867947,1.213315964,5.007062912
26.27,3.165017128,-1.201344013,7.587399483
26.28,3.325778246,-3.475667,6.783189297
26.29,2.059952497,-5.671272278,2.358780622
26.3,2.006241083,-5.704054832,2.449347734
26.31,-1.509794831,-9.938444138,-5.175815105
26.32,-1.807241917,-11.77749443,-5.780520439
26.33,-1.244492531,-13.01590157,-5.827613831
26.34,-0.756427765,-13.93656731,-5.602059364
26.35,-0.823413491,-13.95639706,-5.528624535
26.36,-0.601918936,-14.59558678,-4.712802887
26.37,0.224258006,-15.10466957,-0.396776676
26.38,0.121500909,-15.08735466,-0.426260471
26.39,-0.450074941,-13.17436504,0.54281497
26.4,-0.601300836,-11.81121635,-2.594294071
26.41,-0.686726391,-11.81065369,-2.566331387
26.42,-1.947659731,-7.284931183,-9.543348312
26.43,-0.14283061,-4.165242195,-8.908676147
26.44,5.176976681,0.505859375,-4.621343613
26.45,14.13842392,3.7231884,3.536366701
26.46,22.60703659,6.943357468,10.54960632
26.47,20.54013443,10.85499477,11.1803751
26.48,12.64715576,13.83564949,6.696151257
26.49,3.732517481,15.34014702,4.978766918
26.5,-6.122644424,18.07691193,3.613834143
26.51,-5.257518768,17.0017662,3.344157696
26.52,-1.340069532,13.1492815,-0.665076613
26.53,-2.383490324,10.5304718,-1.495776892
26.54,-2.619889498,9.453613281,-1.683302641
26.55,-1.643987179,9.929444313,-0.847208142
26.56,-1.350754976,9.683374405,2.904879093
26.57,-2.489556551,8.939338684,8.067977905
26.58,-4.355232716,8.21822834,10.00683308
26.59,-2.879872322,5.467592239,9.490393639
26.6,-1.450661659,1.024702072,6.109199524
26.61,-1.255833864,-3.441658497,3.511546135
26.62,-1.955961466,-7.862049103,1.871523619
26.63,-2.681059599,-10.86005497,0.061979532
26.64,-2.732000828,-12.68464661,-3.378317118
26.65,-3.037326574,-13.84356022,-6.364346504
26.66,-2.741746426,-13.76765347,-4.924310207
26.67,-2.645525932,-13.78506184,-4.878108025
26.68,-4.193379879,-13.71719646,1.04739666
26.69,-3.652644634,-13.99772072,1.39492774
26.7,-3.536937475,-14.97217941,0.61026597
26.71,-3.539959669,-14.96920776,0.599006891
26.72,-3.395305395,-14.7558136,-2.464825153
26.73,-2.901008368,-13.45540047,-2.794847727
26.74,-2.903542995,-13.45213509,-2.807174206
26.75,-2.727211237,-9.639545441,-2.763624668
26.76,-2.719891548,-7.204198837,-3.056869984
26.77,-2.008636236,-3.927615166,-2.398279667
26.78,1.743605614,-0.552514076,-0.283832073
26.79,4.764955521,2.921051979,1.662290812
26.8,1.282516599,7.542873383,1.955056906
26.81,-1.75150919,12.75355339,3.343740463
26.82,-3.789301872,16.1733799,7.953930855
26.83,-5.860043049,18.55182457,13.80187225
26.84,-6.999340057,19.72428513,13.45671654
26.85,-5.180008411,19.32656097,7.527448654
26.86,-3.532071352,17.79779816,1.141494274
26.87,-3.514919758,17.78381729,1.186671495
26.88,-3.782923698,15.4524498,-1.046382904
26.89,-3.32546401,12.6968565,-0.974099517
26.9,-2.105919361,9.33254528,-0.369923115
26.91,0.110930488,3.717351913,2.775501251
26.92,0.062602952,1.339318275,4.721492767
26.93,1.35280478,-1.156093597,5.15395546
26.94,1.56572175,-3.291944504,4.771782875
26.95,1.517756224,-3.307092667,4.827619553
26.96,1.144030571,-5.38702774,3.168708086
26.97,0.877285361,-10.67625618,-2.67290926
26.98,0.842720866,-10.69490337,-2.600119829
26.99,0.665483117,-12.64559555,-4.652770042
27,1.69327414,-15.85543823,-6.592564583
27.01,1.965453029,-16.11192513,-5.586126328
27.02,2.473974705,-16.09519386,-3.10942626
27.03,2.364851475,-15.48501492,-0.33575058
27.04,2.618623495,-14.18069839,0.823192596
27.05,1.547711611,-12.50782108,0.211391926
27.06,1.468560457,-12.48026943,0.14479804
27.07,-2.163463593,-7.108843803,-4.761757374
27.08,-2.635921478,-4.705304146,-7.445487976
27.09,-1.598477483,-2.400109291,-8.018362045
27.1,2.787785053,1.697676659,-5.002693176
27.11,2.763994694,1.698627472,-4.996121407
27.12,18.48968315,9.446969986,11.21613693
27.13,18.32214355,9.469412804,11.22228622
27.14,16.26077843,13.2456007,10.38839722
27.15,8.314268112,16.57360458,9.417551994
27.16,-0.858398557,18.58659172,10.34556103
27.17,-3.766312838,14.99852848,-0.459460616
27.18,-4.853646278,11.5103693,-2.42254591
27.19,-4.898162842,8.731119156,-0.208855152
27.2,-3.001329422,7.014801025,0.17440176
27.21,-2.477702856,5.902766228,-0.297471285
27.22,-2.459748268,5.922990799,-0.387419939
27.23,-3.263697624,3.914580345,4.839976311
27.24,-4.171512604,4.807981491,7.985336304
27.25,-3.221299648,3.618958473,9.80788517
27.26,-1.341624022,0.502176285,9.786149025
27.27,0.22023505,-4.159863949,7.860092163
27.28,0.274029791,-4.181928158,7.918963432
27.29,-2.943362951,-12.48866749,-1.768601656
27.3,-3.675529003,-14.52333355,-5.303538799
27.31,-3.424406052,-15.42894268,-6.434711456
27.32,-3.331276417,-15.44639683,-6.388121128
27.33,-3.014411926,-15.35170937,-3.786220074
27.34,-2.795603991,-14.98112106,-2.648610353
27.35,-3.417259216,-14.20802498,-2.475340366
27.36,-7.326208115,-11.94824791,-0.221238852
27.37,-7.341240406,-11.94459152,-0.233023405
27.38,-7.114817619,-11.58137989,-0.221071959
27.39,-6.615950108,-11.44228363,0.471140146
27.4,-5.398141861,-10.05909157,0.413212061
27.41,-4.619639397,-8.64234066,-0.597227693
27.42,-2.564984798,-5.510211945,-1.609884858
27.43,6.570436478,4.072330475,6.263545036
27.44,4.395138264,10.12929726,5.880708694
27.45,-0.847616434,16.47197723,2.982501268
27.46,-3.822278023,19.566185,7.30177784
27.47,-4.3836689,19.4840126,14.26172256
27.48,-4.36147213,19.51987648,14.13205051
27.49,-5.551940918,16.21901321,10.86555958
27.5,-7.029233456,15.1473856,-1.366379142
27.51,-7.610289574,13.44494152,-7.410255432
27.52,-5.188019276,10.79826546,-5.457051277
27.53,-2.808098078,7.558666229,-2.807202578
27.54,-2.802335262,7.560051918,-2.812522411
27.55,-0.484373272,4.823216438,-0.888002157
27.56,1.335916281,1.358494759,7.907934189
27.57,2.812157869,-0.93400383,11.02902699
27.58,2.733385563,-0.927844048,11.01639366
27.59,3.944772959,-5.89019537,2.967546701
27.6,3.890321016,-5.909278393,3.044250011
27.61,2.076237679,-7.556221008,-2.512450695
27.62,-0.375782669,-11.50527763,-9.133260727
27.63,-0.40760982,-12.6361208,-7.978723049
27.64,0.969077408,-13.17722034,-5.940792561
27.65,2.26790905,-13.95666122,-3.518795967
27.66,2.207267523,-13.94594765,-3.545980453
27.67,3.902828693,-13.92291832,1.705613375
27.68,2.159878969,-13.6371479,2.6298244
27.69,-0.841551244,-12.66912746,-0.262843609
27.7,-3.025192261,-11.18701553,-3.859381914
27.71,-3.623111963,-9.693532944,-6.361574173
27.72,-3.658020496,-9.686842918,-6.372707367
27.73,-0.602097333,-7.313582897,-8.646799088
27.74,-0.661921203,-7.295122623,-8.688325882
27.75,1.475801945,-5.543985367,-8.096850395
27.76,18.41101646,5.862323761,6.988682747
27.77,19.4994278,10.05099392,8.660255432
27.78,19.27087212,10.10957718,8.599954605
27.79,11.40071487,14.54718876,5.577424526
27.8,1.052356601,16.71637535,2.059029818
27.81,-0.960114718,15.76385784,7.958083153
27.82,0.989201307,14.18832016,9.542263031
27.83,-0.168236136,13.86330414,6.893621445
27.84,-2.292276144,13.66141605,3.725486517
27.85,-2.670132637,13.78095531,2.468999863
27.86,-1.36826992,13.28208828,5.022065163
27.87,0.508411765,11.58390141,8.276648521
27.88,0.517208457,11.56717968,8.324111938
27.89,0.41996932,4.006046295,10.41016006
27.9,-0.178167224,-0.137831688,9.594953537
27.91,-0.076322079,-0.195883751,9.73488903
27.92,-1.999995351,-5.103326321,6.814371109
27.93,-4.965463638,-9.731615067,1.232381582
27.94,-7.875928879,-14.99070549,-4.659926891
27.95,-7.685291767,-15.02703285,-4.597531319
27.96,-7.118660927,-16.005867,-6.818897724
27.97,-4.810784817,-14.75160027,-4.862888336
27.98,-3.54360652,-13.97412586,-0.98570472
27.99,-2.971633434,-13.42610168,2.153276443
28,-3.621818542,-12.80976868,3.410693169
28.01,-4.903373718,-12.50124836,2.146949291
28.02,-4.90239954,-12.28262806,-0.36644733
28.03,-4.284874916,-11.45063782,-2.618691444
28.04,-2.767872095,-10.29907799,-3.182217598
28.05,-1.755347371,-8.869270325,-2.970645428
28.06,-1.549342394,-7.871676445,-2.907425165
