Time (s),Linear Acceleration x (m/s^2),Linear Acceleration y (m/s^2),Linear Acceleration z (m/s^2)
0,-0.075429559,0.059838295,0.138080806
0.01,-0.068811357,0.026231766,0.038333774
0.02,-0.200373828,0.064470291,-0.12649484
0.03,-0.29806757,0.076398849,-0.140022367
0.04,-0.075344503,-0.026650429,-0.01951316
0.05,-0.077023864,-0.026898384,-0.016264379
0.06,0.109650195,-0.043912888,0.272037
0.07,-0.033829808,-0.180343628,0.476812422
0.08,-0.100045562,-0.14436245,0.170730442
0.09,-0.098711133,-0.14432621,0.173536152
0.1,-0.017002761,-0.103733063,-0.15668276
0.11,0.144625425,0.001361847,0.150098145
0.12,-0.067396104,0.049121857,0.540310025
0.13,-0.30196923,0.063551903,0.655787647
0.14,-0.288906574,0.022990227,0.376481146
0.15,-0.147007287,-0.058380127,-0.041484684
0.16,-0.147614598,-0.058569908,-0.036724329
0.17,-0.064207792,-0.0539608,-0.268446595
0.18,-0.106354237,0.063339233,0.006458223
0.19,-0.031184256,0.017847061,0.248924673
0.2,0.027355015,0.03224659,0.467110485
0.21,0.028629839,0.032299995,0.469386607
0.22,-0.064957023,-0.044182777,0.219045058
0.23,-0.112673104,-0.094407082,-0.051808074
0.24,-0.098483801,-0.068074226,-0.279861271
0.25,-0.161599219,-0.05616951,-0.253357947
0.26,-0.121540785,-0.017885208,0.071088836
0.27,-0.041600585,0.041950226,0.368020296
0.28,-0.052764714,0.0635252,0.457054317
0.29,-0.050878167,0.063626289,0.461136043
0.3,-0.235033393,0.008706093,0.132794693
0.31,0.059441566,-0.05820179,-0.065597102
0.32,0.047578573,-0.130112648,-0.125414938
0.33,-0.064260483,-0.158874512,-0.034415692
0.34,-0.153438807,-0.170736313,0.122282341
0.35,-0.165235221,-0.146580696,0.217423156
0.36,-0.15059346,-0.072123528,0.19501245
0.37,-0.107604444,-0.038412094,0.036852866
0.38,-0.105888009,-0.038299561,0.039923355
0.39,0.009703577,0.014385223,0.038105935
0.4,0.057751238,0.021573067,0.362300396
0.41,0.057945609,0.021600723,0.361505449
0.42,-0.092243731,-0.009476662,0.103320688
0.43,-0.165789127,0.064783096,-0.207824647
0.44,-0.320507467,0.028878212,-0.337374568
0.45,-0.22564894,0.060060501,-0.226440787
0.46,-0.226425767,0.059941292,-0.22402963
0.47,0.185592711,-0.064768791,0.538014889
0.48,0.054130375,-0.139202118,0.616624475
0.49,0.053739905,-0.139256477,0.617239356
0.5,0.020998061,-0.146381378,0.333680838
0.51,0.021900296,-0.146326065,0.335064411
0.52,-0.145139039,-0.052947044,-0.208330914
0.53,0.11150527,0.064134598,-0.0251766
0.54,0.184010267,0.015862465,0.615044713
0.55,-0.035931408,-0.015617371,0.858859897
0.56,-0.038472354,-0.015750885,0.851535201
0.57,-0.154577494,-0.073234558,0.271024346
0.58,-0.030647933,-0.152280808,-0.127364621
0.59,-0.141076624,-0.138002396,-0.105633274
0.6,-0.139667034,-0.137890816,-0.103438392
0.61,0.000867128,-0.082679749,0.220674858
0.62,0.021511853,-0.092125893,0.175904349
0.63,0.061914563,-0.070423126,0.083946779
0.64,0.025851607,-0.02959919,0.082468882
0.65,0.029272854,-0.029348373,0.088167384
0.66,-0.115355253,0.018852234,0.269543499
0.67,-0.111344516,0.019201279,0.272907436
0.68,-0.204125762,0.064941406,0.207133755
0.69,0.043816805,0.064795494,0.028719246
0.7,0.247478664,0.06452179,-0.08184541
0.71,-0.134653926,0.014051437,0.074978307
0.72,-0.135358572,0.013960838,0.076111697
0.73,-0.112226903,-0.033985138,0.417535543
0.74,-0.212243915,-0.019783974,0.164916202
0.75,-0.206062377,0.004026413,-0.162594482
0.76,-0.169053674,-0.005732536,-0.301288962
0.77,-0.170595944,-0.005936623,-0.29666248
0.78,-0.078736305,-0.101869583,0.110131539
0.79,-0.072868943,-0.125932694,0.40887931
0.8,-0.073371947,-0.125963211,0.406365275
0.81,0.046604276,-0.049285889,0.527715206
0.82,-0.110198259,0.094532967,0.349724144
0.83,-0.268221021,0.082812309,0.249653906
0.84,-0.181953549,0.032771111,0.141258031
0.85,-0.180790365,0.032888412,0.14172098
0.86,-0.168761969,0.016100883,-0.284746409
0.87,-0.119050443,0.030376434,-0.436516404
0.88,0.107046068,-0.010490417,-0.042904422
0.89,0.234025776,-0.044231415,0.699390352
0.9,-0.089051902,-0.077939987,0.836869538
0.91,-0.08910656,-0.077906609,0.832964957
0.92,-0.04861021,-0.070734024,0.394655973
0.93,-0.044199049,-0.015694618,0.102055267
0.94,-0.102343798,0.024923325,-0.159377858
0.95,0.169125617,-0.023152351,-0.155676663
0.96,0.155449271,-0.014001846,0.045302056
0.97,-0.198213458,0.014354706,0.367979139
0.98,-0.458253026,0.002283096,0.579213798
0.99,-0.290836394,-0.016817093,0.403171063
1,-0.291208744,-0.016796112,0.398815781
1.01,-0.130690932,0.002364159,0.01479134
1.02,-0.117965281,-0.023885727,0.120289058
1.03,-0.116594851,-0.023777008,0.121188633
1.04,0.016876876,-0.023626328,0.307295501
1.05,-0.105287612,0.000509262,0.195256129
1.06,-0.002132237,0.046194077,-0.051723756
1.07,0.009083271,0.051085472,-0.146272063
1.08,-0.078478098,-0.030283928,0.058732837
1.09,0.032521248,-0.013469696,0.4022533
1.1,0.192580223,0.027168274,0.449016422
1.11,0.191093206,0.027022362,0.45086354
1.12,-0.047038913,0.050803185,0.081497401
1.13,-0.221913695,-0.030650139,-0.070289046
1.14,-0.163577676,-0.131181717,-0.123009488
1.15,-0.163700461,-0.131233215,-0.117383465
1.16,-0.197138488,-0.183930397,-0.007882349
1.17,-0.197259486,-0.183947563,-0.005911924
1.18,-0.077761769,-0.042715073,0.331773162
1.19,-0.106969416,0.029087067,0.349207103
1.2,-0.15973258,0.055412292,0.359513193
1.21,-0.147769749,0.005142212,0.289265573
1.22,-0.004714727,0.007489204,0.193622589
1.23,0.096592188,0.01210022,0.03493987
1.24,0.008439898,-8.39233E-05,-0.110031933
1.25,-0.105179668,-0.05527401,-0.104933739
1.26,0.035582483,-0.043385506,0.006560676
1.27,-0.099969566,0.052228928,0.154522821
1.28,-0.239050329,0.061781883,0.270756185
1.29,-0.238919973,0.061800003,0.271892488
1.3,0.043534577,0.016290665,0.019987945
1.31,0.041782796,0.016103745,0.023572817
1.32,-0.160865188,-0.185175896,0.49690035
1.33,-0.172915757,-0.233046532,0.321837694
1.34,0.008544743,-0.178052902,0.097337589
1.35,-0.044843555,-0.10149765,-0.025556687
1.36,-0.044722557,-0.101499558,-0.024184812
1.37,-0.074726224,-0.008021355,-0.091102414
1.38,0.171785712,0.061185837,0.14528957
1.39,-0.030289888,0.060874939,0.446882904
1.4,-0.164342821,0.086993217,0.58642906
1.41,-0.17276603,0.082108498,0.368657768
1.42,-0.173745096,0.082039833,0.366164178
1.43,-0.083313584,0.034099579,-0.061475195
1.44,-0.083089113,0.034099579,-0.058190182
1.45,-0.029805124,-0.126282692,-0.058597736
1.46,-0.098507941,-0.128622055,0.132845312
1.47,-0.245223939,-0.099728584,0.148676291
1.48,-0.122969508,-0.075569153,0.025621206
1.49,0.00222069,-0.065936089,-0.048047334
1.5,0.001920283,-0.044423103,0.096557684
1.51,0.001272917,-0.044499397,0.10024076
1.52,0.007181466,-0.00391674,0.130586505
1.53,0.072296977,0.060554504,0.122266121
1.54,0.103093743,0.065067291,0.082515061
1.55,-0.056778669,0.115170479,0.114630222
1.56,-0.334556937,0.060113907,0.077514254
1.57,-0.612949252,0.060274124,0.280801922
1.58,-0.437294245,-0.013646126,0.336863339
1.59,-0.216450334,-0.056460381,0.121154733
1.6,-0.171362102,-0.034725189,0.022179246
1.61,-0.123092115,-0.029670715,0.154901296
1.62,-0.04861486,0.032837868,0.245569259
1.63,-0.04649657,0.033040047,0.244712353
1.64,0.179793656,0.002022743,0.251652002
1.65,0.173570335,-0.02661705,0.368557066
1.66,0.127231181,-0.004910469,0.489714056
1.67,0.047833085,-0.007116318,0.38814038
1.68,0.049993217,-0.006903648,0.389465481
1.69,-0.216246903,0.007640839,-0.14513658
1.7,-0.213619173,0.007906914,-0.138582334
1.71,-0.338035286,0.06321907,-0.377693206
1.72,-0.253136456,0.168681145,-0.306543738
1.73,0.125925779,0.116091728,0.372541755
1.74,0.052662194,0.063509941,0.59677875
1.75,0.055445373,0.063788414,0.599674463
1.76,-0.265069306,-0.151183128,0.128321916
1.77,-0.259708047,-0.150629044,0.135247916
1.78,-0.124183774,-0.219665527,0.026264396
1.79,0.041168094,-0.295998573,0.079402991
1.8,0.041396618,-0.295938492,0.083832495
1.81,0.063812315,-0.07343483,0.502032042
1.82,-0.013775945,0.000695229,0.359496176
1.83,-0.098590553,0.065237045,0.007341959
1.84,-0.125843823,0.108282089,-0.11559096
1.85,-0.176627159,0.091480255,-0.156600654
1.86,-0.19330883,0.065190315,-0.061299756
1.87,-0.068211734,0.058078766,0.119574264
1.88,0.049231052,-0.008925438,0.464591742
1.89,0.123495638,-0.020879745,0.657158434
1.9,0.030946314,-0.006412506,0.512951791
1.91,0.103757739,-0.04220295,0.169805229
1.92,0.139607847,-0.113985062,-0.239144266
1.93,0.139172673,-0.113913536,-0.228605926
1.94,0.057556927,-0.147346497,-0.416473836
1.95,-0.093456626,-0.137721062,-0.245841593
1.96,-0.166027784,-0.125811577,0.346991569
1.97,-0.216760218,-0.080366135,0.523677468
1.98,-0.367233932,0.01541996,0.486542314
1.99,-0.365116477,0.015615463,0.485702932
2,-0.440482497,0.066267014,0.287541598
2.01,-0.326908886,0.100174904,-0.178720117
2.02,-0.183458269,0.078891754,-0.275251746
2.03,-0.022182822,0.055080414,-0.154152185
2.04,-0.022727907,0.055057526,-0.152129725
2.05,0.079387724,-0.052779198,0.395881563
2.06,0.079112113,-0.052830696,0.393403173
2.07,0.139911234,-0.038428307,0.602482081
2.08,0.149163067,-0.067230225,0.293573946
2.09,0.193611205,-0.076887131,0.069450259
2.1,0.139116943,-0.141692162,0.088074803
2.11,0.137368321,-0.141847611,0.089516819
2.12,-0.141545355,-0.149153709,-0.271118522
2.13,-0.163835645,0.006439209,-0.403389365
2.14,-0.272447407,0.066218376,0.026243202
2.15,-0.181884646,0.066143036,0.469195217
2.16,-0.182935953,0.065979958,0.463679075
2.17,0.075706005,0.039360046,0.708454669
2.18,-0.08150208,-0.068572998,0.269554257
2.19,-0.075462878,-0.051935196,-0.111091025
2.2,-0.076996922,-0.052055359,-0.108225115
2.21,0.030421972,0.014778137,-0.4119609
2.22,0.074393749,-0.011885643,-0.062601499
2.23,-0.067634344,0.006946564,0.510180891
2.24,-0.177321196,-0.043598175,1.079324007
2.25,-0.178319871,-0.0437994,1.070419431
2.26,-0.047344625,-0.027218819,0.494520664
2.27,-0.117680192,-0.072823524,-0.151925281
2.28,-0.154157817,-0.127902031,-0.492717892
2.29,-0.155139864,-0.127939224,-0.487398177
2.3,-0.058854699,-0.187963486,-0.290871918
2.31,-0.022119164,-0.224024773,0.053079482
2.32,-0.085286558,-0.075689316,0.238584966
2.33,-0.154401362,-0.058889389,0.296726763
2.34,0.047366738,-0.027694702,0.333196193
2.35,0.047139943,-0.027718544,0.33311671
2.36,-0.03446877,0.113536835,0.054548386
2.37,-0.103086412,0.106458664,0.035124063
2.38,-0.245757997,0.065865517,0.05837759
2.39,-0.316604257,0.046811104,0.183317095
2.4,-0.279936135,-0.039308548,0.161295742
2.41,-0.267917037,-0.077609062,0.059360173
2.42,-0.354780793,-0.072851181,0.090542957
2.43,-0.229094267,-0.135195732,0.248790652
2.44,0.118986428,-0.200185776,0.262118101
2.45,0.402221561,-0.22952652,0.248887599
2.46,0.464021951,-0.266177177,0.297282815
2.47,0.368617117,-0.183041573,0.324451089
2.48,0.319622338,-0.157290459,0.208999902
2.49,0.275931418,-0.042913437,0.078732401
2.5,0.110920012,-0.050562859,0.055815045
2.51,-0.005063653,0.047245026,0.053816054
2.52,-0.21121645,0.037384033,0.047128465
2.53,-0.212996066,0.037174225,0.04395042
2.54,-0.255540729,0.029801369,-0.032395661
2.55,-0.350501835,0.058389664,-0.126696527
2.56,-0.261607647,0.048623085,0.040241044
2.57,-0.20454067,-0.047422409,0.251560986
2.58,-0.208341777,-0.04780674,0.248221606
2.59,0.27424562,-0.280615807,0.825251937
2.6,0.113157451,-0.273976326,0.674892187
2.61,-0.117621422,-0.180951119,0.18476218
2.62,-0.021634042,-0.102144241,-0.320286512
2.63,0.148769379,-0.049856186,-0.460619897
2.64,0.276136637,-0.067202568,0.013070636
2.65,0.082300305,0.015931129,0.698863983
2.66,-0.205604971,0.053705215,1.029605627
2.67,-0.323277056,0.058204651,0.811881959
2.68,-0.209761202,0.053266525,0.239131495
2.69,-0.211803794,0.053084373,0.234471113
2.7,0.057841599,0.036039352,-0.373223454
2.71,-0.043068588,0.00947094,-0.068335727
2.72,-0.035000741,-0.014608383,0.346250892
2.73,0.018832743,0.025998116,0.535726726
2.74,0.034368157,0.028266907,0.362809986
2.75,0.011391938,-0.012552261,0.097701296
2.76,-0.083144188,-0.034199715,-0.032963309
2.77,-0.038876951,-0.055844307,-0.028677594
2.78,0.110261142,0.006285667,-0.024816828
2.79,0.045137644,0.051539421,0.066679925
2.8,-0.100470543,0.084900856,0.114485264
2.81,-0.330748558,0.084869385,0.026145443
2.82,-0.330124855,0.084937096,0.030329451
2.83,-0.288858712,0.017957687,0.251639038
2.84,-0.138787985,-0.046753883,0.343947738
2.85,0.055115879,-0.08286953,0.279800326
2.86,0.051519334,-0.083169937,0.279913157
2.87,0.029108703,-0.033143044,-0.000373069
2.88,-0.097811401,-0.04292202,-0.007834714
2.89,-0.135434985,0.0167799,0.034575418
2.9,-0.208439589,0.002306938,0.183003008
2.91,-0.192390978,-0.038460732,0.371893585
2.92,-0.037303209,0.026137352,0.340026319
2.93,-0.028689146,0.042803764,0.218168572
2.94,-0.010355055,0.0044384,0.064999864
2.95,0.067572057,-0.053125381,-0.0126861
2.96,0.066324413,-0.053224564,-0.011342868
2.97,-0.10395205,-0.024495125,-0.019643955
2.98,-0.245483458,0.025763512,-0.018680081
2.99,0.136579692,0.035250664,0.09212818
3,0.133379996,-0.032049179,0.46447587
3.01,-0.066043556,-0.111304283,0.634115756
3.02,-0.128937364,-0.152058601,0.4033494
3.03,-0.164853215,-0.087415695,0.085594758
3.04,-0.164798617,-0.087402344,0.088094756
3.05,-0.007517874,0.049044609,-0.565790296
3.06,0.163948476,0.048778534,-0.112792492
3.07,0.160073638,0.048452377,-0.117127299
3.08,-0.17016083,0.038656235,1.146591187
3.09,-0.13761425,0.024180412,0.898190677
3.1,-0.001879692,-0.042916298,0.355073363
3.11,0.083083212,-0.052603722,-0.091240801
3.12,0.017546713,-0.047868729,-0.295688957
3.13,-0.125380337,-0.040614128,-0.10994456
3.14,-0.143056274,-0.035716057,0.200883225
3.15,-0.142225623,-0.035633087,0.201373056
3.16,-0.051088631,-0.066740036,0.026518444
3.17,0.063362539,-0.071562767,-0.028205737
3.18,0.136617363,-0.035707474,-0.00868519
3.19,0.066764295,-0.006995201,0.017282337
3.2,-0.002365172,-0.004577637,0.181058079
3.21,-0.001709044,-0.004526138,0.180968061
3.22,-0.056566656,-0.002110481,0.063394323
3.23,-0.180606306,0.036249161,-0.003060266
3.24,-0.217641592,-0.042661667,0.053125076
3.25,-0.149849594,-0.056960106,0.17516236
3.26,-0.149106026,-0.090432167,0.210183337
3.27,-0.147931457,-0.090350151,0.210024342
3.28,-0.218040645,-0.044711113,0.20090726
3.29,0.030115426,-0.039795876,0.172750548
3.3,-0.003013074,0.036860466,0.158244044
3.31,-0.188649774,0.048912048,0.169550806
3.32,-0.172868729,0.049023628,0.034518648
3.33,-0.016753972,0.041872978,-0.118116386
3.34,-0.017438173,0.041838646,-0.11554274
3.35,-0.151390374,0.037075043,-0.041927613
3.36,-0.055990875,-0.006053925,0.071790472
3.37,-0.042179048,-0.039615631,0.037111439
3.38,-0.042437971,-0.039620399,0.038510785
3.39,-0.214268684,0.046618462,0.079279512
3.4,-0.213551223,0.046673775,0.079014719
3.41,-0.257584631,0.044203758,0.003374081
3.42,0.459454954,-0.140439034,0.411145479
3.43,0.048590899,-0.145545006,0.790495455
3.44,-0.206443191,-0.15284729,0.547023654
3.45,-0.034100115,-0.090614319,0.115415387
3.46,-0.052035809,-0.006913185,-0.090468287
3.47,-0.129267871,0.012209892,-0.346079946
3.48,0.082828343,0.043244362,-0.194433972
3.49,0.032031953,0.047800064,0.165380091
3.5,-0.203043878,0.047545433,0.583859265
3.51,-0.410505176,0.035431862,0.703425348
3.52,-0.286208034,-0.055588722,0.545644879
3.53,-0.064608097,-0.036535263,0.1931009
3.54,-0.039986372,-0.053437233,-0.05574695
3.55,-0.041171789,-0.053517342,-0.05511567
3.56,0.024799109,-0.048805237,-0.085694134
3.57,-0.021754742,-0.084824562,0.31346646
3.58,-0.103537381,-0.03217411,0.123143278
3.59,-0.176051855,-0.048986435,0.044826619
3.6,0.009502411,-0.05865097,0.182915315
3.61,0.006678343,-0.058886528,0.182188749
3.62,0.096437991,0.000699043,0.326417565
3.63,0.26040265,0.038728714,0.14996028
3.64,0.260692418,0.045559883,0.159406439
3.65,0.029114306,0.045246124,0.194644854
3.66,-0.117497802,0.04263401,0.059672307
3.67,-0.25893265,-0.031787872,-0.035762586
3.68,-0.34256655,-0.07743454,0.020329233
3.69,-0.242429495,-0.111175537,0.155958265
3.7,-0.052116156,-0.123413086,0.187594786
3.71,-0.055746317,-0.12369442,0.18615745
3.72,-0.04180789,-0.111923218,0.266042441
3.73,-0.060428619,-0.040245056,0.261422873
3.74,-0.059110999,0.009964943,0.065521471
3.75,-0.136358857,0.024283409,-0.032566637
3.76,-0.105492473,-0.030816078,-0.043765273
3.77,0.006431401,-0.038033485,-0.026374653
3.78,-0.013795674,-0.033335686,0.205815643
3.79,-0.129509389,-0.007053375,0.287284792
3.8,-0.127454758,0.028841972,0.178952113
3.81,-0.128843308,0.035914421,-0.066475049
3.82,-0.169174671,0.042952538,-0.233654007
3.83,-0.101918042,-0.00508976,-0.148955405
3.84,0.086712122,-0.110649109,0.242641836
3.85,0.08314538,-0.110906601,0.239006698
3.86,-0.244106829,-0.252291679,0.490483433
3.87,-0.070066273,-0.187687874,0.104295075
3.88,0.04796356,-0.154292107,-0.061279885
3.89,0.046173155,-0.154421806,-0.060261652
3.9,-0.112740099,-0.087449074,-0.235867381
3.91,0.246152192,-0.027774811,-0.060138315
3.92,0.15125984,0.01984024,0.215918884
3.93,-0.157919824,0.084305763,0.408523738
3.94,-0.159099937,0.084242821,0.401893526
3.95,-0.360618293,0.048312187,0.482135803
3.96,-0.160707116,0.014732361,0.130042523
3.97,-0.093499839,-0.033295631,-0.216528118
3.98,-0.002528727,-0.076572418,-0.208838493
3.99,-0.095595896,-0.081488609,0.048360206
4,-0.096456885,-0.081540108,0.043713257
4.01,-0.396542966,-0.021555901,0.245481297
4.02,-0.165260792,-0.009473801,-0.058452994
4.03,-0.100435376,-0.019028664,-0.102174789
4.04,-0.099887669,-0.018983841,-0.102846414
4.05,-0.185120285,0.040940285,0.027365122
4.06,-0.033037364,0.041038513,0.202140823
4.07,-0.023236692,0.041069031,0.344848126
4.08,-0.125482678,0.041145325,0.319389194
4.09,-0.123669803,0.041295052,0.316281885
4.1,-0.252765477,-0.051872253,0.05751323
4.11,-0.345056534,-0.087529182,0.004938625
4.12,-0.377042115,-0.068067551,0.162489116
4.13,-0.327428162,-0.074915886,0.308115661
4.14,-0.160863757,-0.043470383,0.301683605
4.15,-0.172436476,0.007060051,0.13545236
4.16,-0.169639885,0.007307053,0.131606206
4.17,-0.190268695,-0.061882019,-0.147585124
4.18,-0.220265329,-0.054404259,0.094094075
4.19,-0.228095055,-0.015755653,0.25257051
4.2,-0.178297401,0.04447937,0.211657569
4.21,-0.135900855,0.044822693,0.038402438
4.22,-0.131970823,0.04510498,0.038218893
4.23,-0.297571003,-0.079081535,-0.068096653
4.24,-0.293209016,-0.078746796,-0.067196496
4.25,-0.265620649,-0.12399292,-0.13552396
4.26,0.107856929,-0.145349503,0.137858242
4.27,0.127348959,-0.186006546,0.525751889
4.28,-0.25076294,-0.267333984,0.601792514
4.29,-0.244190395,-0.233610153,0.279943317
4.3,-0.243700266,-0.233511925,0.274777889
4.31,-0.234974206,-0.305323601,-0.178135604
4.32,-0.281217456,-0.188000679,-0.445640743
4.33,-0.110295057,-0.118644714,-0.391355634
4.34,-0.111321986,-0.035032272,0.019428119
4.35,-0.313224196,0.034319878,0.560633898
4.36,-0.448471844,0.039198875,0.583530664
4.37,-0.464435577,0.010663033,0.17111586
4.38,-0.247199953,-0.094497681,-0.226932809
4.39,-0.117556334,-0.16390419,-0.231921256
4.4,-0.060940146,-0.233350754,-0.089277677
4.41,-0.038193047,-0.22615242,0.274120331
4.42,-0.039844573,-0.226125717,0.266492307
4.43,-0.206006467,-0.125508308,0.228263632
4.44,-0.206760764,-0.125473976,0.223990187
4.45,-0.23405844,-0.137472153,-0.266165614
4.46,-0.269323051,-0.156705856,-0.268419534
4.47,-0.177315891,-0.163921356,-0.164269075
4.48,-0.179391563,-0.16395092,-0.170045316
4.49,-0.091314197,-0.166377068,0.027762011
4.5,-0.12274158,-0.082531929,0.292889118
4.51,-0.184819937,-0.070461273,0.385023415
4.52,-0.294414282,-0.154192925,0.077611297
4.53,-0.317097366,-0.280981064,-0.04897292
4.54,-0.250919879,-0.302396774,-0.080101192
4.55,-0.390570462,-0.316599846,-0.09071736
4.56,-0.394622505,-0.19658947,-0.196968317
4.57,-0.371984839,-0.124455452,-0.219230846
4.58,-0.37063545,-0.124124527,-0.226954147
4.59,-0.336020231,-0.116562843,-0.02325812
4.6,-0.264309704,-0.073109627,0.307944208
4.61,-0.264600217,-0.07274437,0.296465367
4.62,0.049363196,-0.060570717,-0.049211264
4.63,-0.049314082,-0.024654388,-0.227488697
4.64,-0.052018642,-0.024676323,-0.232873887
4.65,-0.308380842,-0.055771828,0.000877291
4.66,-0.39816314,-0.000520706,0.341184288
4.67,-0.398701727,-0.000217438,0.331981599
4.68,-0.192684472,0.050248146,0.341900915
4.69,-0.152509511,0.047852516,0.066056162
4.7,0.180959404,-0.043239594,0.183618933
4.71,0.118954301,-0.177603722,0.322036356
4.72,0.126243115,-0.15388298,0.315491468
4.73,0.279267401,-0.079897881,0.06928879
4.74,0.311991036,-0.039556503,-0.401941866
4.75,0.404825836,-0.049576759,-0.446899951
4.76,0.530774534,-0.047564507,-0.048361808
4.77,0.438066781,-0.074213982,0.277839661
4.78,0.429779172,-0.074397087,0.269592643
4.79,0.340134382,-0.02671814,0.338928014
4.8,0.405210316,0.212349892,-0.28339389
4.81,0.395181656,0.211892128,-0.287109137
4.82,0.269484907,0.326337814,-0.473357946
4.83,0.288164854,0.378531456,-0.254143685
4.84,0.418012619,0.174571037,-0.046374053
4.85,0.486422002,0.044778824,-0.051837504
4.86,0.470409036,0.044175148,-0.057880878
4.87,0.414227337,-0.076336861,-0.446758211
4.88,0.229438692,-0.084465027,-1.032437325
4.89,0.183783382,0.038929939,-1.080408335
4.9,0.155522198,0.226862907,-1.052775145
4.91,0.060878605,0.421883583,-0.906766892
4.92,0.050623447,0.420679092,-0.891207576
4.93,0.181006491,0.702208519,-0.441581726
4.94,0.173858076,0.70142746,-0.430911869
4.95,-0.274745673,0.571731567,-0.034779429
4.96,-0.187700987,0.442234039,-0.366342753
4.97,-0.180951506,0.25988102,-0.891707957
4.98,-0.293707669,0.137247086,-1.214262605
4.99,-0.328462869,0.072036743,-1.231837749
5,-0.567568064,0.033158302,-1.077347279
5.01,-0.700128317,-0.08217907,-0.891368866
5.02,-0.586057663,-0.294784546,-0.765080869
5.03,-0.591945827,-0.294329643,-0.784409285
5.04,-0.297484279,-0.430307388,-0.826155901
5.05,-0.153900892,-0.709893227,-0.75820601
5.06,-0.221042991,-0.948659897,-0.562106848
5.07,-0.13300696,-1.122663498,-0.581226468
5.08,0.009172112,-1.191285133,-0.77983892
5.09,-0.246076882,-1.396302223,-0.842231274
5.1,-0.252055079,-1.39513588,-0.868290424
5.11,-0.489404619,-1.858249664,-0.723718286
5.12,-0.495179117,-1.856738091,-0.752895355
5.13,-0.136793464,-2.209610939,-0.843533754
5.14,-0.291576773,-2.392405987,-1.057891846
5.15,-0.341150284,-2.515349865,-1.29370904
5.16,-0.147972375,-2.602480888,-1.703905582
5.17,0.012063861,-2.586986065,-2.010467529
5.18,-0.089714974,-2.65789032,-1.78898561
5.19,-0.087884843,-2.656801224,-1.802610874
5.2,-0.355787754,-2.367798328,-0.864587009
5.21,-0.609219015,-2.121587276,-0.82648021
5.22,-0.599840939,-2.119513035,-0.847857356
5.23,-0.585311592,-1.430280685,-1.148499012
5.24,-0.398628056,-0.609547615,-1.59244585
5.25,-0.388870031,-0.607852936,-1.607425928
5.26,-0.555063605,0.618096352,-1.563375592
5.27,-1.183971286,1.529100418,-0.957551897
5.28,-1.581579685,2.41658783,-0.476032764
5.29,-1.35852921,2.173725128,-1.008917212
5.3,-0.651780486,1.706934929,-2.182859659
5.31,0.258310527,1.444252968,-3.417308807
5.32,1.129900813,1.63014698,-4.062474728
5.33,1.130573273,2.313972473,-3.88838768
5.34,0.476335585,3.376995087,-2.871208668
5.35,0.023597121,4.496527672,-1.494308472
5.36,0.052726507,4.499904633,-1.510317922
5.37,-0.637239218,5.4261446,0.290895879
5.38,-1.40595603,5.020390511,1.571741581
5.39,-1.624428272,4.511217117,2.623796225
5.4,-2.09457469,4.029204369,2.807088375
5.41,-1.147552729,3.251840591,2.585546017
5.42,0.512114406,2.646154404,2.787373066
5.43,1.855933666,1.818787575,3.762058735
5.44,2.501720905,1.429615021,5.129969597
5.45,1.844192266,1.561009407,6.128359795
5.46,0.375287235,2.144389153,6.592617512
5.47,0.396078944,2.152324677,6.547672272
5.48,-2.189922571,2.706486702,6.457228661
5.49,-2.165112257,2.714471817,6.418273926
5.5,-2.427395821,2.108696938,5.998558998
5.51,-1.552765608,0.668164253,3.260205269
5.52,-1.55122304,0.672316551,3.234126568
5.53,-0.375691474,0.807929993,2.604849815
5.54,-0.443632603,1.060629845,3.222384453
5.55,-0.658614397,1.328912735,3.382203817
5.56,-1.093947411,1.39627552,2.681791782
5.57,-1.358150959,1.469795227,1.518818259
5.58,-1.418479204,1.400439262,0.261886597
5.59,-1.856153369,1.286061287,-0.365797043
5.6,-1.850264549,1.288526535,-0.376116753
5.61,-2.39339447,-0.227314949,0.515315414
5.62,-2.38910675,-0.225151062,0.505944371
5.63,-2.519507408,-1.29369545,0.946511626
5.64,-1.327080727,-4.097783566,0.080563307
5.65,-0.909003258,-5.288318157,-0.284707189
5.66,-0.042620957,-6.273681641,-0.790521145
5.67,0.71303463,-7.219133377,-1.516015053
5.68,1.304690361,-7.942694187,-1.904730439
5.69,1.842673302,-8.343015671,-1.987153053
5.7,1.81582737,-8.350270271,-1.96010077
5.71,2.403253078,-8.596619606,-1.196198702
5.72,2.266860962,-8.216072083,-0.499610782
5.73,1.757613182,-7.477404594,-0.009046078
5.74,1.291430354,-6.719599724,-0.188507915
5.75,1.034809589,-5.993794441,-0.660830617
5.76,0.861879587,-5.056212425,-1.289941311
5.77,0.70834446,-4.164099693,-1.561688066
5.78,0.521976173,-3.161055565,-1.696128607
5.79,0.480757356,-2.109092712,-1.907789111
5.8,-0.126401424,-0.833662033,-2.145997524
5.81,-1.259371519,0.417646408,-2.307666779
5.82,-1.277297974,0.4142313,-2.292958498
5.83,-3.036390781,2.460391045,-2.153735638
5.84,-3.323924541,3.199712753,-1.45779264
5.85,-3.317442417,3.197610855,-1.440289736
5.86,-3.267197847,4.06788826,0.278834343
5.87,-2.218708515,4.172466278,0.831160903
5.88,-2.229313374,4.171200752,0.835106492
5.89,-1.822577238,4.993297577,0.477539897
5.9,-1.833105803,4.991352081,0.48670876
5.91,-3.295922279,6.583953857,0.044975758
5.92,-2.132482052,7.192709923,0.898255587
5.93,0.613974392,7.405920982,3.182924271
5.94,2.897670746,7.45334053,5.135597229
5.95,3.557647943,7.277691841,5.744776726
5.96,3.487679958,6.946084976,6.138803482
5.97,2.193054914,5.918088913,6.60092926
5.98,2.186477661,5.915903091,6.615267754
5.99,2.462339878,4.170265198,6.41032505
6,3.069865704,2.679992676,5.734436035
6.01,2.909254074,1.62244606,4.744024277
6.02,2.895531654,1.302080154,1.520158529
6.03,2.906517982,1.30008316,1.54287529
6.04,2.331460476,1.264726639,1.518695354
6.05,2.33651042,1.268053055,1.492038131
6.06,0.754821777,1.234541893,2.773377419
6.07,0.75686872,1.239931107,2.730323315
6.08,0.885183573,0.653692246,1.504371047
6.09,0.869039953,0.658442497,1.461443782
6.1,1.384205818,0.323425293,0.60082686
6.11,1.097237587,-1.400828362,0.613751054
6.12,1.067424297,-1.392345428,0.54707396
6.13,0.625319541,-2.556170464,0.946420193
6.14,-0.246013522,-4.979766846,0.069581509
6.15,-0.182655692,-5.924909115,-0.547370672
6.16,-0.059025347,-6.964734077,-0.988986254
6.17,-0.022341102,-7.70402813,-1.198579073
6.18,0.117989689,-8.089712143,-1.540705919
6.19,0.400705934,-8.306921005,-1.948925376
6.2,0.513617992,-8.308404922,-1.859027147
6.21,0.650106132,-8.096563339,-1.397191882
6.22,0.889379859,-7.857291222,-0.969880402
6.23,0.785338879,-7.464689255,-0.528956771
6.24,0.838840008,-7.103410244,-0.364489079
6.25,0.867214382,-6.555884838,-0.453954935
6.26,0.91871661,-6.555093288,-0.438444614
6.27,0.539162219,-4.78318882,-1.546672344
6.28,0.593050718,-4.783423424,-1.520647764
6.29,0.660662532,-3.502200127,-2.180516243
6.3,0.223258853,-0.66836834,-2.248696804
6.31,0.298523605,0.57814312,-1.697830677
6.32,0.338499904,0.577547073,-1.669726849
6.33,0.230532706,2.015036583,-0.985936999
6.34,-0.861508608,3.219173431,-0.50115943
6.35,-1.232014656,4.164787292,-0.369593263
6.36,-1.269113421,4.616744041,-0.501981974
6.37,-0.693238258,4.94075489,-0.766212821
6.38,0.205153227,5.105927467,-1.214964151
6.39,0.156999588,4.775842667,-0.887988448
6.4,0.16057682,4.776743889,-0.890866637
6.41,-0.710029006,4.669787407,-1.159597158
6.42,-1.527425766,5.29979229,-1.159081697
6.43,1.057502508,7.033699989,1.279496789
6.44,1.007141709,7.117181778,3.363011837
6.45,0.156249642,6.59234333,6.476159096
6.46,-0.769845724,5.354073524,9.364287376
6.47,-0.860148072,3.229103088,11.71141529
6.48,0.399049401,1.226612091,11.9608202
6.49,0.363951206,1.225018501,11.94591236
6.5,2.198268652,-0.426407814,9.80821228
6.51,3.002023697,-0.829169273,6.075493813
6.52,1.154459238,-0.189221382,2.89960289
6.53,-1.266088128,2.057041168,0.899435997
6.54,-2.193911552,2.812577248,1.237244368
6.55,-3.42449522,3.450828552,1.862488389
6.56,-5.468639374,3.545080185,2.825309277
6.57,-4.49881649,2.76397419,2.562501907
6.58,-2.341859579,1.499423981,1.735337496
6.59,-0.843143106,0.160359383,0.887467504
6.6,-0.544527173,-1.043192863,0.752731562
6.61,-0.397839427,-2.066923141,0.85736537
6.62,0.076198161,-3.391055107,0.728914261
6.63,0.815126479,-4.813110352,0.301219225
6.64,1.480900288,-6.060465813,-0.128708959
6.65,2.56271553,-7.427193165,-0.829265356
6.66,3.206671953,-8.424945831,-1.637457013
6.67,3.162815571,-8.433341026,-1.611122489
6.68,2.948608637,-9.134326935,-2.236242533
6.69,2.506516457,-8.951929092,-1.741808176
6.7,1.902715683,-8.611907959,-1.034157634
6.71,1.511431575,-8.146335602,-0.966404319
6.72,1.500528216,-8.154968262,-0.922371626
6.73,1.441788197,-7.512767792,-1.214853406
6.74,1.222049236,-6.771801949,-1.424988151
6.75,0.432781845,-5.208729744,-1.149657249
6.76,-0.183859259,-4.243429184,-1.162059426
6.77,-0.740199506,-3.169894695,-1.566629291
6.78,-0.996556521,-1.949757576,-2.042155266
6.79,-1.008651495,-1.954539299,-2.014740467
6.8,-1.312235594,0.528621674,-2.53019619
6.81,-1.314416409,0.523350716,-2.494888544
6.82,-2.986177921,3.054373741,-2.161733627
6.83,-3.555559635,4.258221626,-1.089146852
6.84,-4.46318531,5.576540947,0.082416892
6.85,-5.257056713,6.579833031,1.218626976
6.86,-5.207543373,6.580457687,1.237940669
6.87,-4.703434944,6.801165581,2.497773647
6.88,-1.781919956,5.181375504,2.268646002
6.89,-1.934619546,4.758812904,-0.036501884
6.9,-3.075209141,5.216544151,-2.20127821
6.91,-3.06597805,5.208814621,-2.129074574
6.92,0.326716691,6.198914528,-1.056123018
6.93,3.184924364,5.516190529,1.915043592
6.94,4.85341692,4.722541809,4.563815594
6.95,5.201724052,3.879822731,7.037378311
6.96,5.558673859,2.789176941,8.585366249
6.97,5.548875809,2.785455704,8.622891426
6.98,6.297733307,1.96208477,8.72601223
6.99,6.797127247,1.408752441,6.52479744
7,6.580929279,1.566901207,3.323019028
7.01,3.024302483,2.773599625,-0.526298165
7.02,0.866457462,3.639533043,-0.672959209
7.03,-1.148401618,4.203073502,0.282780945
7.04,-2.232174397,4.155442238,0.935735643
7.05,-2.31357193,3.395324707,1.39864397
7.06,-1.06905067,2.328968048,1.336439848
7.07,-0.296543002,1.032185555,0.894197106
7.08,0.109734356,-0.513403893,0.574031889
7.09,-0.174605578,-2.123153687,0.278831661
7.1,-0.667452276,-3.684950352,-0.140851796
7.11,-0.889868021,-4.87126112,-0.648225188
7.12,-1.179840565,-5.988855839,-1.043916941
7.13,-1.288482428,-6.870319366,-1.164723396
7.14,-1.013326526,-7.416919708,-1.170861363
7.15,-0.557606936,-7.874956131,-0.983456135
7.16,-0.110197574,-8.138674736,-0.421061099
7.17,0.271489501,-8.298991203,-0.084901571
7.18,0.613054812,-8.378211021,0.08912921
7.19,0.661521614,-8.376098633,0.0941993
7.2,1.909823179,-8.062747002,0.015349984
7.21,2.509298086,-7.653254509,0.219564557
7.22,2.564647675,-7.650286674,0.22809267
7.23,2.776916027,-7.15133667,0.149612069
7.24,2.471935511,-6.124958515,-0.570238709
7.25,1.032820702,-2.949713707,-2.559942722
7.26,0.457272232,-1.065932274,-3.296796322
7.27,-0.14975214,0.397702217,-3.276567459
7.28,-0.10811162,0.402072907,-3.273671627
7.29,-1.545349002,3.181353569,-1.102004766
7.3,-1.616913199,4.534243584,-0.504417718
7.31,-0.947178721,5.460737228,-0.190478563
7.32,-0.086705327,5.72297287,0.095627785
7.33,0.6048612,5.477024078,0.229479194
7.34,0.606374204,5.479903221,0.206482887
7.35,-0.470958233,4.546675682,-0.921745956
7.36,-1.240877628,4.051596642,-1.820643187
7.37,-1.467692018,4.010978699,-1.85156703
7.38,-0.173444271,4.360678673,-0.236738384
7.39,0.232468486,4.634907722,1.909703016
7.4,0.742338836,4.683385849,3.376925945
7.41,0.16798532,4.393601418,5.712241173
7.42,-0.789937615,3.580832481,8.465760231
7.43,-1.171802402,2.74922657,10.47115803
7.44,-1.105738521,1.645001411,11.2763958
7.45,0.906471133,0.551503182,10.87292767
7.46,2.459093809,-0.307574272,9.005727768
7.47,2.405640602,-0.315649033,9.007861137
7.48,1.368882179,0.500968933,1.829679489
7.49,-1.499786496,1.977824211,-0.883191347
7.5,-4.611951351,3.225662231,-1.228724599
7.51,-5.626740932,4.281022072,-0.516961157
7.52,-5.643460751,4.288066864,-0.576758921
7.53,-4.946586609,2.84946537,0.662201405
7.54,-2.398365021,2.344353676,1.265899539
7.55,-0.616886973,0.954451561,0.862566114
7.56,0.120576859,0.344125748,0.924759269
7.57,-2.400143862,-0.993427277,2.452021122
7.58,-2.370397806,-0.986197472,2.432723045
7.59,-3.210504293,-2.236568928,3.253937721
7.6,-2.024500847,-4.0900774,1.936283231
7.61,1.37856245,-6.826273441,-2.440868855
7.62,3.010017633,-8.029270172,-3.821374416
7.63,3.656050682,-8.844662666,-3.925917387
7.64,3.529305935,-9.293647766,-3.529930592
7.65,3.486720085,-9.303800583,-3.496181965
7.66,2.790277481,-9.154369354,-1.788865805
7.67,2.959632158,-8.621772766,-1.345984697
7.68,2.933397055,-8.625291824,-1.340031385
7.69,2.601100683,-7.853627205,-1.453422785
7.7,1.675061941,-5.867697239,-0.615348041
7.71,1.401040912,-4.649859905,0.083857417
7.72,1.390913248,-4.652863026,0.097410083
7.73,-0.213647246,-2.026954174,0.423927188
7.74,-1.080574274,-0.776244164,-0.537301838
7.75,-1.606545448,0.378949165,-1.968400478
7.76,-1.525754571,1.40371418,-3.496735334
7.77,-1.458922148,2.630531311,-4.698913097
7.78,-1.463683844,2.620836258,-4.62819767
7.79,-1.484812975,4.727174759,-2.442204475
7.8,-1.230204582,5.312857628,0.903311849
7.81,-1.447767496,5.432342529,3.74450016
7.82,-1.967861891,5.086787224,4.619951725
7.83,-2.348029613,4.754274368,3.37471199
7.84,-2.807862282,4.356739044,0.937400937
7.85,-4.153444767,3.844189644,-1.720322609
7.86,-4.155810356,3.83743,-1.662297726
7.87,-4.936737061,3.894515991,-5.017256737
7.88,-4.912543774,3.886348724,-4.911268711
7.89,-0.606946588,4.955410957,-3.557453156
7.9,4.24972105,3.952439308,2.856296062
7.91,6.083374023,3.897057533,6.085471153
7.92,8.5882864,3.954712868,7.617461681
7.93,10.32100201,4.026269913,7.485962868
7.94,10.26943111,4.022028923,7.495550156
7.95,5.266331673,4.362640381,6.138987064
7.96,5.299981594,4.364177704,6.153222084
7.97,1.454414725,4.437004089,5.932771206
7.98,-0.276144445,2.578612328,4.365353584
7.99,0.109171212,1.766709328,2.360878944
8,0.756636918,1.268019676,0.398879468
8.01,0.456533134,0.887728691,-0.662382484
8.02,-1.118707895,0.679419518,-0.919296503
8.03,-2.819840431,0.23752594,-0.892933488
8.04,-4.23901701,-0.325139046,-0.55685699
8.05,-4.429837227,-1.287125587,-0.137140751
8.06,-4.408199787,-1.279483795,-0.196692467
8.07,-2.577363014,-3.985203743,-0.226141274
8.08,-1.573170424,-5.32229805,-0.262491107
8.09,-1.524055719,-5.317112923,-0.279028416
8.1,-0.30206722,-6.98785305,-0.504434109
8.11,-0.247674227,-6.982543945,-0.514106154
8.12,0.656968951,-7.616383553,-0.787032843
8.13,1.281960368,-7.917432785,-0.820484459
8.14,1.520408273,-7.986682892,-0.566470563
8.15,1.567579746,-7.207819939,-0.020904422
8.16,1.598822355,-6.854846954,0.031086802
8.17,1.456771851,-6.355861187,-0.488825798
8.18,1.351609111,-5.664027691,-1.20927906
8.19,1.711766005,-4.553952217,-2.307344675
8.2,1.549530387,-3.322223186,-2.500664949
8.21,1.533570528,-2.283090115,-1.975049496
8.22,1.566274881,-2.276548862,-1.994322896
8.23,1.549215794,0.050499916,-0.022892952
8.24,1.484453917,1.00634861,0.41371572
8.25,1.373531103,1.974523544,0.313803434
8.26,0.681122243,2.896421432,-0.354619503
8.27,-0.236590266,3.776612282,-1.333086729
8.28,-0.979670763,4.511070251,-2.125182629
8.29,-0.522699118,4.81816864,-2.747447252
8.3,0.472947836,4.618562698,-2.488661766
8.31,0.466801643,3.95647049,-1.544572592
8.32,-0.564818025,3.113777161,-0.465420008
8.33,-1.545824766,2.56770134,0.263795018
8.34,-1.068750739,2.965288162,0.534071684
8.35,1.884068608,3.738075256,1.437600374
8.36,1.885562301,3.737685204,1.441709518
8.37,2.173619509,3.237766266,2.983973742
8.38,-0.261559963,2.952699661,7.411447525
8.39,-1.416289926,2.81748867,9.38576889
8.4,-1.404095531,2.829848289,9.315338135
8.41,-0.797390103,1.81403923,10.88396454
8.42,-0.817386627,1.818228722,10.84359455
8.43,0.393753529,1.360352516,9.246442795
8.44,1.051739335,1.818759918,5.902122021
8.45,0.79810071,2.805674553,2.48664403
8.46,-1.497837543,5.275935173,-1.488968253
8.47,-2.718199015,5.438085556,-0.503700972
8.48,-3.76472497,5.44931221,1.37592721
8.49,-4.040110588,4.324319839,3.189237595
8.5,-4.053105831,4.329317093,3.152613401
8.51,-2.335185051,1.421220779,3.962171316
8.52,-3.016021729,0.215573311,2.355511189
8.53,-3.008172989,0.213709831,2.370853186
8.54,-3.140170813,-1.117771149,0.691124201
8.55,-1.277179599,-4.118188858,-1.5249753
8.56,0.445682883,-5.676177025,-1.870628476
8.57,0.383855999,-5.684332848,-1.860097766
8.58,2.253790617,-8.209723473,-1.440522194
8.59,3.318750143,-9.105508804,-1.156199217
8.6,4.037165165,-9.575597763,-1.45115304
8.61,3.613018036,-9.605183601,-1.669757247
8.62,2.492348433,-9.108131409,-1.760364056
8.63,2.455791473,-9.115146637,-1.730336666
8.64,0.701663196,-7.56829071,-2.554713488
8.65,0.392882943,-6.734975815,-2.946739197
8.66,0.533532023,-5.927617073,-2.966684341
8.67,0.511731088,-5.933263779,-2.935696363
8.68,1.177567244,-4.112823963,-2.002725363
8.69,0.70953393,-2.988519669,-1.611954808
8.7,0.091910571,-1.612814903,-1.409803391
8.71,-0.495374799,-0.464574814,-1.458872914
8.72,-0.885974467,0.895581245,-1.623474956
8.73,-1.625980496,1.909985542,-1.709495902
8.74,-2.239313364,2.556769371,-1.768368006
8.75,-2.217895508,2.550697327,-1.70759058
8.76,-2.938098907,3.65644455,-1.857014179
8.77,-3.39116478,4.476063728,-1.868367434
8.78,-2.440192223,4.849117279,-0.334199607
8.79,-2.439036369,4.847265244,-0.314320624
8.8,-0.995539427,3.213702202,1.528999329
8.81,-1.972889185,3.474250793,0.244586349
8.82,-2.963309765,4.79216671,-2.137890339
8.83,-1.146397352,6.304918289,-2.785769939
8.84,0.420194387,6.880805969,-1.157066822
8.85,1.083063006,6.728145599,2.005580187
8.86,1.737601519,5.980238914,5.291929722
8.87,2.724554539,4.938467979,7.579345703
8.88,2.711923599,4.940059662,7.55638361
8.89,3.554633141,3.438971519,8.858368874
8.9,5.350008011,0.841828346,4.588400841
8.91,5.329200745,0.837712288,4.624069214
8.92,4.533345699,1.791702271,-1.943154573
8.93,4.520761967,1.788675308,-1.913225889
8.94,3.158900976,2.685276031,-2.95004797
8.95,0.124643937,4.364825249,-0.370740831
8.96,-1.057399392,4.648812294,1.784519911
8.97,-1.020225763,4.338964462,3.106225967
8.98,-0.073079497,3.428685188,3.423991203
8.99,1.510683179,2.151736259,3.109822035
9,2.296905279,0.649226189,2.528399944
9.01,2.064668417,-1.133788109,1.497177839
9.02,2.022686005,-1.129579544,1.457269669
9.03,0.015506715,-4.117217541,-0.92595613
9.04,-1.19584322,-5.131620884,-2.208260298
9.05,-1.699191809,-6.136123657,-3.072119236
9.06,-1.635544419,-7.021673679,-3.081914902
9.07,-1.497181296,-7.613928795,-2.50949955
9.08,-0.696285367,-8.214766502,-1.521266937
9.09,0.340000749,-8.520216942,-0.634748876
9.1,0.919056416,-8.762209892,0.002255321
9.11,1.703917265,-8.968084335,0.382631302
9.12,2.347188473,-8.752799988,0.541795731
9.13,2.394336462,-8.750983238,0.54526782
9.14,2.199915409,-7.643006802,0.254579425
9.15,2.260474205,-7.641076565,0.26785624
9.16,1.860019565,-6.465930939,-0.494339705
9.17,1.419121504,-4.057752132,-2.360954762
9.18,1.510991216,-2.499399662,-3.159379005
9.19,0.894871652,-1.045121193,-3.304935455
9.2,0.948658824,-1.040260315,-3.304860592
9.21,-0.974023163,2.110253334,-2.66459322
9.22,-0.947880983,2.110369682,-2.64282918
9.23,-2.02068615,3.68019104,-2.011506081
9.24,-2.460438013,4.627588272,-1.169937968
9.25,-1.505140185,5.021221161,-0.343546033
9.26,0.318065286,4.958814621,-0.024743199
9.27,0.921102345,4.634984016,-0.311383426
9.28,0.991231442,4.473855019,-0.828327119
9.29,0.244225562,4.370589256,-1.244387865
9.3,-0.875868797,4.214812279,-1.678669095
9.31,-0.714542508,4.291427612,-0.710852742
9.32,0.437155187,4.495614052,0.5612849
9.33,0.562259197,4.298867226,1.740531445
9.34,0.584379196,4.303302765,1.721590042
9.35,-1.448329449,3.450974464,6.416485786
9.36,-0.637890101,2.52746582,8.784532547
9.37,0.810331106,1.323470116,10.35828876
9.38,2.381432533,-0.235658646,10.81569576
9.39,3.545979023,-0.292394638,9.370075226
9.4,2.60601902,0.170385361,5.996273994
9.41,0.995252729,1.801353455,1.998751521
9.42,-0.599484265,3.610785484,-0.81903863
9.43,-1.931305766,5.050499916,-1.552337766
9.44,-3.874088287,6.220131874,-0.915363014
9.45,-5.132907391,6.779396057,0.618651629
9.46,-4.696259499,6.122885704,2.090611935
9.47,-4.08171463,4.675403595,3.56802845
9.48,-2.484178782,2.464911461,4.169072628
9.49,-0.908338964,0.401306152,3.068558693
9.5,-0.218149781,-1.498363495,1.636453986
9.51,0.830322146,-3.248819828,0.15980947
9.52,1.903659344,-4.960693359,-1.151832223
9.53,2.268571377,-6.178138733,-1.670323968
9.54,2.222027779,-6.188578606,-1.620005369
9.55,2.267657518,-8.120612144,-1.656613708
9.56,2.224673033,-8.128695488,-1.614979863
9.57,1.707681894,-8.985416412,-1.239491343
9.58,1.53478837,-9.065847397,-1.350014329
9.59,1.382502794,-9.065149307,-1.557467699
9.6,1.370440245,-9.071433067,-1.511520624
9.61,1.374009132,-8.833302498,-1.994990945
9.62,0.384096861,-7.813969612,-2.039566517
9.63,-0.299788594,-7.31063652,-1.75986886
9.64,-0.929700911,-6.485677719,-1.772960663
9.65,-1.17531383,-5.456962585,-2.315877438
9.66,-1.17950654,-5.460169792,-2.286127567
9.67,-0.752758861,-2.951487541,-3.951370716
9.68,-0.335394114,-0.961684227,-4.156716824
9.69,-0.830721617,1.00021553,-3.217091799
9.7,-1.615190387,2.398971558,-1.784512281
9.71,-2.988833189,3.871966362,-0.214375854
9.72,-3.857187986,4.968309402,0.829181731
9.73,-4.656630516,5.473720551,0.81187731
9.74,-4.229328156,5.54042244,0.367613614
9.75,-4.19266367,5.53911972,0.412752748
9.76,-0.853464186,3.310100555,0.924557805
9.77,-1.197467089,2.067528725,0.088916123
9.78,-2.346408606,1.842360497,-2.355144024
9.79,-3.040008783,2.986387253,-4.523211479
9.8,-1.24614501,4.209150314,-4.008230686
9.81,1.322809935,4.632457733,-0.595655382
9.82,1.326950788,4.631183624,-0.560292363
9.83,4.877615929,4.783643723,6.688776493
9.84,6.657573223,5.341070175,9.116575241
9.85,7.477228165,5.519781113,9.327157974
9.86,7.155220985,5.753225327,7.535648346
9.87,4.875375748,6.245304108,4.204330444
9.88,4.913650036,6.245240211,4.27937746
9.89,2.130002975,6.574054718,1.626083612
9.9,0.66375345,5.071024895,-0.235530615
9.91,0.659669399,5.070554733,-0.220276922
9.92,1.913791418,3.22311306,-0.263779968
9.93,2.054457664,2.670761108,-0.203003213
9.94,1.523324251,2.113761902,0.135232866
9.95,0.776010692,1.619822502,0.918923855
9.96,-0.412679106,0.883096695,1.773290634
9.97,-1.701904416,-0.390658379,2.597004414
9.98,-1.719012737,-0.38700676,2.510500908
9.99,-2.417549133,-1.939508915,2.840667725
10,-2.392120123,-5.189892292,0.815288246
10.01,-2.495266199,-6.494372368,-0.747325063
10.02,-2.53400445,-7.49764061,-1.773245573
10.03,-2.491902113,-7.495241165,-1.780960679
10.04,-0.943138838,-8.953030586,-2.219257832
10.05,0.519187093,-9.57930851,-1.62238121
10.06,1.652727127,-9.892975807,-0.894358158
10.07,2.224451542,-9.712913513,-0.168265581
10.08,1.478666067,-9.184643745,0.52109915
10.09,1.528381705,-9.179777145,0.5024997
10.1,1.736594796,-7.527850151,-0.305524051
10.11,1.79291904,-7.523715973,-0.302046716
10.12,2.543244362,-4.639058113,-2.411350965
10.13,2.606746912,-4.633788109,-2.405286551
10.14,1.918376446,-1.409062386,-2.277785063
10.15,1.426493049,0.227455139,-1.349552989
10.16,1.088113666,1.624965668,-0.748458266
10.17,0.66490382,3.119894028,-0.14970243
10.18,-0.206178665,4.277809143,0.046611547
10.19,-0.204784274,4.281723976,0.006800354
10.2,-1.204219699,5.755602837,-0.421284318
10.21,-0.351742864,5.416315079,-0.268437445
10.22,-0.378919363,5.418251038,-0.314570248
10.23,-0.489519477,4.023480415,-1.204839468
10.24,-0.706078291,3.468232155,-2.151303291
10.25,-0.81846565,2.93260479,-2.560568571
10.26,-0.551691115,2.748261452,-1.702140093
10.27,1.019104958,3.397544861,0.511129737
10.28,2.198048592,4.127684593,2.819293261
10.29,1.660050273,3.876853943,5.051846981
10.3,-0.087471843,3.808919907,7.496530056
10.31,-0.840967059,3.418699265,9.772148132
10.32,-1.035626054,3.061045647,10.76780987
10.33,-1.038379788,3.069346428,10.70597172
10.34,1.562989473,1.877193451,8.499139786
10.35,1.531299114,1.874964714,8.492306709
10.36,0.978956997,2.61915493,2.660233259
10.37,-0.888650537,3.642974854,1.158599734
10.38,-3.181585789,4.565651894,1.173754811
10.39,-5.22005558,4.638680458,1.066196799
10.4,-5.207030773,4.647530556,1.018549562
10.41,-5.790320396,4.664820671,1.215160847
10.42,-3.111107111,2.704686165,1.745116949
10.43,-1.580343604,1.507799149,2.651497841
10.44,-1.036675096,-0.088033676,3.38022089
10.45,-0.659816504,-1.457526207,2.948467731
10.46,-0.355651259,-3.34493351,1.558101773
10.47,0.423825026,-4.824524403,-0.201576471
10.48,1.213349938,-6.033648491,-2.005412102
10.49,1.478446722,-7.364307404,-3.358854294
10.5,2.702939749,-8.566492081,-3.580265045
10.51,3.578351974,-9.192188263,-3.886024952
10.52,3.495522022,-9.201984406,-3.847402811
10.53,3.027654171,-9.448763847,-3.807595253
10.54,1.223343849,-8.626534462,-1.72153163
10.55,0.483177871,-8.045075417,-1.128483057
10.56,0.469079495,-8.047914505,-1.113157749
10.57,-0.429477334,-6.542941093,-0.832747281
10.58,-0.262006402,-5.802716255,-0.97944212
10.59,-0.670358837,-5.020177364,-1.037009478
10.6,-0.67728281,-5.025847912,-1.001890421
10.61,-1.133492708,-2.98700428,-1.967623472
10.62,-0.724293947,-1.374842644,-3.091941595
10.63,-0.513800383,0.340468407,-3.517168283
10.64,-1.064025879,1.97136116,-2.996364117
10.65,-2.18274951,3.651810646,-2.260258675
10.66,-3.311914682,5.228281021,-1.563460112
10.67,-2.941795111,6.291324615,-0.482836962
10.68,-2.475493431,6.716856956,0.88354373
10.69,-2.682306528,6.29192543,2.428116322
10.7,-2.853487492,5.09783268,2.799271107
10.71,-3.198179483,3.900840759,1.402498245
10.72,-2.871795893,3.025165558,-1.359508872
10.73,-2.839645624,3.269803047,-4.295319557
10.74,-0.967396557,5.006210327,-4.664338589
10.75,2.36535573,5.949388504,-1.468310475
10.76,3.482222557,5.125247955,2.857149601
10.77,2.508462906,4.085065842,6.756843567
10.78,2.01486516,3.242082596,8.886021614
10.79,4.219206333,2.796437263,8.87771225
10.8,6.421285629,2.600615501,6.487852097
10.81,6.643277168,2.687483788,3.867401838
10.82,5.003798008,2.888998032,1.257807493
10.83,2.386387587,3.006505013,-0.537949264
10.84,0.269950926,3.106687546,-1.053305626
10.85,-0.631522417,2.858767509,-0.738654733
10.86,-0.648707628,2.861150742,-0.778907299
10.87,0.675583959,1.653244972,0.655594289
10.88,0.618160248,1.658555984,0.576432765
10.89,1.10522747,1.387135506,0.71180439
10.9,0.530364275,0.805492401,1.190086603
10.91,0.480188906,0.814032555,1.109244704
10.92,0.13074097,0.085635185,1.393548846
10.93,-0.788274169,-0.928621292,1.444381118
10.94,-2.20597291,-2.339376926,0.535872459
10.95,-2.544671535,-5.088754654,-1.983141541
10.96,-2.151888847,-6.362775803,-2.690019369
10.97,-1.833064198,-7.297932625,-2.739809513
10.98,-1.791841984,-7.299973488,-2.723717213
10.99,-0.655983269,-8.247529984,-0.418061972
11,-0.461216331,-8.491685867,0.555069327
11.01,-0.415024161,-8.491379738,0.559300661
11.02,1.100950956,-8.28601265,0.544574499
11.03,1.693561792,-8.128744125,0.37224865
11.04,1.942327023,-7.664941311,-0.116793513
11.05,1.8995924,-6.688547134,-1.122027159
11.06,1.947858572,-6.688482285,-1.106252432
11.07,2.085460901,-5.47369051,-1.676932812
11.08,2.108500004,-4.06864357,-2.201858997
11.09,1.792336345,-2.381744385,-2.12092638
11.1,1.052446961,-0.617108345,-1.45341599
11.11,-1.144625664,2.407029152,-0.087322593
11.12,-1.473945379,3.822980881,-0.828906596
11.13,-1.46137619,3.824242592,-0.832237423
11.14,-1.9557724,5.171914101,-2.904577255
11.15,-1.207447529,6.008509636,-5.217533588
11.16,0.680998325,5.593258858,-3.848374844
11.17,0.887593865,5.031124115,-2.228803635
11.18,0.245873153,4.427704811,-0.759182453
11.19,0.265634358,4.426481247,-0.734431148
11.2,-0.700560391,3.530520439,0.037032664
11.21,-0.498260081,2.788302422,-0.049077272
11.22,0.237368584,3.019530296,0.142941535
11.23,-0.418947637,3.320790291,1.677386761
11.24,-0.746009231,3.077746391,5.027137756
11.25,-0.770447969,3.032410622,9.766845703
11.26,-0.060748696,1.819451332,13.48033905
11.27,1.601138115,1.029061317,15.1513176
11.28,1.570985794,1.042651176,15.03371048
11.29,3.794061899,1.87005043,9.364024162
11.3,1.933758974,3.437130928,4.953343868
11.31,-0.899950206,5.53676033,1.089062572
11.32,-3.893474579,7.410859108,-0.851556063
11.33,-5.64178896,7.979640007,-0.728514373
11.34,-5.807104588,7.639260292,0.740976095
11.35,-5.198101997,6.309382439,3.144034147
11.36,-4.338161469,4.050214767,4.536888123
11.37,-3.215655088,2.22871685,4.295674801
11.38,-2.238506794,0.174595833,2.361191988
11.39,-1.710186601,-1.681283474,0.189208031
11.4,-1.756904125,-1.685938358,0.198693991
11.41,-0.891100347,-3.164810658,-1.469744086
11.42,0.352452159,-4.744322777,-2.187785625
11.43,1.344987154,-7.699454784,-1.569376469
11.44,1.593883157,-8.758831024,-0.913771391
11.45,1.560845733,-8.761762619,-0.904207945
11.46,1.957633853,-9.456158638,-0.381259441
11.47,2.027589321,-9.616007805,-0.061000943
11.48,1.902484655,-9.313691139,-0.377661943
11.49,1.619097471,-8.724561691,-1.168145061
11.5,1.361754775,-7.977742672,-1.963911533
11.51,0.922560513,-6.94278717,-2.485414505
11.52,0.923183322,-6.947435379,-2.44811821
11.53,0.407583416,-4.797430038,-1.816157579
11.54,0.3053734,-3.668127537,-1.613204598
11.55,0.363686323,-2.228893757,-1.410834074
11.56,0.345890254,-2.227221012,-1.428871036
11.57,0.115690842,-0.915317535,-1.077198625
11.58,-0.878858328,1.411289215,-0.215741158
11.59,-0.88372016,1.413949013,-0.237349749
11.6,-2.776281118,3.384929657,0.671660662
11.61,-3.625210047,4.441114426,0.693869233
11.62,-4.130699158,5.45816803,0.396037817
11.63,-4.396246433,5.878196716,0.138740659
11.64,-4.83368206,5.782968521,-0.175480962
11.65,-4.681638718,5.151004791,-0.649193287
11.66,-4.073338032,4.751871109,-1.015416026
11.67,-2.120131493,4.978204727,-2.158726692
11.68,-0.311421275,5.513872147,-1.454102039
11.69,1.702128887,5.891402245,1.972981453
11.7,2.522736788,5.466497421,4.762769699
11.71,3.961393356,4.465164185,6.980137348
11.72,6.931488514,3.343073845,8.268400192
11.73,8.877555847,2.316599846,8.435279846
11.74,9.150938988,1.746931076,7.281031132
11.75,7.61532402,2.228110313,5.110247612
11.76,5.364902496,2.834282875,3.587207079
11.77,2.330048561,3.456671715,2.477251291
11.78,0.269158065,3.679748535,1.638710976
11.79,0.296217382,3.681753159,1.630288601
11.8,-1.459342241,3.555350304,0.562417686
11.81,-1.482226372,3.558923721,0.513126671
11.82,-0.934943557,2.711235046,-0.046020329
11.83,-0.192218661,1.407235146,0.910842896
11.84,-0.20977965,-0.134712219,1.874722958
11.85,-0.262145221,-0.126579285,1.797828913
11.86,-1.43065691,-2.145894051,2.283751011
11.87,-2.573978662,-5.212389469,0.06734395
11.88,-2.48043561,-6.356381416,-2.050107479
11.89,-2.461939573,-6.356681824,-2.045648098
11.9,-1.381062865,-7.845396519,-3.014003754
11.91,-1.333932519,-7.847134113,-2.993159294
11.92,0.486879468,-8.891368866,-1.071287394
11.93,1.591737747,-9.225404739,0.063125491
11.94,2.329250813,-9.137852669,0.822402239
11.95,2.455472469,-8.540234566,0.906929016
11.96,1.934062481,-7.701010704,0.39925611
11.97,1.487353325,-6.502725601,-0.585780263
11.98,1.28758502,-5.376321316,-1.426519156
11.99,1.351939917,-5.374576092,-1.408720374
12,1.111514091,-3.034921169,-2.813671589
12.01,0.349012226,-1.735135078,-2.892073631
12.02,-0.392464042,-0.605834007,-2.587030411
12.03,-0.345514953,-0.601336479,-2.589378595
12.04,-0.943374872,0.696978569,-1.91407752
12.05,-0.920225263,2.927185059,-1.085855365
12.06,-0.381150961,3.632575035,-0.63087219
12.07,0.485579014,4.079519272,-0.309595406
12.08,0.505190611,4.0834589,-0.323373139
12.09,0.479569733,4.582606316,-0.902994812
12.1,-0.112481117,4.46398735,-1.239421129
12.11,-0.614920139,4.22853756,-1.510490894
12.12,-0.637861967,3.890212059,-1.426414967
12.13,-0.624740362,3.894299507,-1.44473207
12.14,-0.489134908,3.444095612,-0.367516398
12.15,-0.6655761,3.443248749,1.897070765
12.16,0.804721713,3.598666191,4.126197815
12.17,0.965307593,3.395202637,7.571424484
12.18,0.306715071,3.422221184,8.4269104
12.19,-0.333919287,3.380988121,8.959226608
12.2,-0.30463469,3.388491631,8.936735153
12.21,0.351042032,2.680603027,9.284140587
12.22,0.55323571,2.419823647,7.505322933
12.23,0.550605953,2.411705017,7.554709911
12.24,0.203904867,2.655759811,4.946444035
12.25,-0.757676721,3.322332382,1.926148176
12.26,-1.799316168,3.549887657,1.59408915
12.27,-1.814833283,3.553229332,1.558727264
12.28,-2.791909933,3.602185249,1.481666207
12.29,-3.302305698,3.185406685,1.549459696
12.3,-2.836775064,1.706057549,1.770584941
12.31,-2.109579325,0.65602684,1.569535732
12.32,-2.144224644,0.658798218,1.531723022
12.33,-0.465718985,-2.018202782,1.241024613
12.34,0.287962258,-3.535705566,0.753443122
12.35,0.236400127,-3.542383194,0.760485768
12.36,1.465028167,-6.342815399,-0.810251057
12.37,1.957654953,-7.66673851,-1.411477208
12.38,2.368670702,-8.750774384,-1.767442346
12.39,2.518424034,-9.278311729,-1.977264881
12.4,2.461730719,-9.28674221,-1.952767372
12.41,2.047780037,-9.277581215,-1.735818386
12.42,2.022531033,-9.286273956,-1.69359684
12.43,0.783672571,-7.7070961,-2.020441055
12.44,0.784248352,-7.71500206,-1.969950914
12.45,-0.344400823,-5.610320568,-2.166419744
12.46,-0.359269083,-4.390967369,-2.221899986
12.47,-0.155600846,-3.240470409,-2.045969963
12.48,-0.162219405,-3.245405674,-2.013247252
12.49,0.88967371,-1.566224098,-1.405708313
12.5,1.018424749,-0.547694206,-0.994505644
12.51,0.255442649,0.298295021,-0.213540196
12.52,-0.583472133,1.060009003,0.173123479
12.53,-1.633624077,1.889779091,-0.084256768
12.54,-2.11093235,2.745681763,-0.800440669
12.55,-2.552293301,3.651041031,-1.227984428
12.56,-2.820986271,4.41245842,-0.809100747
12.57,-2.918633938,4.707704544,0.512175918
12.58,-3.334153175,4.56554985,0.95899725
12.59,-3.644183636,4.11448288,0.134790659
12.6,-3.973325014,3.691102982,-1.13877058
12.61,-4.311546803,3.441381454,-1.988137007
12.62,-3.230187416,3.894695282,-1.863852859
12.63,-3.219059944,3.890467644,-1.814764142
12.64,0.077045381,4.530942917,0.474294007
12.65,3.384852886,3.986610413,4.481513023
12.66,5.724888802,3.738554001,5.483224392
12.67,5.719337463,3.73479557,5.523185253
12.68,8.900665283,3.349194527,7.844233513
12.69,7.063631535,3.486807823,7.217148304
12.7,4.238381386,4.171253204,4.89880085
12.71,1.727522135,4.509204865,2.91168642
12.72,0.078611434,4.428961754,1.660995722
12.73,-0.362962008,3.987469673,0.576888323
12.74,0.058942318,3.498922348,-0.352702469
12.75,0.102210641,2.911128998,-0.634254336
12.76,0.20698452,2.220143318,-0.65723449
12.77,0.111465693,1.302283287,-0.399518311
12.78,0.04626596,0.363865852,0.028839827
12.79,-0.349172115,-0.656787872,0.409405708
12.8,-1.080038071,-1.834431171,0.618166089
12.81,-1.112364173,-1.831296444,0.558457196
12.82,-1.18645072,-3.107102871,0.231218815
12.83,-0.397370279,-5.377154827,-0.960949421
12.84,-0.098194361,-6.258654594,-0.96718967
12.85,-0.194532991,-6.794965744,-0.70909071
12.86,-0.381585419,-7.07487154,-0.376521707
12.87,-0.425764501,-7.292442322,-0.03652966
12.88,-0.075022876,-7.406847954,0.238665223
12.89,0.457437187,-7.552576065,0.323265553
12.9,1.207113862,-7.464584351,0.02658689
12.91,1.633372664,-7.17586422,-0.36032486
12.92,1.941534281,-6.848394394,-0.478464186
12.93,2.130399704,-6.264008522,-0.494713962
12.94,1.7622087,-5.506602287,-0.857585788
12.95,1.807056785,-5.503038406,-0.852586985
12.96,1.599448442,-3.562168598,-1.673657417
12.97,1.559477568,-2.473241806,-1.90747273
12.98,1.598820686,-2.467925072,-1.919022202
12.99,1.621562004,-1.384699821,-1.592955589
13,1.48276484,-0.056565285,-0.797152877
13.01,0.957812429,1.234607697,0.05295217
13.02,-1.443894148,3.500941277,-0.515028417
13.03,-2.490504265,4.325899124,-1.644762993
13.04,-2.43359828,4.737786293,-2.708065987
13.05,-2.423005104,4.738353729,-2.701978207
13.06,-1.345363975,4.744577408,-3.152746201
13.07,-0.125451446,4.675779343,-3.234366894
13.08,-0.824432135,4.745159149,-1.117217183
13.09,-1.330694675,5.196954727,-0.112771511
13.1,-1.315030336,5.199337006,-0.117401481
13.11,-0.052462459,5.340802193,1.537024736
13.12,-0.472609878,4.837375641,2.446235895
13.13,-0.920036554,4.328425407,4.38997221
13.14,-0.877267242,3.332777023,7.231684685
13.15,-0.099227667,1.920796394,9.531675339
13.16,1.424212337,0.34577179,11.11794949
13.17,1.405384898,0.351984978,11.05388165
13.18,3.157119036,-0.670902252,10.88256264
13.19,3.369688034,-0.554286957,8.998293877
13.2,2.147414684,0.139475822,5.33298254
13.21,0.998270631,1.590343475,2.027560234
13.22,-2.024081469,4.986931801,-0.470300376
13.23,-5.128317833,6.284944534,0.591659546
13.24,-6.942020893,6.421581268,2.323735714
13.25,-6.935913086,6.429553032,2.278132677
13.26,-5.877839088,3.568018913,3.475291252
13.27,-2.901388168,1.427370071,1.225220919
13.28,-1.381407499,0.004681587,-0.625145197
13.29,-1.432024837,-0.001937866,-0.617603779
13.3,-0.280127645,-2.818913937,-0.545279265
13.31,-0.317267001,-2.825395107,-0.527318955
13.32,0.421624482,-4.118628025,-0.533413053
13.33,2.171125889,-6.363327503,-0.871818483
13.34,2.450018883,-7.230148315,-1.001701117
13.35,2.540081263,-7.838896275,-0.945793212
13.36,2.617473364,-8.346342087,-0.519203365
13.37,2.521692991,-8.556812286,-0.015870929
13.38,2.346364737,-8.475199699,0.080139518
13.39,1.901889205,-8.082471848,-0.266257167
13.4,1.159368992,-7.471337318,-0.731299996
13.41,0.728213251,-6.845227242,-0.99329412
13.42,0.266001314,-6.172877312,-0.973819554
13.43,0.259072095,-6.177283287,-0.937057316
13.44,-0.599517822,-5.07519865,-0.693462849
13.45,-0.782022297,-4.401822567,-1.01071763
13.46,-0.990985334,-3.666482449,-1.565307379
13.47,-0.984046042,-2.720552444,-2.300775528
13.48,-0.834449589,-1.747909546,-2.825637341
13.49,-0.83659035,-1.751657486,-2.781997681
13.5,-0.722102881,0.543103218,-2.640294075
13.51,-0.409141958,1.510087013,-2.114477634
13.52,-0.35451752,2.774819374,-1.188747168
13.53,-1.493644238,4.007088661,-0.076055527
13.54,-3.168461323,5.236514091,0.352060974
13.55,-3.129186153,5.238204002,0.367108345
13.56,-4.389988422,5.883869171,0.524783492
13.57,-3.717921972,4.273697853,0.935318291
13.58,-3.712183952,4.273753166,0.941550493
13.59,-3.05008769,3.446473122,-0.61130625
13.6,-3.93546772,3.363690376,-3.229063988
13.61,-2.946123838,4.176715851,-3.397494555
13.62,-0.679425418,5.109230995,-2.184547901
13.63,-0.672570407,5.107730865,-2.1356287
13.64,2.573814869,4.977115631,2.984352827
13.65,2.946541548,4.38672924,5.544112206
13.66,2.944544315,4.385742188,5.569624424
13.67,3.848903894,2.260894775,7.041520119
13.68,5.06775856,1.514134407,5.584052563
13.69,5.863547325,0.752026558,3.147911787
13.7,5.682141304,0.542560577,0.892573774
13.71,4.493103027,0.997085571,-0.603964806
13.72,4.459597111,0.994999886,-0.604105115
13.73,2.283797979,2.231342316,-0.217752889
13.74,2.247848034,2.230387688,-0.259245157
13.75,1.870037794,2.347248077,0.83602792
13.76,1.993761301,2.58427906,1.716460466
13.77,1.916244745,3.032376289,1.826747179
13.78,1.130749345,3.150667191,1.562015414
13.79,-0.856980681,1.770611763,1.366841316
13.8,-2.082681179,0.407577515,0.990314961
13.81,-2.479572058,-1.303236961,0.194719911
13.82,-2.055453539,-3.108243465,-0.806735396
13.83,-1.455049157,-4.538009644,-1.493139029
13.84,-1.090657949,-5.639919758,-1.639259696
13.85,-1.071208954,-5.640173435,-1.622407436
13.86,0.171745762,-7.452408791,-0.582477331
13.87,0.84254694,-8.093161583,-0.102809727
13.88,1.736238241,-8.525242805,0.464469373
13.89,2.223025799,-8.645591736,0.691881299
13.9,2.41194582,-8.578573227,0.325461388
13.91,2.294084311,-8.132567406,-0.319181263
13.92,1.196920395,-7.472458839,-0.210871309
13.93,-0.060625374,-6.559066296,0.059524953
13.94,-0.794021368,-5.5514884,-0.305856943
13.95,-0.716636241,-5.544940472,-0.297969401
13.96,-0.974726498,-4.282224178,-0.910744548
13.97,-1.183785915,-1.749109268,-2.205734253
13.98,-1.002866149,-0.526607513,-2.303627968
13.99,-0.337972999,0.579891205,-2.093411684
14,0.001217008,1.546411514,-2.310976744
14.01,0.047325969,2.657901764,-2.361427307
14.02,0.089233994,3.601070404,-1.889447093
14.03,0.636947751,4.337821007,-1.279581428
14.04,0.805591345,4.700485229,-0.362613559
14.05,0.607781529,4.780887604,0.348445118
14.06,-0.266597748,4.579198837,-0.057049483
14.07,-0.992270231,4.260397911,-1.048714399
14.08,-1.314634085,3.402587891,-2.175809383
14.09,-1.618146658,2.891285896,-2.637138128
14.1,-1.439328074,3.22487545,-2.941187143
14.11,0.588825882,4.343686104,-2.948860884
14.12,1.796646833,5.138716698,-1.447653532
14.13,1.78456521,5.137121201,-1.431830645
14.14,1.507310271,5.055818558,1.202812195
14.15,-0.068252563,3.470513344,9.172922134
14.16,-0.067474842,3.472070694,9.113955498
14.17,1.743995309,0.883718491,10.11574173
14.18,3.247406483,-0.825199127,8.737955093
14.19,3.710346937,-1.230102539,5.877655983
14.2,2.30419445,-0.593403816,3.015686512
14.21,0.218324721,1.203667641,0.873357892
14.22,-2.591876507,3.296274185,-0.0126445
14.23,-4.937113285,5.161627769,0.357279599
14.24,-7.186188698,6.605567932,1.45630455
14.25,-8.636037827,6.844237328,2.863555431
14.26,-7.408325672,5.998690605,3.785433769
14.27,-4.659998894,4.353809357,3.873440266
14.28,-4.716101646,4.347445488,3.872450113
14.29,-0.817805171,0.243483543,2.172083855
14.3,0.6347242,-1.211506844,0.972365379
14.31,1.713013411,-2.515216351,-0.018921494
14.32,2.099864483,-3.503109455,-0.39504981
14.33,2.071114779,-3.50583601,-0.392906368
14.34,1.454418182,-4.846561909,-0.247527838
14.35,0.83816576,-5.289172173,-0.288229704
14.36,0.817176163,-5.291155815,-0.284113824
14.37,0.414268762,-5.635696411,-0.496041477
14.38,0.795637369,-5.911342621,-0.58329457
14.39,0.799639225,-6.400324821,-0.460764855
14.4,0.463989943,-6.429525375,-0.427385241
14.41,0.419511646,-6.456345081,-0.263361067
14.42,0.574511647,-6.483370781,-0.545072317
14.43,0.543840826,-6.23054409,-0.994824886
14.44,0.257995337,-5.826807976,-1.162894249
14.45,0.012223423,-5.362731934,-0.624182224
14.46,-0.187032461,-4.996433258,-0.067016602
14.47,-0.215695977,-4.998627663,-0.048646837
14.48,-0.265223086,-3.997634888,-0.407360762
14.49,-0.332899272,-3.339091778,-0.910732627
14.5,-0.372260541,-2.661007881,-1.231714129
14.51,-0.387980104,-2.662470818,-1.202905416
14.52,-0.461314261,-0.451154709,-1.020083666
14.53,-0.890777946,0.44148159,-0.851092398
14.54,-1.612605095,1.633991241,-0.854102612
14.55,-2.289967537,2.321946144,-0.816152334
14.56,-2.316076756,2.881103516,-0.717062831
14.57,-2.287249804,2.882530212,-0.668735981
14.58,-1.926032066,3.175754547,-0.364689648
14.59,-1.319151759,2.194664955,1.769444346
14.6,-2.339850664,1.366635323,1.995149493
14.61,-3.635146856,1.518779755,0.361863405
14.62,-2.667332888,3.34804821,-2.224081755
14.63,-2.633606911,3.350736618,-2.181666613
14.64,-1.073073626,4.749166489,-3.70188427
14.65,-0.046896338,6.532692909,0.33586663
14.66,-0.025050998,6.534013748,0.324562281
14.67,1.500253677,7.247907639,4.96049881
14.68,2.167146206,6.244271278,7.003275394
14.69,2.192810535,4.660801888,7.885592461
14.7,1.91592145,2.943214417,6.751168728
14.71,2.264907598,1.654094696,3.683711529
14.72,2.240388393,1.652404785,3.690078735
14.73,3.245089054,0.965185165,0.671762168
14.74,4.456462383,0.914936066,-1.832236171
14.75,4.651033401,1.638401031,-2.719510555
14.76,3.868982553,2.415010452,-1.765984893
14.77,2.15395236,3.836110115,2.346952677
14.78,0.576738596,4.113798141,3.755964756
14.79,-0.795499563,3.968606949,4.609705925
14.8,-0.789334595,3.970155716,4.533648014
14.81,-2.595279694,1.046341896,5.260634422
14.82,-1.954191685,-0.735569,3.473810434
14.83,-1.971848011,-0.735464096,3.443983555
14.84,-0.057105482,-3.697743893,-1.432976961
14.85,-0.069018334,-3.698456287,-1.430221558
14.86,0.494427294,-4.431833744,-2.709235191
14.87,0.901584208,-4.779222965,-3.045551538
14.88,0.849396944,-4.72819376,-0.430440843
14.89,0.506920159,-4.436419964,0.887207031
14.9,0.272782415,-4.055661201,1.658472538
14.91,0.30064103,-4.05325222,1.639485002
14.92,0.310152203,-3.155677795,1.372702003
14.93,0.621421933,-2.806797028,0.662499428
14.94,0.890969753,-2.755411148,0.05415678
14.95,1.106092811,-2.795767784,-0.053623378
14.96,1.224869728,-2.948901176,-0.040385395
14.97,1.267751694,-3.080643654,-0.037768304
14.98,1.366952419,-3.282005787,-0.064033329
14.99,1.332916737,-3.402140141,-0.05969578
15,1.18104434,-3.474464417,-0.077940434
15.01,1.171731949,-3.343224525,-0.250339419
15.02,1.143119693,-2.881692886,-0.542167783
15.03,1.144392252,-2.882284164,-0.523833692
15.04,-0.046110928,-0.72291851,-1.601699114
15.05,-0.035684228,-0.722906113,-1.580129385
15.06,-0.553998947,1.728834152,-1.733779192
15.07,-0.53889662,3.052841187,-1.239198923
15.08,-0.556744695,4.091968536,-0.41064167
15.09,-0.554842353,4.092178345,-0.413137019
15.1,-1.011656761,4.557150841,0.514487386
15.11,-1.7776618,4.078803062,1.3675313
15.12,-1.660310984,2.708819389,1.491108775
15.13,0.582736969,0.174625397,-0.23093313
15.14,1.251600981,-0.070589066,-1.413413048
15.15,1.230955124,0.384095192,-2.039552212
15.16,0.613579989,1.210962296,-1.709298611
15.17,-0.00085181,2.232660294,-0.338926703
15.18,-1.06281209,2.977431297,1.159967065
15.19,-1.850273848,3.574238777,2.242671013
15.2,-2.225616455,3.886096001,2.662539721
15.21,-1.969017506,3.59883213,2.456585407
15.22,-1.267121077,2.953982353,2.130221367
15.23,-0.572502196,1.896445274,1.944886804
15.24,-0.215692163,0.778364182,2.02215147
15.25,-0.215726614,0.778437614,2.013602257
15.26,-0.626217663,-0.791989327,1.777081966
15.27,0.19706744,-1.184583664,1.503244162
15.28,0.737196088,-1.364563942,1.215180993
15.29,0.908820093,-1.079948425,1.065476656
15.3,0.413238585,-0.577104569,1.365440965
15.31,0.416321933,-0.576416969,1.341545105
15.32,-0.488687277,-0.165709496,2.042596817
15.33,-0.928695083,0.316886902,2.591990709
15.34,-0.927849889,0.318040848,2.552062035
15.35,-0.838721573,0.469254494,2.299808979
15.36,-0.905469477,0.272862434,0.982758403
15.37,-0.907179475,-0.019619942,0.467945367
15.38,-0.987125814,-0.434410095,0.182748854
15.39,-0.961307347,-0.841943741,0.235894561
15.4,-0.799131334,-1.091135979,0.461646169
15.41,-0.820884049,-1.090826035,0.422248781
15.42,-0.966841042,-1.305478096,1.172135592
15.43,-0.939202786,-1.332892418,1.244641066
15.44,-0.86131829,-1.2260952,0.815036356
15.45,-0.86376363,-1.224805832,0.792940259
15.46,-0.834891379,-0.9435215,-0.064054787
15.47,-0.821633518,-0.746113777,-0.219180673
15.48,-0.975925744,-0.572660446,-0.103425562
15.49,-1.01674664,-0.487551689,0.03680712
15.5,-1.014650583,-0.486093521,0.019393027
15.51,-1.037528276,-0.44376564,0.241262198
15.52,-1.178945303,-0.446516037,0.634443045
15.53,-1.142214775,-0.578383446,1.024860978
15.54,-0.433000326,-0.947342873,1.342880726
15.55,-0.176186025,-1.10101223,1.204711437
15.56,0.043614268,-1.228618622,0.856546998
15.57,0.296685159,-1.263195038,0.634747565
15.58,0.459607124,-1.13030529,0.566273391
15.59,0.452936292,-1.129156113,0.549301803
15.6,0.418940246,-0.591795921,0.561180115
15.61,0.511373282,-0.26274395,0.692057788
15.62,0.749191284,-0.027117729,0.992349565
15.63,0.750422895,0.184659004,1.353835106
15.64,0.19947952,0.34171772,1.527762175
15.65,-0.657971323,0.759952545,1.470512271
15.66,-1.709943891,1.185190201,0.724191785
15.67,-1.686474204,1.185937881,0.735107184
15.68,-1.680044174,0.886406899,-0.901738405
15.69,-1.678418875,0.88470459,-0.883342981
15.7,-0.87980485,0.351193428,-1.426247001
15.71,-0.884620726,0.349632263,-1.414129853
15.72,-0.05437535,0.2718153,-0.754784465
15.73,-0.062507808,0.27059269,-0.748697281
15.74,0.124349535,0.681435585,-0.102788568
15.75,-0.533436954,0.781985283,0.143737435
15.76,-0.636968315,0.600066185,0.20383662
15.77,-0.269512832,0.115942001,-0.035025358
15.78,0.065120161,-0.162949562,-0.270074725
15.79,0.301290155,-0.288949013,-0.373965651
15.8,0.447397679,-0.472380638,-0.431269378
15.81,0.487094104,-0.504891396,-0.439391762
15.82,0.514995039,-0.546931267,-0.267523229
15.83,0.595141947,-0.593548775,-0.016434312
15.84,0.602079928,-0.616127014,0.103314996
15.85,0.762588799,-0.68666172,-0.12238574
15.86,0.76411444,-0.688079834,-0.100776553
15.87,0.890661478,-0.665637016,-0.420010686
15.88,0.873874426,-0.496001244,-0.339099795
15.89,0.853207529,-0.364551544,-0.024422467
15.9,0.827614844,-0.366969109,-0.019466341
15.91,0.645586491,-0.007555008,0.35951066
15.92,0.336942315,0.167782784,0.402886927
15.93,0.051837444,0.252575874,0.380951047
15.94,0.165629327,0.328719139,0.164314628
15.95,0.160345554,0.327931404,0.170599997
15.96,0.149580836,0.104233742,-0.246272475
15.97,0.1221807,0.000164986,-0.514962912
15.98,0.115903556,-0.001224518,-0.499533862
15.99,0.171436191,-0.244568825,-1.027520537
16,0.291012466,-0.358689308,-1.118660808
16.01,0.347220898,-0.420106888,-0.854645193
16.02,0.337372899,-0.421424866,-0.842141688
16.03,0.909394801,-0.36995697,0.024960876
16.04,1.341124773,-0.198612213,0.463917375
16.05,1.327533245,-0.199589729,0.466029823
16.06,1.387723088,-0.028059006,0.775122106
16.07,0.638885856,0.409328461,0.731358647
16.08,0.631273925,0.408581734,0.736932039
16.09,0.431594551,0.4412117,0.364419818
16.1,0.250751972,0.75610733,-0.695449829
16.11,0.126653105,0.680697441,-0.890179098
16.12,0.097852916,0.500016213,-0.682498217
16.13,0.016587913,0.324478149,-0.20368892
16.14,-0.298663139,0.137531281,0.123040348
16.15,-0.435917616,-0.020479202,0.274722755
16.16,-0.384812057,-0.010956764,0.079813331
16.17,-0.650572121,-0.001576424,-0.344761908
16.18,-0.845112741,0.041181564,-0.532399952
16.19,-0.844948769,0.040863037,-0.525160074
16.2,-0.342618048,-0.115207672,-0.600256085
16.21,-0.346998692,-0.115782738,-0.592550874
16.22,-0.100016207,-0.331907272,-0.587992907
16.23,0.03578648,-0.478577614,-0.49603346
16.24,0.155266464,-0.534244537,-0.527938545
16.25,0.258229733,-0.446267128,-0.501714706
16.26,0.374284267,-0.274427414,-0.417973936
16.27,0.373573184,-0.274895668,-0.406617284
16.28,0.351036608,0.088559151,-0.321318626
16.29,0.395866782,0.298406601,-0.392802
16.3,0.390652567,0.29744339,-0.372102916
16.31,-0.0626342,0.497682571,-0.080140516
16.32,-0.085203052,0.365200996,-0.139337376
16.33,-0.091864824,0.364369392,-0.120732054
16.34,-0.435803771,0.030714035,-0.739157021
16.35,-0.624614,-0.125704765,-0.865711749
16.36,-0.473494381,-0.310697556,-0.799491227
16.37,-0.446307391,-0.385421753,-0.695412874
16.38,-0.337829113,-0.368973732,-0.595380068
16.39,-0.197193027,-0.285382271,-0.501595378
16.4,-0.020564169,-0.218459129,-0.281398565
16.41,-0.060421914,-0.11558342,-0.016701758
16.42,-0.169222891,-0.067697525,0.160728693
16.43,-0.165495098,-0.067564964,0.1649279
16.44,-0.195230186,0.028330803,0.193896353
16.45,-0.155196667,0.033249855,0.105488598
16.46,-0.117307484,0.062122345,-0.031942226
16.47,-0.385001987,0.033577919,-0.154642075
16.48,-0.379465699,0.033788681,-0.146570414
16.49,-0.526874304,0.029255867,-0.254850745
16.5,-0.805073619,-0.032686234,-0.441899568
16.51,-0.766653776,-0.060955048,-0.648249984
16.52,-0.372316659,-0.074784279,-0.773361147
16.53,-0.092606187,-0.172492981,-0.355817169
16.54,-0.091842115,-0.277415276,-0.054645564
16.55,-0.1028139,-0.243445396,0.127909616
16.56,-0.130898953,-0.144840241,0.351980597
16.57,-0.33116132,-0.106093407,0.27270475
16.58,-0.171768427,-0.146296501,-0.118234895
16.59,0.294302732,-0.05495739,-0.284813702
16.6,0.238931596,0.038554192,-0.047782984
16.61,-0.146167994,0.093788147,0.237814933
16.62,-0.431960702,0.098808289,0.46530968
16.63,-0.33456099,0.02003479,0.18464303
16.64,-0.224584878,-0.087592125,-0.212447122
16.65,-0.293199897,-0.147386551,-0.504351199
16.66,-0.453764558,-0.20231247,-0.419192731
16.67,-0.413705647,-0.175722122,-0.099557161
16.68,-0.344275892,-0.158655167,0.087606609
16.69,-0.164359391,-0.091309547,0.276556164
16.7,-0.09505564,0.002350807,0.161877066
16.71,-0.06585598,0.024237633,-0.023212899
16.72,-0.060521603,0.02458477,-0.017375279
16.73,-0.008154631,0.008151054,-0.461853713
16.74,-0.006658018,0.03715229,-0.418256044
16.75,-0.17608577,0.078082085,-0.035008557
16.76,-0.21165657,0.099801064,0.341145694
16.77,-0.146246254,0.051949501,0.452260375
16.78,-0.234342575,0.044790268,0.257580102
16.79,-0.45119524,0.037653923,-0.001608312
16.8,-0.460456729,0.033068657,-0.268122822
16.81,-0.457648099,0.033260345,-0.264409959
16.82,-0.352930725,0.019034386,-0.435242385
16.83,-0.258139193,-0.086202621,-0.466635734
16.84,-0.117928326,-0.023860931,-0.106870845
16.85,-0.340603232,0.055293083,0.155509785
16.86,-0.29127872,0.129766464,0.290060967
16.87,-0.139795363,0.115584374,0.206799761
16.88,-0.138969123,0.11564827,0.207063377
16.89,0.180431873,0.03895092,0.135373011
16.9,0.380730093,-0.023503304,0.230467051
16.91,0.377460241,-0.023715019,0.231660053
16.92,0.105625629,-0.045334816,0.010922011
16.93,-0.123252332,-0.088348389,-0.119459696
16.94,-0.388619781,-0.073766708,-0.297124833
16.95,-0.516843975,-0.008867264,-0.381927073
16.96,-0.388646007,0.039289474,-0.070469745
16.97,-0.093141079,0.029950142,0.552513421
16.98,-0.09036988,0.030104637,0.549707115
16.99,-0.241237104,-0.153951645,0.573891401
17,-0.147114396,-0.206220627,0.183826745
17.01,-0.041162372,-0.215387344,-0.062375724
17.02,0.052328527,-0.131185532,-0.48494786
17.03,0.055645645,-0.130901337,-0.477619112
17.04,0.119644225,-0.034955978,-0.577308476
17.05,-0.200122416,0.058502197,0.378162086
17.06,-0.198773921,0.058544159,0.372458875
17.07,-0.429654598,0.063370705,0.751188874
17.08,-0.300150693,0.03939724,0.746343732
17.09,-0.137857914,0.005834579,0.371500075
17.1,0.064183354,-0.054095268,-0.411102861
17.11,0.062546134,-0.054172516,-0.405089885
17.12,0.14103049,-0.039815903,-0.363525152
17.13,0.009523392,-0.049387932,-0.014152743
17.14,-0.24039954,-0.010998726,0.143566698
17.15,-0.237663388,-0.010820389,0.141090065
17.16,-0.041482329,0.037221909,0.235686183
17.17,0.136588693,0.013179779,0.184862137
17.18,0.196356565,-0.049208641,0.102201097
17.19,0.216911972,-0.020676613,0.044710297
17.2,0.241525888,-0.06161499,0.037703857
17.21,0.186890572,-0.049912453,0.049091727
17.22,0.182475954,-0.050167084,0.052244052
17.23,0.04291451,0.01667881,0.035813726
17.24,-0.170301795,0.018928528,0.133304969
17.25,-0.171685636,0.018837929,0.133462787
17.26,-0.189391017,0.011569977,0.39818275
17.27,-0.191379309,0.011425018,0.397498876
17.28,-0.065132618,0.020816803,0.114740551
17.29,-0.110700905,0.011135101,-0.189340681
17.3,-0.010026157,0.003846169,-0.116014376
17.31,0.008908927,-0.015453339,0.012698293
17.32,0.030498624,-0.056298256,0.07358861
17.33,0.076721489,-0.056397438,0.165245593
17.34,-0.027503967,-0.025379181,0.379761189
17.35,-0.028284907,-0.025439262,0.378596246
17.36,0.042357087,0.029546738,0.279854029
17.37,0.037460446,-0.037643433,0.072855607
17.38,0.065730333,-0.056947708,-0.053182364
17.39,0.048189044,-0.011613846,-0.142326564
17.4,-0.053130627,-0.026147842,-0.104002446
17.41,0.202482253,-0.062235832,0.105330557
17.42,0.325743407,-0.19175911,0.467134953
17.43,0.056614101,-0.1584692,0.329742968
17.44,-0.193923712,-0.101098061,0.150409699
17.45,-0.062537253,-0.017302513,0.185674906
17.46,-0.133378804,-0.038924217,0.099712491
17.47,-0.120083094,-0.07010746,-0.080857724
17.48,0.088613689,-0.012716293,-0.120574966
17.49,0.022545934,0.037371635,0.009646937
17.5,-0.122090995,0.037169456,0.156155974
17.51,-0.093676746,0.00825882,0.239499658
17.52,-0.022059441,0.005700111,0.185958192
17.53,-0.10097456,0.017502785,0.091843814
17.54,-0.207471252,0.031790733,0.09100911
17.55,-0.140405834,0.022195816,0.159651041
17.56,-0.089777708,0.019824028,0.134943754
17.57,-0.225585282,0.034235954,-0.007850572
17.58,-0.241069198,0.03676033,-0.136226699
17.59,-0.160928249,0.029720306,-0.028582692
17.6,-0.040098667,-0.087490082,0.087052636
17.61,-0.001229107,-0.099407196,0.102933943
17.62,-0.001150489,-0.099372864,0.10424152
17.63,0.110897005,0.008351326,0.090829812
17.64,0.10078305,0.049027443,0.105310604
17.65,-0.002481699,0.127989769,0.180535078
17.66,-0.001421094,0.128025055,0.177841008
17.67,-0.157500923,0.137663841,0.347031474
17.68,-0.310569406,0.042016983,0.301099002
17.69,-0.318962097,0.037435532,0.263668627
17.7,-0.190199196,-0.024567604,0.109867469
17.71,-0.054973602,-0.062631607,0.094112337
17.72,-0.063654125,-0.13184166,0.09484826
17.73,-0.043065369,-0.148369789,0.140060067
17.74,0.016052544,-0.133751869,0.244229168
17.75,0.020089805,-0.133530617,0.241810411
17.76,-0.090584934,-0.068647385,0.167232603
17.77,-0.157674491,-0.015690804,0.127096981
17.78,-0.162940741,0.039661407,0.135714293
17.79,-0.1616745,0.054273605,0.113600008
17.8,-0.141764283,0.138300896,0.023725227
17.81,-0.19637847,0.212740898,-0.141177014
17.82,-0.284425438,0.232154846,-0.206099078
17.83,-0.326949358,0.112743378,-0.138292044
17.84,-0.32372278,0.113031387,-0.132994533
17.85,0.181418568,0.048633575,0.108541265
17.86,0.367361784,0.022472382,0.51533401
17.87,0.238035828,-0.164056778,0.729979813
17.88,0.241843969,-0.163724899,0.733498633
17.89,0.040157795,-0.242344856,0.552454233
17.9,0.033295989,-0.215722084,0.131532267
17.91,-0.029375494,-0.155627251,-0.093138665
17.92,0.064727545,-0.093216896,-0.18058835
17.93,0.171461046,0.043294907,0.044551089
17.94,0.040012956,0.131749153,0.40746665
17.95,-0.186375737,0.220191002,0.70652312
17.96,-0.169769526,0.198560715,0.692582011
17.97,0.021785319,0.129036903,0.310639709
17.98,-0.095411718,0.112288475,0.090386294
17.99,-0.291159809,0.105383873,0.019676179
18,-0.321129322,0.043653488,0.14639841
18.01,-0.089597464,-0.030029297,0.361002117
18.02,-0.083647609,-0.029536247,0.364441454
18.03,0.120746195,-0.088873863,0.158665776
18.04,0.109870672,-0.064338684,0.116296329
18.05,0.130016923,-0.046943665,0.113372177
18.06,0.15901351,-0.089478493,0.255475879
18.07,0.416312873,-0.091505051,0.319554746
18.08,0.417536557,-0.091338158,0.322411895
18.09,0.207865357,-0.08881855,0.312468827
18.1,0.016301036,-0.112578392,0.350893557
18.11,-0.116301,-0.083575249,0.309824944
18.12,-0.097200751,-0.06642437,0.224721789
18.13,-0.061695635,0.034520149,0.353679359
18.14,-0.481129706,0.049275398,0.489558518
18.15,-0.584475935,0.016292572,0.324966133
18.16,-0.407395959,-0.038171768,-0.058196276
18.17,-0.383339703,-0.066344261,-0.523535729
18.18,-0.379601061,-0.065821648,-0.514903486
18.19,-0.344606757,0.006530762,-0.667809904
18.2,-0.338989794,0.007088661,-0.663919926
18.21,-0.305902124,0.048337936,-0.223552853
18.22,-0.164363682,0.0656147,0.372148216
18.23,-0.156224549,0.066212654,0.369440705
18.24,-0.380829871,0.076657295,0.485446692
18.25,-0.368937135,0.077727318,0.487728655
18.26,-0.330828726,-0.076780319,0.386102796
18.27,-0.444239438,-0.293557167,-0.362642527
18.28,-0.433355928,-0.292373657,-0.355500251
18.29,-0.405516028,-0.157423019,-0.481378645
18.3,-0.171638668,-0.11134243,0.03870213
18.31,-0.167470157,-0.111011505,0.037104636
18.32,0.101751566,-0.252287865,0.560117006
18.33,0.003741801,-0.254834175,0.633777976
18.34,0.004582047,-0.254894257,0.628827691
18.35,-0.125773907,-0.139915466,0.408673674
18.36,0.031684816,0.063621521,-0.429464638
18.37,0.029203475,0.063500404,-0.425508589
18.38,0.16001159,0.161354065,0.364052087
18.39,-0.092052102,0.120224953,0.780481875
18.4,-0.26346916,0.060054779,0.677835107
18.41,-0.264678836,0.059869766,0.674723744
18.42,-0.061429322,-0.000207901,0.23027356
18.43,-0.16385752,-0.036172867,-0.218292415
18.44,-0.070401371,-0.170181274,0.035858363
18.45,0.135998428,-0.229957581,0.283193499
18.46,0.174571633,-0.208407402,0.35713017
18.47,0.020622194,-0.193835259,0.347376466
18.48,0.102519929,-0.176703453,0.259764969
18.49,0.168920338,-0.121307373,0.193547547
18.5,0.054311752,-0.077993393,0.047080383
18.51,-0.124711454,0.013284683,0.076456189
18.52,-0.124584019,0.013495445,0.083072394
18.53,-0.010965884,-0.010335922,-0.076975971
18.54,-0.109734654,0.035381317,-0.035507232
18.55,-0.36246866,0.01174736,-0.062460542
18.56,-0.364789009,-0.066845894,-0.236269504
18.57,-0.248243868,-0.200621605,-0.284298956
18.58,-0.24943018,-0.200773239,-0.285697132
18.59,-0.201194406,-0.294568062,0.243706077
18.6,-0.204197347,-0.295259476,0.231391966
18.61,-0.201007545,-0.135704994,0.565116763
18.62,0.183412612,-0.019363403,0.559882641
18.63,0.177254975,-0.020252228,0.547514737
18.64,-0.063148558,-0.004015923,0.338506341
18.65,-0.064156532,-0.004243851,0.333506346
18.66,-0.19081676,-0.104814529,0.03279987
18.67,-0.190015912,-0.10469532,0.034538805
18.68,-0.136882365,-0.080602646,-0.145345241
18.69,-0.062953591,0.008120537,-0.233177751
18.7,-0.080293953,0.058436394,-0.132099271
18.71,-0.214898288,0.077612877,-0.05074659
18.72,-0.18193078,0.06088829,-0.126807571
18.73,-0.183352351,0.060836792,-0.123997778
18.74,-0.113812208,0.058291435,-0.057758927
18.75,-0.114402533,0.014957428,0.067464054
18.76,0.159702301,-0.040423393,0.658977926
18.77,-0.063879311,-0.141301155,0.7864995
18.78,-0.065022349,-0.141488075,0.784043908
18.79,-0.115817726,-0.158322334,0.481511831
18.8,-0.093614161,-0.038645744,-0.553604126
18.81,0.058225691,-0.024443626,-0.280536532
18.82,0.175061882,0.04455471,0.366326213
18.83,-0.066940367,0.015294075,0.774332762
18.84,-0.256422341,-0.001838684,0.595053375
18.85,-0.166097999,-0.028280258,0.14547281
18.86,0.000460446,-0.066579819,-0.29897508
18.87,-0.052030861,-0.037843704,-0.239842653
18.88,-0.084513128,0.04596138,0.08248882
18.89,-0.004284441,0.055416107,0.452949673
18.9,0.175711215,0.055174828,0.510242224
18.91,0.149026513,0.038139343,0.331597
18.92,0.034291029,-0.038585663,0.115964308
18.93,-0.150289655,-0.093485832,-0.025879711
18.94,-0.172904372,-0.124241829,0.015512466
18.95,-0.3265993,-0.157380104,0.058510423
18.96,-0.324070931,-0.156957626,0.064602882
18.97,-0.066681683,0.003694534,0.09314175
18.98,-0.305152595,0.056566238,0.10834375
18.99,-0.241153479,0.056789398,0.103542283
19,-0.01553601,0.056870461,0.241369695
19.01,-0.002100348,-0.089260101,0.281860203
19.02,-0.002538145,-0.089328766,0.280599952
19.03,-0.104935169,-0.225806236,0.159780905
19.04,-0.142048299,-0.158653259,0.119427741
19.05,-0.140626431,-0.158540726,0.119261175
19.06,-0.124533236,-0.050668716,0.13549152
19.07,-0.162994206,0.014137268,0.141625717
19.08,-0.188812554,0.057427406,0.200283736
19.09,-0.049839437,0.057595253,0.222659349
19.1,0.180666149,0.028851509,0.251875311
19.11,0.213620186,0.019203186,0.212732807
19.12,0.15815413,-0.016711235,-0.016202807
19.13,-0.020927548,0.057664871,-0.103892654
19.14,-0.167651236,0.043581009,-0.056420535
19.15,-0.165006816,0.043927193,-0.053166509
19.16,-0.180195212,0.032076836,0.166977584
19.17,-0.011334598,0.084834099,0.103603005
19.18,-0.011407673,0.084833145,0.103799969
19.19,0.198643446,0.123109818,0.511678934
19.2,-0.01798141,-0.006334305,0.601048708
19.21,0.113028348,-0.178823471,0.489646554
19.22,0.192699373,-0.195744515,0.345454633
19.23,0.19136405,-0.195873261,0.345177561
19.24,-0.166698456,-0.131024361,-0.063438028
19.25,-0.261212111,-0.030096054,-0.503950357
19.26,-0.046375573,0.058634758,-0.428577602
19.27,-0.037692249,0.063307762,0.662186444
19.28,-0.193439364,0.029668808,0.864951134
19.29,0.020203471,-0.037439346,0.444938958
19.3,-0.076108813,-0.07578373,-0.138866633
19.31,-0.193126977,-0.030039787,-0.374124795
19.32,-0.194077671,-0.077518463,-0.213114739
19.33,-0.19300127,-0.077336311,-0.210646868
19.34,-0.029451787,-0.07485199,0.204268783
19.35,-0.029481649,-0.074857712,0.204237789
19.36,0.001381218,0.052075386,-0.002453744
19.37,0.000796437,0.052108765,-8.46684E-05
19.38,0.189027906,-0.01735878,0.31248036
19.39,0.097838461,0.05928421,0.418605268
19.4,-0.030811727,0.059355736,0.368746966
19.41,-0.106065929,0.059532166,0.286446035
19.42,-0.07618463,0.01183033,0.136038616
19.43,-0.094766557,-0.028702736,-0.030824184
19.44,-0.094799578,-0.028564453,-0.027412921
19.45,-0.133482099,-0.014097214,-0.09804824
19.46,-0.274970591,-0.145687103,-0.0063802
19.47,-0.27214545,-0.147979736,0.031111538
19.48,-0.269214571,-0.124017716,0.131004125
19.49,-0.057544887,-0.06657505,0.329447299
19.5,-0.002383888,0.060133934,0.408128858
19.51,-0.116782427,0.059967041,0.38087076
19.52,-0.048320055,0.05992794,0.249921694
19.53,-0.047211826,0.059931755,0.247237578
19.54,0.029598176,0.059897423,0.095122814
19.55,0.029770911,0.059864998,0.094082952
19.56,0.02724719,0.059832573,0.141040221
19.57,0.027418196,0.059858322,0.141449407
19.58,0.006111681,0.04794693,0.125687271
19.59,-0.186720133,0.050385475,0.313441455
19.6,-0.233021319,-0.002323151,0.354376346
19.61,-0.313177168,0.012066841,-0.145851076
19.62,-0.290097654,0.060154915,-0.342601955
19.63,0.002828121,0.060284615,0.025259376
19.64,0.238832593,0.014641762,0.526383042
19.65,-0.22224474,-0.146048546,0.529097796
19.66,-0.093812883,-0.1220541,0.301851571
19.67,0.136074543,-0.155629158,0.190257713
19.68,-0.11367327,0.019047737,0.232272118
19.69,-0.404321075,0.02865696,0.298915565
19.7,0.023947775,0.057444572,0.415159613
19.71,0.122207224,0.059486389,0.355554819
19.72,-0.322839558,0.073376656,0.331219912
19.73,-0.435807884,0.073056221,0.27896446
19.74,-0.08229512,0.010512352,0.136847094
19.75,0.303875983,-0.172002792,-0.0852938
19.76,0.295465291,-0.172622681,-0.082777441
19.77,0.185958922,-0.216071129,0.268803358
19.78,0.127646446,-0.146869659,0.47252202
19.79,0.142652392,0.018190384,0.375293374
19.8,-0.047517955,0.05646801,0.244090051
19.81,-0.140743434,0.104505539,0.146535099
19.82,-0.12825805,0.083206177,0.005667418
19.83,-0.127140999,0.083416939,0.008674204
19.84,0.008990407,0.057171822,0.02007553
19.85,0.239979565,-0.00025177,0.086537004
19.86,0.060819387,0.002131462,0.086067498
19.87,-0.146345019,0.026105881,0.178729758
19.88,-0.146284521,0.026192665,0.181615546
19.89,-0.204414666,-0.033649445,0.245598048
19.9,-0.202952921,-0.134231567,0.1109896
19.91,-0.153498232,-0.117454529,0.158517867
19.92,-0.049180925,-0.115148544,0.235360295
19.93,0.001986802,-0.036307335,0.193196893
19.94,0.02909869,0.054481506,0.170086607
19.95,0.037409663,0.030376434,0.139635623
19.96,-0.023315489,0.056578636,0.176391527
19.97,-0.07850951,0.013396263,0.167086303
19.98,-0.12344861,-0.024906158,0.029382259
19.99,-0.058086038,-0.039188385,0.056224257
20,-0.057893693,-0.039197922,0.055714577
20.01,0.093161881,0.003874779,0.281548649
20.02,-0.010222971,0.030164719,0.281303734
20.03,-0.174977899,-0.005673409,0.256015927
20.04,-0.140305102,-0.022313118,0.154090256
20.05,-0.111181855,-0.015042305,-0.019231081
20.06,-0.19049865,0.013718605,-0.070219934
20.07,-0.147136927,0.044880867,-0.021786183
20.08,0.025666177,0.056856155,0.247839242
20.09,0.099729478,-0.022228241,0.4328444
20.1,-0.189493299,-0.038984299,0.359588742
20.11,-0.328185022,-0.129753113,0.144209206
20.12,-0.002416432,-0.103114128,-0.099856079
20.13,-0.06408447,-0.08618927,-0.177803963
20.14,-0.039069474,-0.102755547,-0.026335806
20.15,0.138300657,-0.059619904,0.304562807
20.16,0.137007117,-0.059824944,0.302092016
20.17,0.289068162,-0.019306183,0.385483742
20.18,-0.017584026,0.057179451,0.396626324
20.19,-0.05448252,0.078508377,0.308547974
20.2,-0.055618525,0.078306198,0.305668056
20.21,-0.051828861,0.05664444,0.151613206
20.22,-0.059070468,0.051867485,0.006252766
20.23,-0.231812894,-0.08201313,0.262968004
20.24,-0.229295611,-0.081789017,0.263470113
20.25,-0.085742056,-0.07430172,-0.090213954
20.26,0.031430006,-0.035597801,-0.206122518
20.27,0.033156693,-0.035209656,-0.199409843
20.28,0.10422504,-0.125885963,0.162306085
20.29,0.10486275,-0.125728607,0.165355548
20.3,-0.047718525,-0.075303078,0.205965787
20.31,-0.012374938,0.058707237,0.339521438
20.32,0.007643878,0.135103226,0.293933839
20.33,-0.06121254,0.13250351,0.100821257
20.34,-0.152859867,0.060630798,-0.02311638
20.35,-0.379087627,0.008109093,0.064594924
20.36,-0.359677494,-0.039497375,0.084624738
20.37,-0.103199065,-0.111041069,-0.014305174
20.38,-0.022938848,-0.041410446,0.00485307
20.39,-0.021567822,-0.041247368,0.006172925
20.4,0.019315362,0.124095917,0.360586435
20.41,0.021897495,0.124237061,0.358451784
20.42,0.000567794,0.110096932,0.337249339
20.43,-0.011628032,-0.035693169,0.305431634
20.44,0.028855324,-0.102505684,0.325758934
20.45,0.030549288,-0.10231781,0.326538116
20.46,0.089131832,-0.111776352,0.231359243
20.47,-0.005359352,-0.14516449,0.155443877
20.48,-0.010910511,-0.168950081,0.218142763
20.49,-0.010137439,-0.16891098,0.217645928
20.5,-0.164461613,-0.120995522,0.097931087
20.51,-0.17401439,0.027427673,-0.348368496
20.52,-0.219564021,0.120855331,-0.433002889
20.53,-0.176228941,0.18793869,-0.013188779
20.54,-0.20425874,0.111291885,0.539804578
20.55,-0.203086495,0.111227989,0.535390854
20.56,0.080820024,-0.027532578,0.369450569
20.57,0.081848502,-0.02739048,0.371047467
20.58,-0.001341581,-0.031829834,0.303639472
20.59,-0.11677599,0.04765892,-0.172423244
20.6,0.208299935,-0.011836052,-0.236446261
20.61,0.207022488,-0.011778831,-0.231871188
20.62,-0.085816443,0.047902107,0.687082648
20.63,-0.077111781,0.057170868,0.59727937
20.64,0.043695688,-0.000566483,0.264484078
20.65,-0.060316741,0.039975166,0.116749346
20.66,-0.289202035,0.018490791,0.221311256
20.67,-0.321735621,0.040278435,0.296305984
20.68,-0.116814494,-0.024060249,0.274285793
20.69,0.051434398,-0.064422607,0.180179551
20.7,0.070516288,-0.102383614,-0.019394726
20.71,0.125701189,-0.077959061,-0.151296347
20.72,0.151875377,-0.079842567,-0.081069976
20.73,0.101176679,-0.081800461,0.20573543
20.74,0.077550948,-0.047909737,0.340622544
20.75,-0.027961433,0.019429207,0.364860982
20.76,-0.133569419,0.065213203,0.309758663
20.77,-0.194483995,0.065434456,0.161625117
20.78,-0.165037334,0.053674698,0.09349516
20.79,-0.165266752,0.053768158,0.096092761
20.8,-0.150947869,0.001172066,0.096096218
20.81,-0.272591412,-0.096851349,0.084090829
20.82,-0.33318466,-0.091803551,0.009884626
20.83,-0.313907683,-0.043575287,0.000546515
20.84,-0.391860306,0.002326965,0.144350231
20.85,-0.245529056,0.012421608,0.288916826
20.86,-0.055979967,0.024888992,0.329900652
20.87,-0.110689759,0.032617569,0.285849124
20.88,-0.104899526,0.033272743,0.288755924
20.89,0.096494138,-0.090566635,0.103685856
20.9,0.090125442,-0.068493843,0.032343775
20.91,-0.019763172,-0.065592766,0.102867723
20.92,-0.017552793,-0.065172195,0.107541561
20.93,0.121646583,-0.033869743,0.201889709
20.94,-0.173650563,0.004583359,0.190070748
20.95,-0.248295486,-1.43051E-05,0.161605239
20.96,-0.23429364,0.071922302,-0.021927476
20.97,-0.119853258,0.033763886,-0.171003342
20.98,-0.275884867,0.050683022,-0.071114391
20.99,-0.342034817,0.000609398,0.235765949
21,-0.197157562,-0.121393204,0.623400569
21.01,-0.001000345,-0.246096611,0.554790914
21.02,-0.001904607,-0.246334076,0.551455677
21.03,-0.00734812,-0.014273643,0.180121571
21.04,0.087672651,0.066971779,0.106518149
21.05,0.243039906,0.071418762,0.150122553
21.06,0.238358438,0.070881844,0.147914231
21.07,0.369767845,0.022366524,0.348044366
21.08,0.045527518,0.002676964,0.503687561
21.09,-0.122148216,-0.019355774,0.594110191
21.1,0.113671303,-0.082073212,0.021223307
21.11,0.110757768,-0.082228661,0.023563743
21.12,-0.079524219,-0.060569763,-0.249355108
21.13,-0.079868495,-0.060399055,-0.244583637
21.14,0.031948388,-0.098640442,-0.016309261
21.15,-0.152919889,-0.141679764,0.337358832
21.16,-0.152008057,-0.141545296,0.339064479
21.17,-0.115613997,-0.014414787,-0.07370019
21.18,-0.034763932,0.069621086,-0.249698252
21.19,0.023703218,0.069771767,-0.382356286
21.2,0.012320817,0.069881439,-0.268735379
21.21,-0.288123846,0.069957733,0.106336206
21.22,-0.33299166,0.060435295,0.414983153
21.23,-0.332111657,0.060404778,0.412842065
21.24,-0.118190825,-0.116752625,0.29888314
21.25,0.018037915,-0.128767014,0.138066322
21.26,-0.08569777,-0.155165672,0.092949778
21.27,-0.094451547,-0.102416992,0.169369012
21.28,-0.119727671,-0.03533268,0.194586098
21.29,0.007947206,-0.004203796,0.082961261
21.3,0.05309093,0.005353928,0.023322999
21.31,0.004421592,-0.040172577,0.074358553
21.32,-0.01512599,-0.097677231,0.110404193
21.33,0.101387143,-0.090557098,0.065016419
21.34,0.181016386,-0.133792877,0.106419951
21.35,0.200785875,-0.081272125,0.058754236
21.36,0.115708232,-0.038239479,0.074077338
21.37,-0.028135359,-0.028717995,0.176371217
21.38,-0.027666271,-0.02880764,0.173790574
21.39,-0.20018667,-0.069731712,0.408742368
21.4,-0.200527132,-0.069961548,0.404273689
21.41,-0.181560278,0.030444145,-0.043976456
21.42,-0.100940585,0.05424118,-0.210990489
21.43,-0.023797393,0.049211502,-0.121404469
21.44,-0.027231991,0.048676491,-0.126191109
21.45,0.021858633,-0.172249794,0.491531998
21.46,-0.080115736,-0.139152527,0.360265613
21.47,-0.080277681,-0.139350891,0.356320083
21.48,-0.037423015,-0.05316925,0.021060824
21.49,0.198904395,-0.077166557,0.237145275
21.5,0.21785146,-0.036913872,0.682261944
21.51,-0.062281013,0.005594254,0.891305327
21.52,-0.271656036,0.062562943,0.503263593
21.53,-0.180586755,0.064714432,0.040001392
21.54,0.035957098,0.014286041,-0.341145426
21.55,-0.031603336,-0.079216003,-0.369025707
21.56,-0.033327937,-0.079320908,-0.368059486
21.57,-0.058896184,-0.13458252,-0.096198797
21.58,0.200253725,-0.096558571,0.544832707
21.59,0.050271928,-0.063342094,0.65834403
21.6,-0.088798225,-0.044286728,0.351696312
21.61,-0.090543449,-0.036994934,-0.046230346
21.62,-0.091509938,-0.036848068,-0.0407902
21.63,-0.030968785,-0.017683983,-0.046301961
21.64,-0.033405662,-0.017827988,-0.044463634
21.65,0.044766963,0.034581184,0.168778807
21.66,0.081933022,0.034282684,0.013402849
21.67,0.012691379,0.03657341,-0.132549793
21.68,-0.189150155,0.010282516,-0.091574222
21.69,-0.382453322,0.039074898,0.124077708
21.7,-0.438522697,0.007949829,0.355791688
21.71,-0.269646347,0.000654221,0.546313822
21.72,-0.149485946,-0.030772209,0.466509759
21.73,-0.11637795,-0.011873245,0.235942915
21.74,-0.116339982,-0.012022018,0.232156977
21.75,-0.14485234,0.050162315,-0.071982473
21.76,-0.099260271,0.05728817,-0.004083484
21.77,-0.099373698,0.057179451,-0.006585807
21.78,-0.089003384,0.009202957,0.321966589
21.79,-0.035981238,0.061785698,0.321233064
21.8,-0.016000569,0.061833382,0.262739956
21.81,0.089554131,0.066641808,0.174455166
21.82,0.076443255,0.06180954,0.139914662
21.83,0.00517267,0.061675072,0.203141391
21.84,-0.147673845,0.004042625,0.162559122
21.85,-0.223650813,-0.03200531,-0.07626453
21.86,-0.213469029,0.008648872,-0.339564711
21.87,0.035728335,0.032524109,-0.434093654
21.88,0.046771526,0.020376205,0.131304652
21.89,0.044006705,0.020025253,0.128363937
21.9,-0.005717099,-0.226940155,0.863198936
21.91,-0.008516908,-0.227355003,0.858525693
21.92,-0.107430041,-0.091285706,0.313986689
21.93,-0.051710725,0.030646324,-0.228314787
21.94,0.229903877,0.10228157,-0.343054175
21.95,0.135467947,0.065923691,-0.020646036
21.96,0.130505323,0.065460205,-0.021975845
21.97,-0.052986562,0.055417061,0.271226496
21.98,-0.188554406,-0.021676064,0.271730483
21.99,-0.344598889,0.033065796,0.281124711
22,-0.346113384,0.032883644,0.279554129
22.01,-0.096326351,0.054246902,0.285258651
22.02,-0.11126107,0.056556702,0.301206112
22.03,-0.110741139,0.05657959,0.300760716
22.04,-0.112377584,-0.051071167,0.193733782
22.05,-0.080158353,-0.060471535,-0.01446414
22.06,-0.079432964,-0.060245514,-0.010069728
22.07,-0.017549813,-0.012228012,-0.039416641
22.08,0.043848813,0.028530121,0.036112219
22.09,-0.062120259,0.021389961,0.318713129
22.1,-0.062388599,0.021388054,0.319446713
22.11,-0.088659823,-0.019337654,0.397142589
22.12,-0.033697009,-0.060072899,0.181464389
22.13,-0.0677526,-0.009767532,-0.142417461
22.14,-0.164184451,-0.012076378,-0.153377652
22.15,-0.181371868,-0.067077637,0.038668096
22.16,-0.174812794,-0.107776642,0.210132271
22.17,-0.175412476,-0.107810974,0.210394144
22.18,0.036942959,-0.117444992,0.184286237
22.19,-0.07935822,-0.012224197,0.203141749
22.2,-0.079931915,-0.012318611,0.201943457
22.21,-0.166591346,0.037804604,0.323096454
22.22,0.193066061,0.056620598,0.457255483
22.23,0.076044738,0.056379318,0.278184712
22.24,0.074740112,0.056288719,0.278455913
22.25,-0.007287741,0.044314384,-0.000262618
22.26,-0.070221066,0.025177002,-0.055777013
22.27,-0.051401198,0.056348801,0.029734701
22.28,-0.154543817,0.046803474,0.292065561
22.29,-0.154507875,0.046805382,0.292006522
22.3,-0.111778557,-0.017860413,0.311682701
22.31,-0.185473025,0.015769959,-0.0385952
22.32,0.015616596,-0.008076668,-0.131872058
22.33,0.014342368,-0.008057594,-0.128937155
22.34,0.357406139,-0.001010895,0.228090376
22.35,-0.141616106,-0.192522049,0.563390017
22.36,0.003888667,-0.182882309,0.333777666
22.37,0.004170358,-0.182884216,0.333017767
22.38,-0.059744358,0.034996986,0.085314989
22.39,0.039268136,0.090112686,0.058138579
22.4,0.076946735,0.082830429,0.289159834
22.41,-0.030247808,0.056199074,0.381409675
22.42,-0.089416683,-0.001545906,0.334534377
22.43,-0.091085494,-0.001793861,0.331197351
22.44,-0.03742969,-0.059469223,0.216162324
22.45,-0.031329691,-0.038032532,-0.002401143
22.46,-0.165002227,0.055352211,0.145307973
22.47,-0.164228618,0.012270927,0.306849659
22.48,-0.086399496,-0.040328026,0.351578683
22.49,-0.003687143,-0.064142227,0.306963652
22.5,0.004716158,-0.061558723,0.002949119
22.51,0.010606229,-0.022961617,-0.266964018
22.52,-0.012918651,-0.032269478,-0.129031569
22.53,0.068419576,-0.041715622,0.207102686
22.54,0.067648828,-0.041747093,0.207995832
22.55,0.076126754,-0.044213295,0.378223747
22.56,-0.020854235,0.005982399,0.158782229
22.57,-0.141740203,-0.034747124,0.054887831
22.58,-0.173508465,-0.063492775,0.003071308
22.59,-0.174496889,-0.063536644,0.003750503
22.6,-0.151760578,-0.089992523,0.178292915
22.61,-0.09508127,-0.020690918,0.289025247
22.62,-0.207990944,0.017463684,0.324295908
22.63,-0.252922833,0.03413868,0.306293935
22.64,-0.251980901,0.034097672,0.303278983
22.65,0.004355907,0.036411285,0.140608639
22.66,-0.053100526,0.055473328,0.063876778
22.67,-0.279681861,0.055495262,0.122101069
22.68,-0.145775914,0.055621147,0.209172979
22.69,-0.144602776,0.055667877,0.20810096
22.7,0.075940609,0.055706024,0.148689508
22.71,0.069719851,0.0558424,0.183748409
22.72,-0.048054457,-0.049282074,0.312320203
22.73,0.063953578,-0.077786446,0.156411707
22.74,0.026414633,-0.05365181,-0.024371356
22.75,-0.080063939,-0.070157051,-0.015907317
22.76,-0.19379729,-0.115472794,0.010614902
22.77,-0.193152547,-0.115371704,0.011316925
22.78,0.203469098,-0.017309189,0.122976303
22.79,0.294388413,0.008774757,0.325105518
22.8,-0.105400443,-0.07051754,0.533635497
22.81,-0.104640842,-0.070532799,0.531555772
22.82,-0.369036377,-0.092000008,0.408371031
22.83,-0.139290929,-0.161436081,0.227016375
22.84,-0.113571167,-0.044082642,-0.242705196
22.85,0.006184936,0.044586182,-0.05144912
22.86,0.196313024,0.056369781,0.257842034
22.87,0.193622172,0.055998802,0.253959626
22.88,-0.190876365,0.07724762,0.605760932
22.89,-0.245824873,0.069878578,0.475656033
22.9,-0.245285034,0.06978035,0.47173506
22.91,-0.082082152,0.041022301,0.08483699
22.92,-0.17442745,-0.040248871,0.062305301
22.93,-0.172674179,-0.040048599,0.064038396
22.94,-0.039963007,-0.073433876,0.132102147
22.95,0.054069877,-0.066152573,0.123974666
22.96,-0.090692639,0.013063431,-0.012093395
22.97,-0.153125346,0.001449585,-0.040993184
22.98,-0.026813626,-0.031744957,0.085987389
22.99,-0.025905907,-0.031568527,0.088675022
23,-0.027449965,-0.093719482,0.319480509
23.01,-0.012323618,-0.069675446,0.164610803
23.02,-0.012245834,-0.069611549,0.165939421
23.03,-0.189835131,0.009410858,0.033196241
23.04,-0.300176084,-0.050452232,0.081390947
23.05,-0.271256208,-0.040892601,0.181292325
23.06,-0.249527097,-0.084035873,0.119645059
23.07,-0.249384463,-0.084088326,0.117991447
23.08,-0.153664947,-0.002697945,-0.049916446
23.09,-0.200797319,0.026081085,-0.047969908
23.1,-0.106208265,0.040488243,0.317028433
23.11,-0.104571343,0.040561676,0.315383613
23.12,-0.061825216,0.002432823,0.277264029
23.13,0.088148654,0.005032539,0.142761931
23.14,-0.029770017,0.024430275,0.107227117
23.15,-0.072151601,0.036727905,0.269204199
23.16,-0.097869098,0.036973953,0.398452938
23.17,-0.095049918,0.037195206,0.398029149
23.18,-0.159135163,-0.005680084,0.275020987
23.19,-0.117854476,-0.003051758,0.006509751
23.2,-0.120892346,0.013861656,-0.067846656
23.21,-0.119550586,0.01392746,-0.068770766
23.22,-0.187356114,-0.01234436,0.053876847
23.23,-0.262490571,0.059568405,-0.12008974
23.24,-0.260512829,0.059744835,-0.11979571
23.25,-0.042214692,0.064566612,-0.194182485
23.26,0.194663048,0.059693336,0.163206339
23.27,0.006858289,-0.071992874,0.555450141
23.28,-0.101353526,-0.088652611,0.405122936
23.29,0.031870902,-0.107704163,0.231874719
23.3,-0.151166916,-0.059695244,-0.040995449
23.31,-0.149434686,-0.059453964,-0.038649172
23.32,-0.097377896,0.01000309,-0.182419747
23.33,0.05343312,0.06005764,0.310521483
23.34,-0.13537699,0.136368752,0.397723824
23.35,-0.136885345,0.136061668,0.392952383
23.36,-0.065236747,0.1261549,0.303876787
23.37,-0.138746083,0.085298538,0.162490651
23.38,-0.055712819,-0.003358841,0.214874774
23.39,0.139409542,0.006129265,0.071747273
23.4,0.142542779,-0.001084328,-0.009041458
23.41,-0.010589719,-0.055932045,0.139947608
23.42,-0.231037855,-0.074727058,0.180877522
23.43,-0.227177978,-0.074210167,0.18598859
23.44,-0.135166824,-0.104801178,-0.028362304
23.45,0.060593426,-0.063681602,-0.172530502
23.46,0.05997175,-0.063491821,-0.166186094
23.47,0.120954812,-0.032276154,-0.149638534
23.48,0.0957039,0.053827286,0.23173745
23.49,0.024736762,0.048855782,0.429251134
23.5,-0.076384544,0.041523933,0.376394182
23.51,-0.076151311,0.041506767,0.375444919
23.52,-0.180194199,0.01536274,0.027874619
23.53,-0.285901487,-0.01064682,0.041506529
23.54,-0.282575846,-0.010219574,0.044695109
23.55,-0.237848222,-0.131906509,0.238096461
23.56,-0.23380512,-0.131503105,0.239110604
23.57,-0.28214699,-0.078412056,0.211681604
23.58,-0.086103797,0.027360916,0.092440158
23.59,-0.083535135,0.027645111,0.093826622
23.6,-0.007014275,0.063946724,-0.162660182
23.61,0.023905754,0.116974831,-0.039086849
23.62,0.016820133,0.064628601,0.226635501
23.63,0.074841261,0.03383255,0.263997495
23.64,0.029869854,-0.013684273,0.173116684
23.65,0.032978594,-0.068264961,0.153938949
23.66,-0.030783355,-0.122862816,0.344707459
23.67,-0.027510881,-0.220683098,0.259762704
23.68,-0.041809976,-0.179673195,-0.104562283
23.69,-0.040088594,-0.179288864,-0.100031078
23.7,-0.038811982,-0.0975914,-0.083545983
23.71,0.043127298,-0.066397667,0.112960458
23.72,0.066530287,-0.061686516,0.335131168
23.73,-0.144995868,-0.171977043,0.398002565
23.74,-0.145060778,-0.172102928,0.395265818
23.75,-0.085643768,-0.16510582,0.384933621
23.76,-0.112784863,0.095691681,-0.161008328
23.77,0.061231494,0.131629944,-0.319523305
23.78,0.133282244,0.174645424,-0.070221812
23.79,-0.014811456,0.155303001,0.437422872
23.8,-0.183269084,0.073691368,0.731212616
23.81,-0.142265379,0.030427933,0.43276608
23.82,-0.251923561,-0.072501183,-0.022600323
23.83,-0.249835372,-0.072010994,-0.01608932
23.84,-0.084716976,-0.23673439,-0.081798226
23.85,-0.013287127,-0.236401558,0.153613955
23.86,0.05396378,-0.188261986,0.331212878
23.87,0.056700528,-0.188028336,0.330804884
23.88,-0.062666416,-0.175783157,0.388910472
23.89,-0.10613054,-0.086968422,0.289372087
23.9,0.093192577,0.042417526,0.041160136
23.91,0.091183841,0.071040154,-0.163211376
23.92,0.021262169,0.20977211,-0.220474154
23.93,-0.093828917,0.24552536,-0.156679303
23.94,-0.313120425,0.235852242,-0.005070746
23.95,-0.435135841,0.073018074,0.183623374
23.96,-0.264311731,0.001223564,0.304958075
23.97,-0.007683873,-0.154384613,0.409733355
23.98,-0.008050919,-0.15443325,0.409164608
23.99,-0.033302188,-0.240592003,0.527625084
24,0.098251641,-0.17818737,0.311030954
24.01,0.03477782,-0.158875465,-0.011207134
24.02,-0.112829566,-0.146688461,-0.096722454
24.03,-0.145455062,-0.189600945,-0.005845308
24.04,0.043647051,-0.179995537,0.150428444
24.05,0.095127225,-0.089141846,0.389418125
24.06,0.015604377,-0.017525673,0.402811229
24.07,0.008506894,0.068541527,0.318275183
24.08,-0.090049386,0.027728081,0.299688041
24.09,0.012071431,-0.039469719,0.305438161
24.1,0.137195766,0.024920464,0.2076471
24.11,-0.074102402,0.031680107,0.11579904
24.12,-0.336570919,0.041014671,0.062884837
24.13,-0.38951683,-0.028549194,-0.035194457
24.14,-0.432760418,0.057538986,-0.18328464
24.15,-0.413350225,0.081423759,-0.1920228
24.16,-0.413051784,0.081345558,-0.194639146
24.17,-0.20319891,0.066758156,0.029449523
24.18,0.237439275,0.020821571,0.828436613
24.19,-0.025541306,-0.106604576,1.0477947
24.2,-0.096553862,-0.173923492,0.651519716
24.21,-0.095697522,-0.174063683,0.646372438
24.22,0.132642508,-0.169401169,0.043062538
24.23,0.322813213,0.019512177,-0.27756694
24.24,0.319484651,0.019158363,-0.278681606
24.25,-0.297604799,0.025877953,1.064171195
24.26,-0.341455162,-0.067976952,0.811866641
24.27,-0.227021575,-0.219152451,0.112508923
24.28,-0.026898563,-0.262366295,-0.445838749
24.29,-0.01682955,-0.180990219,-0.516396284
24.3,-0.018241465,-0.181008339,-0.513682365
24.31,-0.128651321,-0.102077484,-0.06986469
24.32,0.017328382,-0.05674839,0.411996692
24.33,0.019936383,-0.09275341,0.323054969
24.34,-0.132591724,-0.140592575,0.061742604
24.35,-0.114421308,-0.202629089,-0.137295008
24.36,-0.068461001,-0.216854096,-0.088944882
24.37,-0.04958564,-0.235970497,0.029951036
24.38,-0.049808085,-0.236006737,0.029501826
24.39,-0.100281358,-0.159416199,0.069745362
24.4,-0.219636202,-0.123477936,-0.014248312
24.41,-0.202787399,-0.087561607,-0.174827784
24.42,-0.172211289,-0.054085732,-0.27981028
24.43,-0.118016839,0.017660141,-0.237010241
24.44,0.021860361,0.050988197,-0.154995501
24.45,-0.129041374,0.062623978,-0.057474881
24.46,-0.325134039,0.021579742,0.084609628
24.47,-0.299661517,-0.014559746,-0.060445279
24.48,-0.246495783,-0.134472847,-0.422858417
24.49,-0.166634679,-0.203971863,-0.691347837
24.5,-0.241489947,-0.199074745,-0.715909362
24.51,-0.239885747,-0.198732376,-0.710774362
24.52,-0.353089333,-0.121524811,-0.606754899
24.53,-0.406678379,-0.096756935,-0.446674496
24.54,-0.382677317,-0.059782982,-0.472402155
24.55,-0.374421537,-0.058534622,-0.460328847
24.56,-0.31652081,-0.028596878,-0.448352575
24.57,-0.070508957,-0.032566071,-0.349827528
24.58,0.226496577,-0.094462395,-0.301552951
24.59,-0.072595954,-0.118378639,-0.322927386
24.6,-0.497801185,-0.111186028,-0.307920605
24.61,-0.574321628,-0.096780777,-0.505721867
24.62,-0.291704238,-0.185317993,-0.701404095
24.63,-0.293103576,-0.185365677,-0.699363589
24.64,-0.053734183,-0.195233345,-0.427845389
24.65,-0.475148261,-0.403623581,-0.068422824
24.66,-0.52504009,-0.647744179,-0.179762751
24.67,-0.528659701,-0.762450218,-0.725818515
24.68,-0.479022563,-0.831181526,-1.059274435
24.69,-0.467261076,-0.830040932,-1.058759451
24.7,-0.318659782,-0.895992279,-0.931105852
24.71,-0.386757672,-0.936015129,-0.475817919
24.72,-0.82472384,-1.13425827,0.176061481
24.73,-0.97657752,-1.325805664,0.117291033
24.74,-0.965726852,-1.665577888,-0.121757895
24.75,-1.043053865,-1.902096748,-0.456457973
24.76,-1.046872258,-1.90355587,-0.506562054
24.77,-1.067259073,-2.120022774,-0.549259007
24.78,-0.838343859,-2.118369579,-0.251206279
24.79,-0.846721768,-2.006236553,-0.057547137
24.8,-1.083358765,-1.812107563,-0.157669962
24.81,-1.171302557,-1.521445274,-0.519888699
24.82,-1.250521779,-1.206204414,-0.825936079
24.83,-1.299095631,-0.76338768,-0.798890591
24.84,-1.296410084,-0.339048386,-0.459009498
24.85,-1.383028984,0.0763731,-0.408700198
24.86,-1.434471369,0.717507362,-0.630768299
24.87,-1.754786849,1.4332304,-1.117953777
24.88,-2.027271271,2.015330315,-1.297744751
24.89,-2.01804471,2.020904541,-1.365054131
24.9,-1.788521171,2.381223679,-0.339390039
24.91,-1.459538221,2.157313347,0.053798974
24.92,-0.696155787,1.822477341,0.096510589
24.93,0.336475194,1.325779915,-0.421609581
24.94,0.331626356,1.327040672,-0.439977884
24.95,0.542352438,0.525372505,-1.401905298
24.96,0.542873263,0.525828362,-1.406011343
24.97,0.150731802,0.21553421,-1.084943771
24.98,0.183279932,-0.226165772,-0.698477507
24.99,0.379592598,-0.608182907,-0.613234997
25,0.045399725,-1.394880295,-1.256527185
25.01,-0.586312532,-1.522825241,-1.089247823
25.02,-0.421639144,-1.444312096,-1.179050684
25.03,-0.429256916,-1.442830086,-1.19967556
25.04,1.675620079,-0.405578613,-1.075648665
25.05,2.672604799,0.039601326,-0.933236301
25.06,2.639712095,0.038554192,-0.951316416
25.07,3.90373826,0.474145889,-1.151724339
25.08,4.438510895,0.60555172,-1.11976707
25.09,4.493574619,-0.599693298,1.215907335
25.1,3.11141634,-1.443025589,1.760795593
25.11,1.50154388,-1.963363647,0.877759695
25.12,0.590736449,-2.404220104,-0.448320448
25.13,0.097621381,-3.007396221,-1.730606079
25.14,-0.456312031,-3.599755764,-2.636477947
25.15,-0.529584467,-3.591372967,-2.707169056
25.16,-1.415876627,-4.708222866,-3.032531261
25.17,-1.483688474,-4.693899632,-3.12352252
25.18,-1.434735179,-5.146539688,-2.682624102
25.19,-0.615801811,-4.998524189,-1.701390505
25.2,0.085916907,-4.427883625,-1.395035625
25.21,0.975811064,-3.836643696,-0.764045477
25.22,0.906967163,-3.264745712,-0.309653521
25.23,0.870639682,-3.238215446,-0.419663429
25.24,1.260786414,-2.722031116,-0.333894014
25.25,2.394265652,-2.125567436,-0.442800283
25.26,4.115590572,-0.816595078,-0.858997703
25.27,4.010031223,-0.774243355,-0.990238786
25.28,3.715776443,1.344555855,0.330174685
25.29,2.861534357,3.009570122,1.870954275
25.3,1.521602273,4.642091751,3.235589504
25.31,-0.86025244,5.998307228,3.60755682
25.32,-0.895523369,6.049847603,3.480781555
25.33,-4.304085255,6.708538055,0.526175499
25.34,-4.324035645,6.731328011,0.474600792
25.35,-4.33817482,5.768750191,-2.059852123
25.36,-2.476976395,4.683229446,-4.556325436
25.37,-0.017102957,2.370195389,-5.00624752
25.38,-0.009932637,2.374316216,-5.017805099
25.39,1.340757489,1.948885918,-3.321041346
25.4,2.069653988,2.026657104,-1.390921354
25.41,1.399219513,3.579508781,0.338162422
25.42,-0.770975947,5.165596008,1.338002682
25.43,-2.826333046,7.135427475,2.036141396
25.44,-4.04295969,8.003180504,1.999850035
25.45,-3.975943089,8.025847435,1.941548347
25.46,-2.732287884,6.827278137,2.987709522
25.47,-2.686876059,5.048774719,5.325955868
25.48,-2.359716177,3.560948372,7.207290649
25.49,-0.254278868,0.772025108,8.593318939
25.5,-0.307180435,0.777199745,8.586873055
25.51,4.108986378,-3.827414989,7.399514198
25.52,5.696541786,-5.26167202,4.62564373
25.53,6.039775372,-5.545723915,2.48055172
25.54,4.609335899,-4.162033558,2.303120613
25.55,1.926755548,-2.077817917,3.909842491
25.56,-0.586731732,0.086270332,5.214583397
25.57,-2.52334547,2.088635445,4.941651344
25.58,-3.834725857,3.544947624,4.168625832
25.59,-5.512988567,4.666805267,3.256253242
25.6,-6.422707081,5.420014381,1.969441414
25.61,-5.887378693,5.936553001,1.529277802
25.62,-3.951163769,6.646604538,2.905770779
25.63,-2.544020653,6.825559616,4.67186594
25.64,-1.404502392,6.892255783,4.794307709
25.65,-1.400434136,6.866662025,4.847480774
25.66,-0.727407157,6.908205986,4.036171436
25.67,0.368418813,7.505101204,2.575897694
25.68,-0.147600055,8.243470192,2.752281189
25.69,-0.088168502,8.206727982,2.826873779
25.7,-1.478720188,8.06090641,3.818529844
25.71,-1.878987908,7.219511032,2.861475945
25.72,-1.826266408,7.173799515,2.968489885
25.73,-1.977721572,3.43252182,-1.207785606
25.74,-1.361900568,1.072526932,-1.874266028
25.75,0.408894837,-1.330028534,-0.556656599
25.76,2.474752188,-3.986604691,1.093784809
25.77,4.371519566,-6.040485382,1.780295849
25.78,5.919600487,-8.261996269,2.2310431
25.79,6.718313694,-10.07051659,2.194098234
25.8,6.702824116,-10.1019268,2.318980217
25.81,3.345257282,-12.32677174,0.144133568
25.82,0.27007395,-13.60872841,-1.796968222
25.83,-2.364768028,-14.52757835,-4.074760437
25.84,-5.012326241,-14.77350235,-6.8877635
25.85,-7.212347984,-13.98101807,-9.698966026
25.86,-7.16919136,-14.00401115,-9.575920105
25.87,-5.305538177,-12.89670372,-10.11835766
25.88,-0.503425598,-11.79827023,-6.852440357
25.89,2.116665602,-11.26262188,-1.575366855
25.9,9.606661797,-9.087360382,5.112487793
25.91,13.19093418,-7.91145134,4.077716351
25.92,10.53965187,-4.22155571,0.551669717
25.93,2.654147387,0.252837181,-2.839579582
25.94,-2.105259895,4.421275139,-4.20357275
25.95,-2.159188509,7.46640873,-3.946105957
25.96,0.6735003,9.88660717,-1.070118189
25.97,3.597253561,10.67984772,1.996510744
25.98,7.294412613,10.51799011,5.144024372
25.99,9.119962692,10.67417145,5.524315357
26,9.108433723,10.67912579,5.493098736
26.01,7.505325317,12.01289082,5.208184242
26.02,2.008930683,13.16370869,5.790834904
26.03,-1.598789096,13.77266216,4.204341888
26.04,-2.502147198,12.91175079,2.353704453
26.05,-1.161328673,10.20971584,2.346694946
26.06,0.203763455,7.231559753,2.610503674
26.07,1.016336441,4.142753601,3.210451126
26.08,0.572916448,1.049567223,4.16452837
26.09,-0.315819532,-1.948735714,3.771979809
26.1,-1.080600739,-3.099339962,3.71505475
26.11,-1.855872273,-5.914412498,3.834215641
26.12,-0.837944329,-7.861979961,4.274263859
26.13,-1.642580509,-9.031002998,1.842703342
26.14,-3.397598743,-9.272415161,-0.750884652
26.15,-5.252825737,-8.72095871,-3.686637878
26.16,-5.409994602,-8.805206299,-4.51880455
26.17,-2.927843094,-9.576293945,-3.073081255
26.18,0.087592483,-10.81336212,0.395634413
26.19,1.028955936,-11.88279533,3.580167294
26.2,1.045791864,-12.37535095,4.345046997
26.21,0.650806606,-12.55893135,2.281013012
26.22,-0.30503881,-12.22024727,-1.172438979
26.23,-0.775700688,-11.37399292,-4.155637264
26.24,-0.298490167,-10.44025135,-4.991854668
26.25,0.169274807,-8.853122711,-4.815901279
26.26,0.227658272,-6.752919197,-3.06709671
26.27,0.062000871,-4.961506367,-1.367760181
26.28,0.930417955,-2.327460766,-0.382004023
26.29,3.057715893,0.926513672,-2.103566885
26.3,4.423080444,5.129855156,-5.570796967
26.31,7.37049675,9.766633034,-7.456276894
26.32,9.48524189,12.90908146,-0.253401995
26.33,9.704725266,14.47526741,12.89789772
26.34,7.101166725,15.66667557,22.75883102
26.35,1.993633389,16.76567459,26.45240974
26.36,2.078493357,16.81114578,26.33618546
26.37,-9.94863987,16.56681442,7.388495445
26.38,-13.21784782,14.50829887,-5.32709837
26.39,-10.49876022,11.09249306,-10.61122799
26.4,-6.419745922,8.53711319,-9.999539375
26.41,-1.593703628,5.407582283,-4.947421551
26.42,2.992451906,1.700158119,2.651876688
26.43,7.689081669,-1.45220089,7.882517815
26.44,10.3627491,-4.317766666,9.331911087
26.45,11.02014828,-5.352253914,5.218635559
26.46,9.800876617,-5.559715271,-0.466817975
26.47,9.650279045,-5.593815804,-0.389527321
26.48,3.325947762,-7.11703968,-5.357111454
26.49,1.379265428,-8.060629845,-3.187327385
26.5,0.918810606,-8.89688015,-0.360650897
26.51,0.532669663,-10.23519516,1.750923157
26.52,-0.008702785,-11.20774651,2.249174595
26.53,0.233255372,-12.17074776,2.221283913
26.54,0.835710049,-13.13175106,1.932579041
26.55,1.832612276,-13.87230682,1.12904644
26.56,2.443080664,-14.19260979,-0.497047007
26.57,2.003504515,-14.22733879,-3.020926952
26.58,0.602238953,-13.04001713,-5.358269691
26.59,-0.600831151,-10.33069038,-6.637818813
26.6,-1.130243897,-7.138090134,-6.137789726
26.61,-0.880201876,-2.255294323,-3.047505856
26.62,-0.912392378,-2.261911869,-2.96243453
26.63,4.486989975,5.62952137,-2.294888973
26.64,10.90849495,9.257246971,-5.622004509
26.65,12.72703266,13.13185883,-3.995165348
26.66,11.13747978,16.16002655,2.214134932
26.67,6.961501122,19.36902046,11.01401901
26.68,2.996955872,21.45733261,13.23451328
26.69,0.802840233,21.37344742,8.526335716
26.7,-0.056154788,18.30816269,1.598849416
26.71,-0.433713794,13.94425106,-2.328906536
26.72,-0.546885133,9.577658653,-2.217128515
26.73,-1.395083308,6.16814518,0.011245139
26.74,0.368253112,2.85086441,2.21696806
26.75,0.316241801,2.857393265,2.315993786
26.76,-0.174482465,-2.037555695,3.269835234
26.77,-0.157672644,-3.510930061,2.697652817
26.78,-0.238675058,-4.784454823,2.666136503
26.79,-0.14502728,-6.304549217,3.43299365
26.8,-0.529732585,-7.845780373,4.428439617
26.81,-1.530644536,-9.665498734,5.121664524
26.82,-1.533125758,-9.652664185,5.231971741
26.83,-2.82915926,-11.25747108,2.272211552
26.84,-3.166988611,-11.87420273,2.949248314
26.85,-1.662271738,-10.7226305,4.03411293
26.86,-1.32918942,-10.85761166,5.723380089
26.87,-0.862737238,-10.58112144,6.977713585
26.88,-1.497510672,-10.16440487,7.001918793
26.89,-2.225100279,-9.985478401,5.836718559
26.9,-2.628440857,-10.09792137,4.399082184
26.91,-2.575552225,-10.04129028,4.605410099
26.92,-2.167593002,-10.17584515,3.187208176
26.93,-2.888985395,-9.753334045,2.762643099
26.94,-1.571419239,-2.300734043,1.688178778
26.95,-3.116769791,4.924387932,-3.327265739
26.96,-3.530108452,9.876793861,-4.692884922
26.97,-6.271904945,11.851367,0.431503296
26.98,-9.597146034,12.15422726,5.894911289
26.99,-9.544570923,12.11865139,5.802458763
27,-11.37256622,13.92542362,6.219155312
27.01,-11.43553352,14.25760078,4.546521187
27.02,-9.962459564,13.58743191,1.990228772
27.03,-8.36280632,12.14530277,0.497442246
27.04,-6.113358021,10.35660076,-0.178861618
27.05,-4.453395367,8.440771103,-0.130657196
27.06,-4.697053432,6.669100761,0.567687273
27.07,-4.903013706,6.67282486,0.519521236
27.08,1.32342875,1.034943581,1.33431983
27.09,1.060640812,1.045053482,1.242875814
27.1,3.325067043,-2.479207039,4.267981529
27.11,3.391002178,-4.171170235,5.881640434
27.12,2.18973875,-5.190975666,6.021831512
27.13,0.341927052,-6.31939888,4.086853504
27.14,-1.074085355,-8.109765053,1.801220655
27.15,-1.134068131,-8.1238451,1.653612137
27.16,-2.617427826,-11.22791481,0.674944937
27.17,-2.283190966,-12.6895752,1.885718107
27.18,-2.366186619,-12.68547249,1.771520376
27.19,1.46978426,-13.64303112,1.865894914
27.2,2.94532299,-12.85443306,1.307543039
27.21,2.75355792,-12.13676357,0.705482721
27.22,2.703890085,-12.13262463,0.607792616
27.23,1.361335278,-9.495199203,-0.943263531
27.24,1.320045233,-9.490653992,-1.035262823
27.25,0.908832073,-7.675400734,-0.544885278
27.26,3.216039181,-2.318264008,-1.287621737
27.27,3.140679359,2.037302017,-2.748201847
27.28,3.041935682,2.06521225,-2.838648796
27.29,4.656851768,10.47352791,1.380438089
27.3,2.43678689,14.90748501,5.632496834
27.31,0.251013517,18.09250069,8.061376572
27.32,-0.260792494,20.08866882,6.972270012
27.33,1.714592457,19.8611908,6.092981815
27.34,3.681709528,18.93318939,4.469097137
27.35,2.381913424,17.17207909,3.234082937
27.36,1.704201937,15.81873989,3.023308039
27.37,2.305649519,13.86817169,2.179932594
27.38,2.380600691,13.85891724,2.058261633
27.39,1.706865311,10.04947281,2.967157364
27.4,1.774254322,10.04562187,2.853034496
27.41,0.18044281,6.917369843,4.312810421
27.42,-2.058762312,-0.250853539,6.103801727
27.43,-1.998435497,-0.262900353,6.076013565
27.44,-2.307167292,-7.426485538,5.26970005
27.45,-3.495210648,-10.04907322,3.714770317
27.46,-4.872906208,-12.40204811,0.851373792
27.47,-4.602825642,-14.01632118,-1.860653043
27.48,-4.526560783,-14.03238678,-1.868463039
27.49,-4.162935257,-14.94297028,-2.789020061
27.5,-3.499926567,-14.56706619,-0.337384343
27.51,-4.727162838,-13.16773605,0.933833957
27.52,-6.874100208,-11.12440395,2.651405096
27.53,-6.872434616,-11.11326313,2.58624649
27.54,-7.710596085,-9.734974861,4.534558296
27.55,-7.911358833,-7.509097576,1.12147975
27.56,-6.57057333,-6.073590279,-0.361459732
27.57,-3.66603899,-3.966715813,-0.606372714
27.58,-1.050580621,-0.842090607,-0.23970902
27.59,2.818013191,3.669706345,0.565367341
27.6,3.345902443,6.762829781,5.053935528
27.61,2.211513281,9.074360847,9.623519897
27.62,0.631990671,10.38952065,11.15844727
27.63,-1.37834394,12.52193928,11.51494503
27.64,-5.655256748,15.50144768,10.70889473
27.65,-11.54981804,18.08385849,7.299279213
27.66,-11.42619801,18.08658981,7.239957333
27.67,-10.82589626,16.25634193,-2.514627934
27.68,-5.524519444,12.94810486,-1.307134271
27.69,-1.380202532,9.636310577,2.184653044
27.7,-0.091187656,6.622109413,3.62196517
27.71,-0.115033805,6.629639626,3.60521102
27.72,0.991115809,1.401687622,2.080625057
27.73,2.317110538,-1.69580555,2.209409952
27.74,2.446491957,-4.128596783,2.748523951
27.75,2.391580105,-4.129674435,2.774055004
27.76,2.036011696,-5.832748413,2.098101854
27.77,0.66037643,-8.541013718,-1.222311378
27.78,-0.460027456,-9.586605072,-2.142557859
27.79,-1.220036507,-10.4818306,-3.818705559
27.8,-2.201224327,-10.12174225,-4.196228027
27.81,-2.226226807,-10.127738,-4.162428379
27.82,-1.753040314,-9.304338455,-3.083705425
27.83,-0.92593956,-9.76941967,0.064179897
27.84,0.525588036,-10.8041029,3.434405804
27.85,1.944410205,-12.79400253,5.537910461
27.86,3.249574184,-14.49556637,3.462382078
27.87,2.945832014,-14.3177166,-2.796336174
27.88,1.455426216,-12.84574699,-10.37500286
27.89,3.310045958,-8.91651535,-16.22295952
27.9,8.13973999,-3.066205978,-10.91214657
27.91,10.69894505,1.524992943,-2.113723993
27.92,13.0358057,6.510394096,3.875312805
27.93,10.79052925,11.32842827,8.182764053
27.94,6.179969311,13.83762074,11.44234276
27.95,6.217283726,13.84145546,11.38728905
27.96,-0.912948966,15.59410954,12.9218111
27.97,-6.941726685,15.59517002,7.773306847
27.98,-6.829492569,15.56505871,7.778607368
27.99,-5.096954346,13.16623878,2.107523441
28,-4.002040386,10.92895985,-3.395771265
28.01,-1.491954565,9.528226852,-5.424710274
28.02,1.689887524,9.00658989,-3.601431847
28.03,3.143043041,8.51277256,4.683368683
28.04,1.490203381,6.487925529,9.071638107
